timestamp,acc_x,acc_y,acc_z,gyro_x,gyro_y,gyro_z
1747679482.5619652,-0.047164064,0.72814476,0.57188714,0.0896153,0.27230802,-0.46099284
1747679482.56251,-0.047164064,0.72814476,0.57188714,0.0896153,0.27230802,-0.46099284
1747679482.5630517,-0.047164064,0.72814476,0.57188714,0.0896153,0.27230802,-0.46099284
1747679482.5636096,-0.047164064,0.72814476,0.57188714,0.0896153,0.27230802,-0.46099284
1747679482.5641832,-0.071569785,0.75206244,0.5933642,0.0896153,0.27230802,-0.46099284
1747679482.5647314,-0.071569785,0.75206244,0.5933642,0.0896153,0.27230802,-0.46099284
1747679482.5653796,-0.071569785,0.75206244,0.5933642,0.0896153,0.27230802,-0.46099284
1747679482.5659428,-0.071569785,0.75206244,0.5933642,0.0896153,0.27230802,-0.46099284
1747679482.5665188,-0.071569785,0.75206244,0.5933642,0.0896153,0.27230802,-0.46099284
1747679482.5670848,-0.071569785,0.75206244,0.5933642,0.0896153,0.27230802,-0.46099284
1747679482.5676434,-0.071569785,0.75206244,0.5933642,0.0896153,0.27230802,-0.46099284
1747679482.5681853,-0.071569785,0.75206244,0.5933642,0.0896153,0.27230802,-0.46099284
1747679482.5687137,-0.071569785,0.75206244,0.5933642,0.0896153,0.27230802,-0.46099284
1747679482.5692415,-0.071569785,0.75206244,0.5933642,0.0896153,0.27230802,-0.46099284
1747679482.5697756,-0.0989042,0.74522877,0.61972237,0.028895276,0.051798444,-0.4567318
1747679482.5703049,-0.0989042,0.74522877,0.61972237,0.028895276,0.051798444,-0.4567318
1747679482.5708318,-0.0989042,0.74522877,0.61972237,0.028895276,0.051798444,-0.4567318
1747679482.5713606,-0.0989042,0.74522877,0.61972237,0.028895276,0.051798444,-0.4567318
1747679482.5718904,-0.0989042,0.74522877,0.61972237,0.028895276,0.051798444,-0.4567318
1747679482.5724,-0.0989042,0.74522877,0.61972237,0.028895276,0.051798444,-0.4567318
1747679482.5729227,-0.0989042,0.74522877,0.61972237,0.028895276,0.051798444,-0.4567318
1747679482.5734448,-0.0989042,0.74522877,0.61972237,0.028895276,0.051798444,-0.4567318
1747679482.5739868,-0.0989042,0.74522877,0.61972237,0.028895276,0.051798444,-0.4567318
1747679482.574538,-0.0989042,0.74522877,0.61972237,0.028895276,0.051798444,-0.4567318
1747679482.5750666,-0.0989042,0.74522877,0.61972237,0.028895276,0.051798444,-0.4567318
1747679482.5755913,-0.0989042,0.74522877,0.61972237,0.028895276,0.051798444,-0.4567318
1747679482.5761142,-0.0989042,0.74522877,0.61972237,0.028895276,0.051798444,-0.4567318
1747679482.576637,-0.0989042,0.74522877,0.61972237,0.028895276,0.051798444,-0.4567318
1747679482.5771592,-0.0989042,0.74522877,0.61972237,0.028895276,0.051798444,-0.4567318
1747679482.5776818,-0.0989042,0.74522877,0.61972237,0.028895276,0.051798444,-0.4567318
1747679482.578204,-0.0989042,0.74522877,0.61972237,0.028895276,0.051798444,-0.4567318
1747679482.5787497,-0.0989042,0.74522877,0.61972237,0.028895276,0.051798444,-0.4567318
1747679482.5793135,-0.0989042,0.74522877,0.61972237,0.028895276,0.051798444,-0.4567318
1747679482.5798645,-0.0989042,0.74522877,0.61972237,0.028895276,0.051798444,-0.4567318
1747679482.5804317,-0.0989042,0.74522877,0.61972237,0.028895276,0.051798444,-0.4567318
1747679482.5811684,-0.0989042,0.74522877,0.61972237,0.028895276,0.051798444,-0.4567318
1747679482.5817144,-0.0989042,0.74522877,0.61972237,0.028895276,0.051798444,-0.4567318
1747679482.5822515,-0.0989042,0.74522877,0.61972237,0.028895276,0.051798444,-0.4567318
1747679482.582781,-0.10671404,0.724728,0.65779525,-0.023302643,-0.06751108,-0.4119907
1747679482.5833063,-0.10671404,0.724728,0.65779525,-0.023302643,-0.06751108,-0.4119907
1747679482.5838287,-0.10671404,0.724728,0.65779525,-0.023302643,-0.06751108,-0.4119907
1747679482.5843754,-0.10671404,0.724728,0.65779525,-0.023302643,-0.06751108,-0.4119907
1747679482.584933,-0.10671404,0.724728,0.65779525,-0.023302643,-0.06751108,-0.4119907
1747679482.5854611,-0.10671404,0.724728,0.65779525,-0.023302643,-0.06751108,-0.4119907
1747679482.585984,-0.10671404,0.724728,0.65779525,-0.023302643,-0.06751108,-0.4119907
1747679482.5865228,-0.10671404,0.724728,0.65779525,-0.023302643,-0.06751108,-0.4119907
1747679482.5870705,-0.10671404,0.724728,0.65779525,-0.023302643,-0.06751108,-0.4119907
1747679482.5875995,-0.10671404,0.724728,0.65779525,-0.023302643,-0.06751108,-0.4119907
1747679482.5881224,-0.10671404,0.724728,0.65779525,-0.023302643,-0.06751108,-0.4119907
1747679482.5886445,-0.10671404,0.724728,0.65779525,-0.023302643,-0.06751108,-0.4119907
1747679482.5891669,-0.10671404,0.724728,0.65779525,-0.023302643,-0.06751108,-0.4119907
1747679482.5896943,-0.108666494,0.7232637,0.75737065,-0.04886897,-0.11757848,-0.35766226
1747679482.5902216,-0.108666494,0.7232637,0.75737065,-0.04886897,-0.11757848,-0.35766226
1747679482.5907466,-0.108666494,0.7232637,0.75737065,-0.04886897,-0.11757848,-0.35766226
1747679482.591269,-0.108666494,0.7232637,0.75737065,-0.04886897,-0.11757848,-0.35766226
1747679482.5917938,-0.108666494,0.7232637,0.75737065,-0.04886897,-0.11757848,-0.35766226
1747679482.5923169,-0.108666494,0.7232637,0.75737065,-0.04886897,-0.11757848,-0.35766226
1747679482.5928392,-0.108666494,0.7232637,0.75737065,-0.04886897,-0.11757848,-0.35766226
1747679482.5933614,-0.108666494,0.7232637,0.75737065,-0.04886897,-0.11757848,-0.35766226
1747679482.593906,-0.108666494,0.7232637,0.75737065,-0.04886897,-0.11757848,-0.35766226
1747679482.5944748,-0.108666494,0.7232637,0.75737065,-0.04886897,-0.11757848,-0.35766226
1747679482.5950446,-0.108666494,0.7232637,0.75737065,-0.04886897,-0.11757848,-0.35766226
1747679482.5956376,-0.108666494,0.7232637,0.75737065,-0.04886897,-0.11757848,-0.35766226
1747679482.5961993,-0.108666494,0.7232637,0.75737065,-0.04886897,-0.11757848,-0.35766226
1747679482.5967667,-0.108666494,0.7232637,0.75737065,-0.04886897,-0.11757848,-0.35766226
1747679482.5973365,-0.108666494,0.7232637,0.75737065,-0.04886897,-0.11757848,-0.35766226
1747679482.5978963,-0.108666494,0.7232637,0.75737065,-0.04886897,-0.11757848,-0.35766226
1747679482.5984473,-0.108666494,0.7232637,0.75737065,-0.04886897,-0.11757848,-0.35766226
1747679482.5989847,-0.108666494,0.7232637,0.75737065,-0.04886897,-0.11757848,-0.35766226
1747679482.5995085,-0.108666494,0.7232637,0.75737065,-0.04886897,-0.11757848,-0.35766226
1747679482.6000311,-0.108666494,0.7232637,0.75737065,-0.04886897,-0.11757848,-0.35766226
1747679482.6005535,-0.108666494,0.7232637,0.75737065,-0.04886897,-0.11757848,-0.35766226
1747679482.6010761,-0.108666494,0.7232637,0.75737065,-0.04886897,-0.11757848,-0.35766226
1747679482.6015987,-0.108666494,0.7232637,0.75737065,-0.04886897,-0.11757848,-0.35766226
1747679482.6021254,-0.108666494,0.7232637,0.75737065,-0.04886897,-0.11757848,-0.35766226
1747679482.602737,-0.09060626,0.729121,0.8418145,-0.021172116,-0.07709846,-0.32250857
1747679482.6153297,-0.022270223,0.72765666,0.95896196,0.124769,0.051798444,-0.31398645
1747679482.6159167,-0.022270223,0.72765666,0.95896196,0.124769,0.051798444,-0.31398645
1747679482.6164858,-0.022270223,0.72765666,0.95896196,0.124769,0.051798444,-0.31398645
1747679482.6170435,-0.022270223,0.72765666,0.95896196,0.124769,0.051798444,-0.31398645
1747679482.6175847,-0.022270223,0.72765666,0.95896196,0.124769,0.051798444,-0.31398645
1747679482.6181343,-0.022270223,0.72765666,0.95896196,0.124769,0.051798444,-0.31398645
1747679482.618672,-0.022270223,0.72765666,0.95896196,0.124769,0.051798444,-0.31398645
1747679482.6191962,-0.022270223,0.72765666,0.95896196,0.124769,0.051798444,-0.31398645
1747679482.6197183,-0.022270223,0.72765666,0.95896196,0.124769,0.051798444,-0.31398645
1747679482.6202407,-0.022270223,0.72765666,0.95896196,0.124769,0.051798444,-0.31398645
1747679482.6208427,-0.022270223,0.72765666,0.95896196,0.124769,0.051798444,-0.31398645
1747679482.6214104,-0.022270223,0.72765666,0.95896196,0.124769,0.051798444,-0.31398645
1747679482.6219525,-0.022270223,0.72765666,0.95896196,0.124769,0.051798444,-0.31398645
1747679482.6224847,0.014826477,0.7232637,0.91259104,0.23023011,0.17963009,-0.35127068
1747679482.623009,0.014826477,0.7232637,0.91259104,0.23023011,0.17963009,-0.35127068
1747679482.623551,0.014826477,0.7232637,0.91259104,0.23023011,0.17963009,-0.35127068
1747679482.6240952,0.014826477,0.7232637,0.91259104,0.23023011,0.17963009,-0.35127068
1747679482.624627,0.014826477,0.7232637,0.91259104,0.23023011,0.17963009,-0.35127068
1747679482.6251495,0.014826477,0.7232637,0.91259104,0.23023011,0.17963009,-0.35127068
1747679482.625693,0.014826477,0.7232637,0.91259104,0.23023011,0.17963009,-0.35127068
1747679482.6266854,0.014826477,0.7232637,0.91259104,0.23023011,0.17963009,-0.35127068
1747679482.6272573,0.014826477,0.7232637,0.91259104,0.23023011,0.17963009,-0.35127068
1747679482.627826,0.014826477,0.7232637,0.91259104,0.23023011,0.17963009,-0.35127068
1747679482.6283915,0.014826477,0.7232637,0.91259104,0.23023011,0.17963009,-0.35127068
1747679482.6289518,0.014826477,0.7232637,0.91259104,0.23023011,0.17963009,-0.35127068
1747679482.6295097,0.014826477,0.7232637,0.91259104,0.23023011,0.17963009,-0.35127068
1747679482.6300669,0.014826477,0.7232637,0.91259104,0.23023011,0.17963009,-0.35127068
1747679482.6306243,0.014826477,0.7232637,0.91259104,0.23023011,0.17963009,-0.35127068
1747679482.6311893,0.014826477,0.7232637,0.91259104,0.23023011,0.17963009,-0.35127068
1747679482.631743,0.014826477,0.7232637,0.91259104,0.23023011,0.17963009,-0.35127068
1747679482.6322973,0.014826477,0.7232637,0.91259104,0.23023011,0.17963009,-0.35127068
1747679482.633118,0.014826477,0.7232637,0.91259104,0.29308066,0.23928484,-0.4269044
1747679482.633672,0.014826477,0.7232637,0.91259104,0.29308066,0.23928484,-0.4269044
1747679482.6342552,0.014826477,0.7232637,0.91259104,0.29308066,0.23928484,-0.4269044
1747679482.6348152,0.014826477,0.7232637,0.91259104,0.29308066,0.23928484,-0.4269044
1747679482.6353853,0.014826477,0.7232637,0.91259104,0.29308066,0.23928484,-0.4269044
1747679482.6359463,0.014826477,0.7232637,0.91259104,0.29308066,0.23928484,-0.4269044
1747679482.6365082,0.014826477,0.7232637,0.91259104,0.29308066,0.23928484,-0.4269044
1747679482.6370592,0.014826477,0.7232637,0.91259104,0.29308066,0.23928484,-0.4269044
1747679482.637589,0.014826477,0.7232637,0.91259104,0.29308066,0.23928484,-0.4269044
1747679482.638113,0.014826477,0.7232637,0.91259104,0.29308066,0.23928484,-0.4269044
1747679482.6386359,0.014826477,0.7232637,0.91259104,0.29308066,0.23928484,-0.4269044
1747679482.6391582,0.014826477,0.7232637,0.91259104,0.29308066,0.23928484,-0.4269044
1747679482.6396844,0.014826477,0.7232637,0.91259104,0.29308066,0.23928484,-0.4269044
1747679482.6402082,0.014826477,0.7232637,0.91259104,0.29308066,0.23928484,-0.4269044
1747679482.6407306,0.014826477,0.7232637,0.91259104,0.29308066,0.23928484,-0.4269044
1747679482.6412814,0.039232206,0.80282634,0.6319252,0.29308066,0.23928484,-0.4269044
1747679482.6424656,0.039232206,0.80282634,0.6319252,0.2685796,0.05286371,-0.54940975
1747679482.643762,0.039232206,0.80282634,0.6319252,0.2685796,0.05286371,-0.54940975
1747679482.6446872,0.039232206,0.80282634,0.6319252,0.2685796,0.05286371,-0.54940975
1747679482.6452367,0.039232206,0.80282634,0.6319252,0.2685796,0.05286371,-0.54940975
1747679482.6457663,0.039232206,0.80282634,0.6319252,0.2685796,0.05286371,-0.54940975
1747679482.6463053,0.039232206,0.80282634,0.6319252,0.2685796,0.05286371,-0.54940975
1747679482.6468482,0.039232206,0.80282634,0.6319252,0.2685796,0.05286371,-0.54940975
1747679482.647372,0.039232206,0.80282634,0.6319252,0.2685796,0.05286371,-0.54940975
1747679482.6478949,0.039232206,0.80282634,0.6319252,0.2685796,0.05286371,-0.54940975
1747679482.6484172,0.039232206,0.80282634,0.6319252,0.2685796,0.05286371,-0.54940975
1747679482.6489441,0.039232206,0.80282634,0.6319252,0.2685796,0.05286371,-0.54940975
1747679482.649468,0.039232206,0.80282634,0.6319252,0.2685796,0.05286371,-0.54940975
1747679482.6499903,0.039232206,0.80282634,0.6319252,0.2685796,0.05286371,-0.54940975
1747679482.6505134,0.039232206,0.80282634,0.6319252,0.2685796,0.05286371,-0.54940975
1747679482.65104,0.039232206,0.80282634,0.6319252,0.14394376,-0.21877852,-0.6697845
1747679482.6515696,0.039232206,0.80282634,0.6319252,0.14394376,-0.21877852,-0.6697845
1747679482.652097,0.039232206,0.80282634,0.6319252,0.14394376,-0.21877852,-0.6697845
1747679482.6526191,0.039232206,0.80282634,0.6319252,0.14394376,-0.21877852,-0.6697845
1747679482.6531415,0.039232206,0.80282634,0.6319252,0.14394376,-0.21877852,-0.6697845
1747679482.653664,0.039232206,0.80282634,0.6319252,0.14394376,-0.21877852,-0.6697845
1747679482.654211,0.039232206,0.80282634,0.6319252,0.14394376,-0.21877852,-0.6697845
1747679482.6547692,0.039232206,0.80282634,0.6319252,0.14394376,-0.21877852,-0.6697845
1747679482.6552978,0.039232206,0.80282634,0.6319252,0.14394376,-0.21877852,-0.6697845
1747679482.655821,0.039232206,0.80282634,0.6319252,0.14394376,-0.21877852,-0.6697845
1747679482.6563435,0.039232206,0.80282634,0.6319252,0.14394376,-0.21877852,-0.6697845
1747679482.6568866,0.039232206,0.80282634,0.6319252,0.14394376,-0.21877852,-0.6697845
1747679482.6575682,0.039232206,0.80282634,0.6319252,0.14394376,-0.21877852,-0.6697845
1747679482.658138,0.039232206,0.80282634,0.6319252,0.14394376,-0.21877852,-0.6697845
1747679482.6587021,0.039232206,0.80282634,0.6319252,0.14394376,-0.21877852,-0.6697845
1747679482.6592612,0.039232206,0.80282634,0.6319252,0.14394376,-0.21877852,-0.6697845
1747679482.6598492,0.039232206,0.80282634,0.6319252,0.14394376,-0.21877852,-0.6697845
1747679482.6604095,0.039232206,0.80282634,0.6319252,0.14394376,-0.21877852,-0.6697845
1747679482.660974,0.039232206,0.80282634,0.6319252,0.14394376,-0.21877852,-0.6697845
1747679482.6615314,0.039232206,0.80282634,0.6319252,-0.030759487,-0.4478102,-0.71878666
1747679482.6620877,0.039232206,0.80282634,0.6319252,-0.030759487,-0.4478102,-0.71878666
1747679482.6626432,0.039232206,0.80282634,0.6319252,-0.030759487,-0.4478102,-0.71878666
1747679482.6631947,0.039232206,0.80282634,0.6319252,-0.030759487,-0.4478102,-0.71878666
1747679482.6637502,0.039232206,0.80282634,0.6319252,-0.030759487,-0.4478102,-0.71878666
1747679482.6642995,0.039232206,0.80282634,0.6319252,-0.030759487,-0.4478102,-0.71878666
1747679482.6648633,0.039232206,0.80282634,0.6319252,-0.030759487,-0.4478102,-0.71878666
1747679482.6654356,0.039232206,0.80282634,0.6319252,-0.030759487,-0.4478102,-0.71878666
1747679482.665992,0.039232206,0.80282634,0.6319252,-0.030759487,-0.4478102,-0.71878666
1747679482.6665246,0.039232206,0.80282634,0.6319252,-0.030759487,-0.4478102,-0.71878666
1747679482.6670518,0.039232206,0.80282634,0.6319252,-0.030759487,-0.4478102,-0.71878666
1747679482.667579,0.039232206,0.80282634,0.6319252,-0.030759487,-0.4478102,-0.71878666
1747679482.668106,0.039232206,0.80282634,0.6319252,-0.030759487,-0.4478102,-0.71878666
1747679482.6686325,0.039232206,0.80282634,0.6319252,-0.030759487,-0.4478102,-0.71878666
1747679482.6691642,-0.122821815,0.8540783,0.567006,-0.030759487,-0.4478102,-0.71878666
1747679482.6696947,-0.122821815,0.8540783,0.567006,-0.030759487,-0.4478102,-0.71878666
1747679482.6702225,-0.122821815,0.8540783,0.567006,-0.030759487,-0.4478102,-0.71878666
1747679482.6707716,-0.122821815,0.8540783,0.567006,-0.030759487,-0.4478102,-0.71878666
1747679482.6712997,-0.122821815,0.8540783,0.567006,-0.030759487,-0.4478102,-0.71878666
1747679482.6718292,-0.122821815,0.8540783,0.567006,-0.030759487,-0.4478102,-0.71878666
1747679482.6725507,-0.122821815,0.8540783,0.567006,-0.030759487,-0.4478102,-0.71878666
1747679482.6731257,-0.122821815,0.8540783,0.567006,-0.030759487,-0.4478102,-0.71878666
1747679482.6745436,-0.122821815,0.8540783,0.567006,-0.030759487,-0.4478102,-0.71878666
1747679482.6764405,-0.122821815,0.8540783,0.567006,-0.030759487,-0.4478102,-0.71878666
1747679482.6770134,-0.122821815,0.8540783,0.567006,-0.030759487,-0.4478102,-0.71878666
1747679482.6775515,-0.122821815,0.8540783,0.567006,-0.030759487,-0.4478102,-0.71878666
1747679482.6780753,-0.122821815,0.8540783,0.567006,-0.030759487,-0.4478102,-0.71878666
1747679482.678598,-0.122821815,0.8540783,0.567006,-0.030759487,-0.4478102,-0.71878666
1747679482.6791203,-0.122821815,0.8540783,0.567006,-0.030759487,-0.4478102,-0.71878666
1747679482.6796434,-0.122821815,0.8540783,0.567006,-0.030759487,-0.4478102,-0.71878666
1747679482.6801722,-0.12867919,0.84822094,0.694892,-0.21718062,-0.7428882,-0.6346308
1747679482.6806974,-0.12867919,0.84822094,0.694892,-0.21718062,-0.7428882,-0.6346308
1747679482.6812198,-0.12867919,0.84822094,0.694892,-0.21718062,-0.7428882,-0.6346308
1747679482.6817422,-0.12867919,0.84822094,0.694892,-0.21718062,-0.7428882,-0.6346308
1747679482.6822646,-0.12867919,0.84822094,0.694892,-0.21718062,-0.7428882,-0.6346308
1747679482.6827872,-0.12867919,0.84822094,0.694892,-0.21718062,-0.7428882,-0.6346308
1747679482.6833096,-0.12867919,0.84822094,0.694892,-0.21718062,-0.7428882,-0.6346308
1747679482.6838572,-0.12867919,0.84822094,0.694892,-0.21718062,-0.7428882,-0.6346308
1747679482.6844091,-0.12867919,0.84822094,0.694892,-0.21718062,-0.7428882,-0.6346308
1747679482.6849382,-0.12867919,0.84822094,0.694892,-0.21718062,-0.7428882,-0.6346308
1747679482.6854613,-0.12867919,0.84822094,0.694892,-0.21718062,-0.7428882,-0.6346308
1747679482.6860044,-0.12867919,0.84822094,0.694892,-0.21718062,-0.7428882,-0.6346308
1747679482.6865559,-0.12867919,0.84822094,0.694892,-0.21718062,-0.7428882,-0.6346308
1747679482.6871026,-0.12867919,0.84822094,0.694892,-0.21718062,-0.7428882,-0.6346308
1747679482.6876776,-0.12867919,0.84822094,0.694892,-0.21718062,-0.7428882,-0.6346308
1747679482.6882465,-0.12867919,0.84822094,0.694892,-0.21718062,-0.7428882,-0.6346308
1747679482.6888094,-0.088653795,0.8545664,0.7954436,-0.15539533,-0.6981472,-0.5813676
1747679482.690486,-0.088653795,0.8545664,0.7954436,-0.15539533,-0.6981472,-0.5813676
1747679482.6910837,-0.088653795,0.8545664,0.7954436,-0.15539533,-0.6981472,-0.5813676
1747679482.6916401,-0.088653795,0.8545664,0.7954436,-0.15539533,-0.6981472,-0.5813676
1747679482.6921785,-0.088653795,0.8545664,0.7954436,-0.15539533,-0.6981472,-0.5813676
1747679482.6927032,-0.088653795,0.8545664,0.7954436,-0.15539533,-0.6981472,-0.5813676
1747679482.693226,-0.088653795,0.8545664,0.7954436,-0.15539533,-0.6981472,-0.5813676
1747679482.6937485,-0.088653795,0.8545664,0.7954436,-0.15539533,-0.6981472,-0.5813676
1747679482.6942885,-0.088653795,0.8545664,0.7954436,-0.15539533,-0.6981472,-0.5813676
1747679482.6948287,-0.088653795,0.8545664,0.7954436,-0.15539533,-0.6981472,-0.5813676
1747679482.6953554,-0.088653795,0.8545664,0.7954436,-0.15539533,-0.6981472,-0.5813676
1747679482.6958785,-0.088653795,0.8545664,0.7954436,-0.15539533,-0.6981472,-0.5813676
1747679482.6964006,-0.088653795,0.8545664,0.7954436,-0.15539533,-0.6981472,-0.5813676
1747679482.6969235,-0.088653795,0.8545664,0.7954436,-0.15539533,-0.6981472,-0.5813676
1747679482.6974454,-0.088653795,0.8545664,0.7954436,-0.15539533,-0.6981472,-0.5813676
1747679482.6979678,-0.088653795,0.8545664,0.7954436,-0.15539533,-0.6981472,-0.5813676
1747679482.69849,-0.088653795,0.8545664,0.7954436,-0.15539533,-0.6981472,-0.5813676
1747679482.6990123,-0.088653795,0.8545664,0.7954436,-0.15539533,-0.6981472,-0.5813676
1747679482.6995397,-0.06912921,0.8701861,0.87598246,-0.036085807,-0.6342313,-0.5526055
1747679482.700067,-0.06912921,0.8701861,0.87598246,-0.036085807,-0.6342313,-0.5526055
1747679482.7006075,-0.06912921,0.8701861,0.87598246,-0.036085807,-0.6342313,-0.5526055
1747679482.7011442,-0.06912921,0.8701861,0.87598246,-0.036085807,-0.6342313,-0.5526055
1747679482.701668,-0.06912921,0.8701861,0.87598246,-0.036085807,-0.6342313,-0.5526055
1747679482.7021906,-0.06912921,0.8701861,0.87598246,-0.036085807,-0.6342313,-0.5526055
1747679482.7027552,-0.06912921,0.8701861,0.87598246,-0.036085807,-0.6342313,-0.5526055
1747679482.7033432,-0.06912921,0.8701861,0.87598246,-0.036085807,-0.6342313,-0.5526055
1747679482.703963,-0.06912921,0.8701861,0.87598246,-0.036085807,-0.6342313,-0.5526055
1747679482.7045324,-0.06912921,0.8701861,0.87598246,-0.036085807,-0.6342313,-0.5526055
1747679482.7060525,-0.06912921,0.8701861,0.87598246,-0.036085807,-0.6342313,-0.5526055
1747679482.7079022,-0.06912921,0.8701861,0.87598246,-0.036085807,-0.6342313,-0.5526055
1747679482.7084737,-0.06912921,0.8701861,0.87598246,-0.036085807,-0.6342313,-0.5526055
1747679482.7090244,-0.06912921,0.8701861,0.87598246,-0.036085807,-0.6342313,-0.5526055
1747679482.7095532,-0.06912921,0.8701861,0.87598246,-0.036085807,-0.6342313,-0.5526055
1747679482.7100792,-0.06912921,0.8701861,0.87598246,-0.036085807,-0.6342313,-0.5526055
1747679482.710603,-0.06912921,0.8701861,0.87598246,-0.036085807,-0.6342313,-0.5526055
1747679482.7111304,-0.07059356,0.88775826,0.946271,0.1364869,-0.59055555,-0.53343076
1747679482.7116547,-0.07059356,0.88775826,0.946271,0.1364869,-0.59055555,-0.53343076
1747679482.7121775,-0.07059356,0.88775826,0.946271,0.1364869,-0.59055555,-0.53343076
1747679482.7127,-0.07059356,0.88775826,0.946271,0.1364869,-0.59055555,-0.53343076
1747679482.713222,-0.07059356,0.88775826,0.946271,0.1364869,-0.59055555,-0.53343076
1747679482.7137444,-0.07059356,0.88775826,0.946271,0.1364869,-0.59055555,-0.53343076
1747679482.7142909,-0.07059356,0.88775826,0.946271,0.1364869,-0.59055555,-0.53343076
1747679482.714842,-0.07059356,0.88775826,0.946271,0.1364869,-0.59055555,-0.53343076
1747679482.7153707,-0.07059356,0.88775826,0.946271,0.1364869,-0.59055555,-0.53343076
1747679482.715894,-0.07059356,0.88775826,0.946271,0.1364869,-0.59055555,-0.53343076
1747679482.7164166,-0.07059356,0.88775826,0.946271,0.1364869,-0.59055555,-0.53343076
1747679482.716939,-0.07059356,0.88775826,0.946271,0.1364869,-0.59055555,-0.53343076
1747679482.7174616,-0.07059356,0.88775826,0.946271,0.1364869,-0.59055555,-0.53343076
1747679482.7180152,-0.07059356,0.88775826,0.946271,0.1364869,-0.59055555,-0.53343076
1747679482.7185652,-0.07059356,0.88775826,0.946271,0.1364869,-0.59055555,-0.53343076
1747679482.7190943,-0.07059356,0.88775826,0.946271,0.1364869,-0.59055555,-0.53343076
1747679482.7196174,-0.07059356,0.88775826,0.946271,0.1364869,-0.59055555,-0.53343076
1747679482.7201607,-0.07059356,0.88775826,0.946271,0.1364869,-0.59055555,-0.53343076
1747679482.7207289,-0.07059356,0.88775826,0.946271,0.1364869,-0.59055555,-0.53343076
1747679482.7212923,-0.07059356,0.88775826,0.946271,0.1364869,-0.59055555,-0.53343076
1747679482.7218473,-0.07059356,0.88775826,0.946271,0.1364869,-0.59055555,-0.53343076
1747679482.7223902,-0.07059356,0.88775826,0.946271,0.1364869,-0.59055555,-0.53343076
1747679482.7229323,-0.07059356,0.88775826,0.946271,0.1364869,-0.59055555,-0.53343076
1747679482.7234845,-0.10524968,0.87604356,0.96774805,0.3974765,-0.5468797,-0.4854939
1747679482.724045,-0.10524968,0.87604356,0.96774805,0.3974765,-0.5468797,-0.4854939
1747679482.724604,-0.10524968,0.87604356,0.96774805,0.3974765,-0.5468797,-0.4854939
1747679482.7251809,-0.10524968,0.87604356,0.96774805,0.3974765,-0.5468797,-0.4854939
1747679482.72573,-0.10524968,0.87604356,0.96774805,0.3974765,-0.5468797,-0.4854939
1747679482.7262673,-0.10524968,0.87604356,0.96774805,0.3974765,-0.5468797,-0.4854939
1747679482.7267914,-0.10524968,0.87604356,0.96774805,0.3974765,-0.5468797,-0.4854939
1747679482.727314,-0.10524968,0.87604356,0.96774805,0.3974765,-0.5468797,-0.4854939
1747679482.7278361,-0.10524968,0.87604356,0.96774805,0.3974765,-0.5468797,-0.4854939
1747679482.7283666,-0.10524968,0.87604356,0.96774805,0.3974765,-0.5468797,-0.4854939
1747679482.728889,-0.10524968,0.87604356,0.96774805,0.3974765,-0.5468797,-0.4854939
1747679482.7294114,-0.10524968,0.87604356,0.96774805,0.3974765,-0.5468797,-0.4854939
1747679482.7299337,-0.10524968,0.87604356,0.96774805,0.3974765,-0.5468797,-0.4854939
1747679482.7304559,-0.10524968,0.87604356,0.96774805,0.3974765,-0.5468797,-0.4854939
1747679482.7309778,-0.10524968,0.87604356,0.96774805,0.3974765,-0.5468797,-0.4854939
1747679482.7315004,-0.10524968,0.87604356,0.96774805,0.3974765,-0.5468797,-0.4854939
1747679482.7320225,-0.10524968,0.87604356,0.96774805,0.3974765,-0.5468797,-0.4854939
1747679482.7325451,-0.10524968,0.87604356,0.96774805,0.3974765,-0.5468797,-0.4854939
1747679482.7331536,-0.13551278,0.8687217,0.9770222,0.58389765,-0.5351618,-0.43436125
1747679482.7337189,-0.13551278,0.8687217,0.9770222,0.58389765,-0.5351618,-0.43436125
1747679482.7342894,-0.13551278,0.8687217,0.9770222,0.58389765,-0.5351618,-0.43436125
1747679482.7348564,-0.13551278,0.8687217,0.9770222,0.58389765,-0.5351618,-0.43436125
1747679482.7354128,-0.13551278,0.8687217,0.9770222,0.58389765,-0.5351618,-0.43436125
1747679482.737909,-0.13551278,0.8687217,0.9770222,0.58389765,-0.5351618,-0.43436125
1747679482.738514,-0.13551278,0.8687217,0.9770222,0.58389765,-0.5351618,-0.43436125
1747679482.7390811,-0.13551278,0.8687217,0.9770222,0.58389765,-0.5351618,-0.43436125
1747679482.739636,-0.13551278,0.8687217,0.9770222,0.58389765,-0.5351618,-0.43436125
1747679482.740192,-0.1560136,0.85895944,0.9179603,0.58389765,-0.5351618,-0.43436125
1747679482.7407484,-0.1560136,0.85895944,0.9179603,0.8139946,-0.57031554,-0.32783487
1747679482.7413032,-0.1560136,0.85895944,0.9179603,0.8139946,-0.57031554,-0.32783487
1747679482.7418585,-0.1560136,0.85895944,0.9179603,0.8139946,-0.57031554,-0.32783487
1747679482.7424145,-0.1560136,0.85895944,0.9179603,0.8139946,-0.57031554,-0.32783487
1747679482.7429688,-0.1560136,0.85895944,0.9179603,0.8139946,-0.57031554,-0.32783487
1747679482.7435215,-0.1560136,0.85895944,0.9179603,0.8139946,-0.57031554,-0.32783487
1747679482.7440808,-0.1560136,0.85895944,0.9179603,0.8139946,-0.57031554,-0.32783487
1747679482.7446423,-0.1560136,0.85895944,0.9179603,0.8139946,-0.57031554,-0.32783487
1747679482.7452028,-0.1560136,0.85895944,0.9179603,0.8139946,-0.57031554,-0.32783487
1747679482.7457638,-0.1560136,0.85895944,0.9179603,0.8139946,-0.57031554,-0.32783487
1747679482.7463248,-0.1560136,0.85895944,0.9179603,0.8139946,-0.57031554,-0.32783487
1747679482.7468717,-0.1560136,0.85895944,0.9179603,0.8139946,-0.57031554,-0.32783487
1747679482.7474189,-0.1560136,0.85895944,0.9179603,0.8139946,-0.57031554,-0.32783487
1747679482.7479646,-0.1560136,0.85895944,0.9179603,0.8139946,-0.57031554,-0.32783487
1747679482.748525,-0.1560136,0.85895944,0.9179603,0.8139946,-0.57031554,-0.32783487
1747679482.7490826,-0.1560136,0.85895944,0.9179603,0.8139946,-0.57031554,-0.32783487
1747679482.749632,-0.1560136,0.85895944,0.9179603,0.8139946,-0.57031554,-0.32783487
1747679482.7501807,-0.1560136,0.85895944,0.9179603,0.8139946,-0.57031554,-0.32783487
1747679482.7507358,-0.1560136,0.85895944,0.9179603,0.8139946,-0.57031554,-0.32783487
1747679482.7512944,-0.16919269,0.8467566,0.7681092,0.8139946,-0.57031554,-0.32783487
1747679482.7518659,-0.16919269,0.8467566,0.7681092,0.93330413,-0.70134294,-0.20746009
1747679482.7524393,-0.16919269,0.8467566,0.7681092,0.93330413,-0.70134294,-0.20746009
1747679482.752977,-0.16919269,0.8467566,0.7681092,0.93330413,-0.70134294,-0.20746009
1747679482.7535222,-0.16919269,0.8467566,0.7681092,0.93330413,-0.70134294,-0.20746009
1747679482.7540796,-0.16919269,0.8467566,0.7681092,0.93330413,-0.70134294,-0.20746009
1747679482.754612,-0.16919269,0.8467566,0.7681092,0.93330413,-0.70134294,-0.20746009
1747679482.7551353,-0.16919269,0.8467566,0.7681092,0.93330413,-0.70134294,-0.20746009
1747679482.7556577,-0.16919269,0.8467566,0.7681092,0.93330413,-0.70134294,-0.20746009
1747679482.7561803,-0.16919269,0.8467566,0.7681092,0.93330413,-0.70134294,-0.20746009
1747679482.756707,-0.16919269,0.8467566,0.7681092,0.93330413,-0.70134294,-0.20746009
1747679482.757234,-0.16919269,0.8467566,0.7681092,0.93330413,-0.70134294,-0.20746009
1747679482.7577653,-0.16919269,0.8467566,0.7681092,0.93330413,-0.70134294,-0.20746009
1747679482.7582939,-0.16919269,0.8467566,0.7681092,0.93330413,-0.70134294,-0.20746009
1747679482.758821,-0.16919269,0.8467566,0.7681092,0.93330413,-0.70134294,-0.20746009
1747679482.7593482,-0.16919269,0.8467566,0.7681092,0.93330413,-0.70134294,-0.20746009
1747679482.7598758,-0.16919269,0.8467566,0.7681092,0.93330413,-0.70134294,-0.20746009
1747679482.7604082,-0.04569972,0.8897107,0.65730715,0.9034767,-0.90693885,-0.16378428
1747679482.7609365,-0.04569972,0.8897107,0.65730715,0.9034767,-0.90693885,-0.16378428
1747679482.7614636,-0.04569972,0.8897107,0.65730715,0.9034767,-0.90693885,-0.16378428
1747679482.7619903,-0.04569972,0.8897107,0.65730715,0.9034767,-0.90693885,-0.16378428
1747679482.7625172,-0.04569972,0.8897107,0.65730715,0.9034767,-0.90693885,-0.16378428
1747679482.763044,-0.04569972,0.8897107,0.65730715,0.9034767,-0.90693885,-0.16378428
1747679482.763617,-0.04569972,0.8897107,0.65730715,0.9034767,-0.90693885,-0.16378428
1747679482.7641888,-0.04569972,0.8897107,0.65730715,0.9034767,-0.90693885,-0.16378428
1747679482.7647529,-0.04569972,0.8897107,0.65730715,0.9034767,-0.90693885,-0.16378428
1747679482.765311,-0.04569972,0.8897107,0.65730715,0.9034767,-0.90693885,-0.16378428
1747679482.7658598,-0.04569972,0.8897107,0.65730715,0.9034767,-0.90693885,-0.16378428
1747679482.766409,-0.04569972,0.8897107,0.65730715,0.9034767,-0.90693885,-0.16378428
1747679482.767676,-0.04569972,0.8897107,0.65730715,0.9034767,-0.90693885,-0.16378428
1747679482.7682488,-0.04569972,0.8897107,0.65730715,0.9034767,-0.90693885,-0.16378428
1747679482.7688036,-0.04569972,0.8897107,0.65730715,0.9034767,-0.90693885,-0.16378428
1747679482.769345,-0.04569972,0.8897107,0.65730715,0.9034767,-0.90693885,-0.16378428
1747679482.7698736,-0.04569972,0.8897107,0.65730715,0.9034767,-0.90693885,-0.16378428
1747679482.7704065,-0.04569972,0.8897107,0.65730715,0.9034767,-0.90693885,-0.16378428
1747679482.7709758,-0.04569972,0.8897107,0.65730715,0.9034767,-0.90693885,-0.16378428
1747679482.771528,0.2178821,0.86676925,0.70855916,0.8779104,-1.3160001,-0.31079066
1747679482.7720616,0.2178821,0.86676925,0.70855916,0.8779104,-1.3160001,-0.31079066
1747679482.7725708,0.2178821,0.86676925,0.70855916,0.8779104,-1.3160001,-0.31079066
1747679482.7730937,0.2178821,0.86676925,0.70855916,0.8779104,-1.3160001,-0.31079066
1747679482.7736163,0.2178821,0.86676925,0.70855916,0.8779104,-1.3160001,-0.31079066
1747679482.7741575,0.2178821,0.86676925,0.70855916,0.8779104,-1.3160001,-0.31079066
1747679482.7746928,0.2178821,0.86676925,0.70855916,0.8779104,-1.3160001,-0.31079066
1747679482.7752168,0.2178821,0.86676925,0.70855916,0.8779104,-1.3160001,-0.31079066
1747679482.7757394,0.2178821,0.86676925,0.70855916,0.8779104,-1.3160001,-0.31079066
1747679482.7762618,0.2178821,0.86676925,0.70855916,0.8779104,-1.3160001,-0.31079066
1747679482.7768333,0.2178821,0.86676925,0.70855916,0.8779104,-1.3160001,-0.31079066
1747679482.7773557,0.2178821,0.86676925,0.70855916,0.8779104,-1.3160001,-0.31079066
1747679482.777878,0.2178821,0.86676925,0.70855916,0.8779104,-1.3160001,-0.31079066
1747679482.7784,0.2178821,0.86676925,0.70855916,0.8779104,-1.3160001,-0.31079066
1747679482.7789643,0.2178821,0.86676925,0.70855916,0.8779104,-1.3160001,-0.31079066
1747679482.7795298,0.2178821,0.86676925,0.70855916,0.8779104,-1.3160001,-0.31079066
1747679482.7800868,0.2178821,0.86676925,0.70855916,0.8779104,-1.3160001,-0.31079066
1747679482.780641,0.2178821,0.86676925,0.70855916,0.8779104,-1.3160001,-0.31079066
1747679482.7812374,0.2178821,0.86676925,0.70855916,0.8779104,-1.3160001,-0.31079066
1747679482.7818437,0.2178821,0.86676925,0.70855916,0.9972199,-1.6291876,-0.5739108
1747679482.7824214,0.2178821,0.86676925,0.70855916,0.9972199,-1.6291876,-0.5739108
1747679482.7829912,0.17102312,0.92095006,0.7676211,0.9972199,-1.6291876,-0.5739108
1747679482.7835507,0.17102312,0.92095006,0.7676211,0.9972199,-1.6291876,-0.5739108
1747679482.7841074,0.17102312,0.92095006,0.7676211,0.9972199,-1.6291876,-0.5739108
1747679482.7846687,0.17102312,0.92095006,0.7676211,0.9972199,-1.6291876,-0.5739108
1747679482.785222,0.17102312,0.92095006,0.7676211,0.9972199,-1.6291876,-0.5739108
1747679482.7857807,0.17102312,0.92095006,0.7676211,0.9972199,-1.6291876,-0.5739108
1747679482.7863348,0.17102312,0.92095006,0.7676211,0.9972199,-1.6291876,-0.5739108
1747679482.7868834,0.17102312,0.92095006,0.7676211,0.9972199,-1.6291876,-0.5739108
1747679482.7874434,0.17102312,0.92095006,0.7676211,0.9972199,-1.6291876,-0.5739108
1747679482.788003,0.17102312,0.92095006,0.7676211,0.9972199,-1.6291876,-0.5739108
1747679482.78855,0.17102312,0.92095006,0.7676211,0.9972199,-1.6291876,-0.5739108
1747679482.7891026,0.17102312,0.92095006,0.7676211,0.9972199,-1.6291876,-0.5739108
1747679482.7896628,0.17102312,0.92095006,0.7676211,0.9972199,-1.6291876,-0.5739108
1747679482.7902248,0.17102312,0.92095006,0.7676211,0.9972199,-1.6291876,-0.5739108
1747679482.7907724,0.17102312,0.92095006,0.7676211,0.9972199,-1.6291876,-0.5739108
1747679482.7913227,0.17102312,0.92095006,0.7676211,1.1442263,-1.8177392,-0.8370309
1747679482.7918878,0.17102312,0.92095006,0.7676211,1.1442263,-1.8177392,-0.8370309
1747679482.7924426,0.10659201,0.9375459,0.76420426,1.1442263,-1.8177392,-0.8370309
1747679482.7929873,0.10659201,0.9375459,0.76420426,1.1442263,-1.8177392,-0.8370309
1747679482.7935338,0.10659201,0.9375459,0.76420426,1.1442263,-1.8177392,-0.8370309
1747679482.7941656,0.10659201,0.9375459,0.76420426,1.1442263,-1.8177392,-0.8370309
1747679482.7948172,0.10659201,0.9375459,0.76420426,1.1442263,-1.8177392,-0.8370309
1747679482.7958791,0.10659201,0.9375459,0.76420426,1.1442263,-1.8177392,-0.8370309
1747679482.7996252,0.10659201,0.9375459,0.76420426,1.1442263,-1.8177392,-0.8370309
1747679482.8001997,0.10659201,0.9375459,0.76420426,1.1442263,-1.8177392,-0.8370309
1747679482.800765,0.10659201,0.9375459,0.76420426,1.1442263,-1.8177392,-0.8370309
1747679482.8014238,0.10659201,0.9375459,0.76420426,1.2145337,-1.7815202,-1.0053426
1747679482.8019934,0.10659201,0.9375459,0.76420426,1.2145337,-1.7815202,-1.0053426
1747679482.8025637,0.10659201,0.9375459,0.76420426,1.2145337,-1.7815202,-1.0053426
1747679482.803377,0.020683851,0.9263193,0.71246415,1.2145337,-1.7815202,-1.0053426
1747679482.8039453,0.020683851,0.9263193,0.71246415,1.2145337,-1.7815202,-1.0053426
1747679482.8045874,0.020683851,0.9263193,0.71246415,1.2145337,-1.7815202,-1.0053426
1747679482.805436,0.020683851,0.9263193,0.71246415,1.2145337,-1.7815202,-1.0053426
1747679482.8061454,0.020683851,0.9263193,0.71246415,1.2145337,-1.7815202,-1.0053426
1747679482.8067176,0.020683851,0.9263193,0.71246415,1.2145337,-1.7815202,-1.0053426
1747679482.807284,0.020683851,0.9263193,0.71246415,1.2145337,-1.7815202,-1.0053426
1747679482.8078525,0.020683851,0.9263193,0.71246415,1.2145337,-1.7815202,-1.0053426
1747679482.8085263,0.020683851,0.9263193,0.71246415,1.2145337,-1.7815202,-1.0053426
1747679482.8090928,0.020683851,0.9263193,0.71246415,1.2145337,-1.7815202,-1.0053426
1747679482.8097625,0.020683851,0.9263193,0.71246415,1.2145337,-1.7815202,-1.0053426
1747679482.8104937,0.020683851,0.9263193,0.71246415,1.2145337,-1.7815202,-1.0053426
1747679482.8110526,0.020683851,0.9263193,0.71246415,1.2145337,-1.7815202,-1.0053426
1747679482.8116143,0.020683851,0.9263193,0.71246415,1.2145337,-1.7815202,-1.0053426
1747679482.8121717,0.020683851,0.9263193,0.71246415,1.2145337,-1.7815202,-1.0053426
1747679482.813525,-0.07596282,0.9019136,0.65730715,1.1399653,-1.4981601,-1.0468879
1747679482.8141549,-0.07596282,0.9019136,0.65730715,1.1399653,-1.4981601,-1.0468879
1747679482.814738,-0.07596282,0.9019136,0.65730715,1.1399653,-1.4981601,-1.0468879
1747679482.8153064,-0.07596282,0.9019136,0.65730715,1.1399653,-1.4981601,-1.0468879
1747679482.8158758,-0.07596282,0.9019136,0.65730715,1.1399653,-1.4981601,-1.0468879
1747679482.8164299,-0.07596282,0.9019136,0.65730715,1.1399653,-1.4981601,-1.0468879
1747679482.8169742,-0.07596282,0.9019136,0.65730715,1.1399653,-1.4981601,-1.0468879
1747679482.8175178,-0.07596282,0.9019136,0.65730715,1.1399653,-1.4981601,-1.0468879
1747679482.818061,-0.07596282,0.9019136,0.65730715,1.1399653,-1.4981601,-1.0468879
1747679482.8186038,-0.07596282,0.9019136,0.65730715,1.1399653,-1.4981601,-1.0468879
1747679482.819148,-0.07596282,0.9019136,0.65730715,1.1399653,-1.4981601,-1.0468879
1747679482.8196964,-0.07596282,0.9019136,0.65730715,1.1399653,-1.4981601,-1.0468879
1747679482.8202465,-0.07596282,0.9019136,0.65730715,1.1399653,-1.4981601,-1.0468879
1747679482.8208692,-0.07596282,0.9019136,0.65730715,1.1399653,-1.4981601,-1.0468879
1747679482.821873,-0.07596282,0.9019136,0.65730715,1.1399653,-1.4981601,-1.0468879
1747679482.822433,-0.07596282,0.9019136,0.65730715,1.1399653,-1.4981601,-1.0468879
1747679482.822968,-0.10378534,0.8897107,0.6372945,1.1399653,-1.4981601,-1.0468879
1747679482.8235602,-0.10378534,0.8897107,0.6372945,1.0568746,-1.2861727,-1.0277131
1747679482.8240955,-0.10378534,0.8897107,0.6372945,1.0568746,-1.2861727,-1.0277131
1747679482.8248053,-0.10378534,0.8897107,0.6372945,1.0568746,-1.2861727,-1.0277131
1747679482.8253584,-0.10378534,0.8897107,0.6372945,1.0568746,-1.2861727,-1.0277131
1747679482.8258984,-0.10378534,0.8897107,0.6372945,1.0568746,-1.2861727,-1.0277131
1747679482.826431,-0.10378534,0.8897107,0.6372945,1.0568746,-1.2861727,-1.0277131
1747679482.8269558,-0.10378534,0.8897107,0.6372945,1.0568746,-1.2861727,-1.0277131
1747679482.8275113,-0.10378534,0.8897107,0.6372945,1.0568746,-1.2861727,-1.0277131
1747679482.8280833,-0.10378534,0.8897107,0.6372945,1.0568746,-1.2861727,-1.0277131
1747679482.8293436,-0.10378534,0.8897107,0.6372945,1.0568746,-1.2861727,-1.0277131
1747679482.8299034,-0.10378534,0.8897107,0.6372945,1.0568746,-1.2861727,-1.0277131
1747679482.830441,-0.10378534,0.8897107,0.6372945,1.0568746,-1.2861727,-1.0277131
1747679482.8309653,-0.10378534,0.8897107,0.6372945,1.0568746,-1.2861727,-1.0277131
1747679482.831506,-0.10378534,0.8897107,0.6372945,1.0568746,-1.2861727,-1.0277131
1747679482.832072,-0.10378534,0.8897107,0.6372945,1.0568746,-1.2861727,-1.0277131
1747679482.8326368,-0.10378534,0.8897107,0.6372945,1.0568746,-1.2861727,-1.0277131
1747679482.8332005,-0.10378534,0.8897107,0.6372945,1.0568746,-1.2861727,-1.0277131
1747679482.8337696,-0.10378534,0.8897107,0.6372945,1.0568746,-1.2861727,-1.0277131
1747679482.8343346,-0.10378534,0.8897107,0.6372945,1.0568746,-1.2861727,-1.0277131
1747679482.8348916,-0.15357302,0.8745791,0.60361457,1.0568746,-1.2861727,-1.0277131
1747679482.835445,-0.15357302,0.8745791,0.60361457,0.88856304,-0.84408826,-0.95314467
1747679482.8360045,-0.15357302,0.8745791,0.60361457,0.88856304,-0.84408826,-0.95314467
1747679482.8365612,-0.15357302,0.8745791,0.60361457,0.88856304,-0.84408826,-0.95314467
1747679482.8371215,-0.15357302,0.8745791,0.60361457,0.88856304,-0.84408826,-0.95314467
1747679482.837681,-0.15357302,0.8745791,0.60361457,0.88856304,-0.84408826,-0.95314467
1747679482.8382478,-0.15357302,0.8745791,0.60361457,0.88856304,-0.84408826,-0.95314467
1747679482.8387806,-0.15357302,0.8745791,0.60361457,0.88856304,-0.84408826,-0.95314467
1747679482.8393204,-0.15357302,0.8745791,0.60361457,0.88856304,-0.84408826,-0.95314467
1747679482.839892,-0.15357302,0.8745791,0.60361457,0.88856304,-0.84408826,-0.95314467
1747679482.8404717,-0.15357302,0.8745791,0.60361457,0.88856304,-0.84408826,-0.95314467
1747679482.8410118,-0.15357302,0.8745791,0.60361457,0.88856304,-0.84408826,-0.95314467
1747679482.8415456,-0.15357302,0.8745791,0.60361457,0.88856304,-0.84408826,-0.95314467
1747679482.8420966,-0.15357302,0.8745791,0.60361457,0.88856304,-0.84408826,-0.95314467
1747679482.842642,-0.15357302,0.8745791,0.60361457,0.88856304,-0.84408826,-0.95314467
1747679482.8431861,-0.15357302,0.8745791,0.60361457,0.88856304,-0.84408826,-0.95314467
1747679482.8437243,-0.19213407,0.852614,0.5665179,0.75753564,-0.5799029,-0.8839025
1747679482.844269,-0.19213407,0.852614,0.5665179,0.75753564,-0.5799029,-0.8839025
1747679482.8448367,-0.19213407,0.852614,0.5665179,0.75753564,-0.5799029,-0.8839025
1747679482.8454654,-0.19213407,0.852614,0.5665179,0.75753564,-0.5799029,-0.8839025
1747679482.8460238,-0.19213407,0.852614,0.5665179,0.75753564,-0.5799029,-0.8839025
1747679482.8465664,-0.19213407,0.852614,0.5665179,0.75753564,-0.5799029,-0.8839025
1747679482.847094,-0.19213407,0.852614,0.5665179,0.75753564,-0.5799029,-0.8839025
1747679482.8476226,-0.19213407,0.852614,0.5665179,0.75753564,-0.5799029,-0.8839025
1747679482.848155,-0.19213407,0.852614,0.5665179,0.75753564,-0.5799029,-0.8839025
1747679482.8486867,-0.19213407,0.852614,0.5665179,0.75753564,-0.5799029,-0.8839025
1747679482.8492172,-0.19213407,0.852614,0.5665179,0.75753564,-0.5799029,-0.8839025
1747679482.8497498,-0.19213407,0.852614,0.5665179,0.75753564,-0.5799029,-0.8839025
1747679482.8502998,-0.23460004,0.83016074,0.5508982,0.6488787,-0.4275702,-0.7901593
1747679482.8508556,-0.23460004,0.83016074,0.5508982,0.6488787,-0.4275702,-0.7901593
1747679482.8514118,-0.23460004,0.83016074,0.5508982,0.6488787,-0.4275702,-0.7901593
1747679482.8519473,-0.23460004,0.83016074,0.5508982,0.6488787,-0.4275702,-0.7901593
1747679482.8524952,-0.23460004,0.83016074,0.5508982,0.6488787,-0.4275702,-0.7901593
1747679482.8530693,-0.23460004,0.83016074,0.5508982,0.6488787,-0.4275702,-0.7901593
1747679482.8536198,-0.23460004,0.83016074,0.5508982,0.6488787,-0.4275702,-0.7901593
1747679482.854184,-0.23460004,0.83016074,0.5508982,0.6488787,-0.4275702,-0.7901593
1747679482.854732,-0.23460004,0.83016074,0.5508982,0.6488787,-0.4275702,-0.7901593
1747679482.8553,-0.23460004,0.83016074,0.5508982,0.6488787,-0.4275702,-0.7901593
1747679482.8558679,-0.23460004,0.83016074,0.5508982,0.6488787,-0.4275702,-0.7901593
1747679482.8564208,-0.23460004,0.83016074,0.5508982,0.6488787,-0.4275702,-0.7901593
1747679482.856969,-0.23460004,0.83016074,0.5508982,0.6488787,-0.4275702,-0.7901593
1747679482.8575222,-0.23460004,0.83016074,0.5508982,0.6488787,-0.4275702,-0.7901593
1747679482.8580847,-0.23460004,0.83016074,0.5508982,0.6488787,-0.4275702,-0.7901593
1747679482.858632,-0.23460004,0.83016074,0.5508982,0.6488787,-0.4275702,-0.7901593
1747679482.8591654,-0.23460004,0.83016074,0.5508982,0.6488787,-0.4275702,-0.7901593
1747679482.8596964,-0.23460004,0.83016074,0.5508982,0.6488787,-0.4275702,-0.7901593
1747679482.8602629,-0.23460004,0.83016074,0.5508982,0.6488787,-0.4275702,-0.7901593
1747679482.8608325,-0.259982,0.83113694,0.5660298,0.61905134,-0.2837596,-0.65806663
1747679482.861417,-0.259982,0.83113694,0.5660298,0.61905134,-0.2837596,-0.65806663
1747679482.8619528,-0.259982,0.83113694,0.5660298,0.61905134,-0.2837596,-0.65806663
1747679482.8624945,-0.259982,0.83113694,0.5660298,0.61905134,-0.2837596,-0.65806663
1747679482.8630228,-0.259982,0.83113694,0.5660298,0.61905134,-0.2837596,-0.65806663
1747679482.8636,-0.259982,0.83113694,0.5660298,0.61905134,-0.2837596,-0.65806663
1747679482.864139,-0.259982,0.83113694,0.5660298,0.61905134,-0.2837596,-0.65806663
1747679482.86469,-0.259982,0.83113694,0.5660298,0.61905134,-0.2837596,-0.65806663
1747679482.8652236,-0.259982,0.83113694,0.5660298,0.61905134,-0.2837596,-0.65806663
1747679482.865757,-0.259982,0.83113694,0.5660298,0.61905134,-0.2837596,-0.65806663
1747679482.866291,-0.259982,0.83113694,0.5660298,0.61905134,-0.2837596,-0.65806663
1747679482.8668408,-0.259982,0.83113694,0.5660298,0.61905134,-0.2837596,-0.65806663
1747679482.8673618,-0.259982,0.83113694,0.5660298,0.61905134,-0.2837596,-0.65806663
1747679482.8679073,-0.259982,0.83113694,0.5660298,0.61905134,-0.2837596,-0.65806663
1747679482.8684547,-0.259982,0.83113694,0.5660298,0.61905134,-0.2837596,-0.65806663
1747679482.868976,-0.259982,0.83113694,0.5660298,0.61905134,-0.2837596,-0.65806663
1747679482.869531,-0.25900576,0.83064884,0.56798226,0.6787061,-0.094142675,-0.50679916
1747679482.8700728,-0.25900576,0.83064884,0.56798226,0.6787061,-0.094142675,-0.50679916
1747679482.8706324,-0.25900576,0.83064884,0.56798226,0.6787061,-0.094142675,-0.50679916
1747679482.871242,-0.25900576,0.83064884,0.56798226,0.6787061,-0.094142675,-0.50679916
1747679482.8717349,-0.25900576,0.83064884,0.56798226,0.6787061,-0.094142675,-0.50679916
1747679482.8723028,-0.25900576,0.83064884,0.56798226,0.6787061,-0.094142675,-0.50679916
1747679482.8728387,-0.25900576,0.83064884,0.56798226,0.6787061,-0.094142675,-0.50679916
1747679482.8733988,-0.25900576,0.83064884,0.56798226,0.6787061,-0.094142675,-0.50679916
1747679482.8739657,-0.25900576,0.83064884,0.56798226,0.6787061,-0.094142675,-0.50679916
1747679482.8745406,-0.25900576,0.83064884,0.56798226,0.6787061,-0.094142675,-0.50679916
1747679482.875202,-0.25900576,0.83064884,0.56798226,0.6787061,-0.094142675,-0.50679916
1747679482.8757648,-0.25900576,0.83064884,0.56798226,0.6787061,-0.094142675,-0.50679916
1747679482.8763332,-0.25900576,0.83064884,0.56798226,0.6787061,-0.094142675,-0.50679916
1747679482.8774388,-0.25900576,0.83064884,0.56798226,0.6787061,-0.094142675,-0.50679916
1747679482.8783395,-0.25900576,0.83064884,0.56798226,0.6787061,-0.094142675,-0.50679916
1747679482.879335,-0.25900576,0.83064884,0.56798226,0.6787061,-0.094142675,-0.50679916
1747679482.8803885,-0.25900576,0.83064884,0.56798226,0.6787061,-0.094142675,-0.50679916
1747679482.8813398,-0.26583937,0.805755,0.49427694,0.6808366,0.62597555,-0.35446647
1747679482.8823392,-0.26583937,0.805755,0.49427694,0.6808366,0.62597555,-0.35446647
1747679482.8833387,-0.26583937,0.805755,0.49427694,0.6808366,0.62597555,-0.35446647
1747679482.8843977,-0.26583937,0.805755,0.49427694,0.6808366,0.62597555,-0.35446647
1747679482.8853378,-0.26583937,0.805755,0.49427694,0.6808366,0.62597555,-0.35446647
1747679482.8876529,-0.26583937,0.805755,0.49427694,0.6808366,0.62597555,-0.35446647
1747679482.8878744,-0.26583937,0.805755,0.49427694,0.6808366,0.62597555,-0.35446647
1747679482.8884406,-0.26583937,0.805755,0.49427694,0.6808366,0.62597555,-0.35446647
1747679482.8890007,-0.26583937,0.805755,0.49427694,0.6808366,0.62597555,-0.35446647
1747679482.8895633,-0.26583937,0.805755,0.49427694,0.6808366,0.62597555,-0.35446647
1747679482.8901289,-0.2804828,0.77988493,0.45473966,0.6808366,0.62597555,-0.35446647
1747679482.890687,-0.2804828,0.77988493,0.45473966,0.6808366,0.62597555,-0.35446647
1747679482.8912501,-0.2804828,0.77988493,0.45473966,0.6808366,0.62597555,-0.35446647
1747679482.8918364,-0.2804828,0.77988493,0.45473966,0.69468504,0.81559247,-0.20000325
1747679482.892732,-0.2804828,0.77988493,0.45473966,0.69468504,0.81559247,-0.20000325
1747679482.8933012,-0.2804828,0.77988493,0.45473966,0.69468504,0.81559247,-0.20000325
1747679482.8938627,-0.2804828,0.77988493,0.45473966,0.69468504,0.81559247,-0.20000325
1747679482.8945289,-0.2804828,0.77988493,0.45473966,0.69468504,0.81559247,-0.20000325
1747679482.8950942,-0.2804828,0.77988493,0.45473966,0.69468504,0.81559247,-0.20000325
1747679482.8956625,-0.2804828,0.77988493,0.45473966,0.69468504,0.81559247,-0.20000325
1747679482.8962293,-0.2804828,0.77988493,0.45473966,0.69468504,0.81559247,-0.20000325
1747679482.897078,-0.2804828,0.77988493,0.45473966,0.69468504,0.81559247,-0.20000325
1747679482.8992057,-0.2804828,0.77988493,0.45473966,0.69468504,0.81559247,-0.20000325
1747679482.8997743,-0.2804828,0.77988493,0.45473966,0.69468504,0.81559247,-0.20000325
1747679482.9004853,-0.2804828,0.77988493,0.45473966,0.69468504,0.81559247,-0.20000325
1747679482.9024634,-0.2673037,0.7994095,0.48060974,0.79695034,0.6121271,-0.082824245
1747679482.904345,-0.2673037,0.7994095,0.48060974,0.79695034,0.6121271,-0.082824245
1747679482.9049075,-0.2673037,0.7994095,0.48060974,0.79695034,0.6121271,-0.082824245
1747679482.905471,-0.2673037,0.7994095,0.48060974,0.79695034,0.6121271,-0.082824245
1747679482.9060302,-0.2673037,0.7994095,0.48060974,0.79695034,0.6121271,-0.082824245
1747679482.9065995,-0.2673037,0.7994095,0.48060974,0.79695034,0.6121271,-0.082824245
1747679482.908293,-0.2673037,0.7994095,0.48060974,0.79695034,0.6121271,-0.082824245
1747679482.908856,-0.2673037,0.7994095,0.48060974,0.79695034,0.6121271,-0.082824245
1747679482.9094613,-0.2673037,0.7994095,0.48060974,0.79695034,0.6121271,-0.082824245
1747679482.910019,-0.2673037,0.7994095,0.48060974,0.79695034,0.6121271,-0.082824245
1747679482.9105833,-0.2673037,0.7994095,0.48060974,0.79695034,0.6121271,-0.082824245
1747679482.9111483,-0.2673037,0.7994095,0.48060974,0.79695034,0.6121271,-0.082824245
1747679482.9118006,-0.24582666,0.8233271,0.49134824,0.9684578,-0.035553172,-0.052996866
1747679482.9123623,-0.24582666,0.8233271,0.49134824,0.9684578,-0.035553172,-0.052996866
1747679482.9129229,-0.24582666,0.8233271,0.49134824,0.9684578,-0.035553172,-0.052996866
1747679482.9134839,-0.24582666,0.8233271,0.49134824,0.9684578,-0.035553172,-0.052996866
1747679482.9140334,-0.24582666,0.8233271,0.49134824,0.9684578,-0.035553172,-0.052996866
1747679482.9145813,-0.24582666,0.8233271,0.49134824,0.9684578,-0.035553172,-0.052996866
1747679482.9151275,-0.24582666,0.8233271,0.49134824,0.9684578,-0.035553172,-0.052996866
1747679482.9156716,-0.24582666,0.8233271,0.49134824,0.9684578,-0.035553172,-0.052996866
1747679482.9162138,-0.24582666,0.8233271,0.49134824,0.9684578,-0.035553172,-0.052996866
1747679482.9167533,-0.24582666,0.8233271,0.49134824,0.9684578,-0.035553172,-0.052996866
1747679482.9173796,-0.24582666,0.8233271,0.49134824,0.9684578,-0.035553172,-0.052996866
1747679482.9179394,-0.24582666,0.8233271,0.49134824,0.9684578,-0.035553172,-0.052996866
1747679482.9184864,-0.24582666,0.8233271,0.49134824,0.9684578,-0.035553172,-0.052996866
1747679482.91903,-0.24582666,0.8233271,0.49134824,0.9684578,-0.035553172,-0.052996866
1747679482.91957,-0.24582666,0.8233271,0.49134824,0.9684578,-0.035553172,-0.052996866
1747679482.92011,-0.24582666,0.8233271,0.49134824,0.9684578,-0.035553172,-0.052996866
1747679482.9206502,-0.24582666,0.8233271,0.49134824,0.9684578,-0.035553172,-0.052996866
1747679482.921191,-0.24582666,0.8233271,0.49134824,0.9684578,-0.035553172,-0.052996866
1747679482.9217334,-0.24582666,0.8233271,0.49134824,0.9684578,-0.035553172,-0.052996866
1747679482.9230773,-0.19652711,0.8321132,0.4469298,0.9684578,-0.035553172,-0.052996866
1747679482.9236429,-0.19652711,0.8321132,0.4469298,1.0920284,-0.6022734,-0.052996866
1747679482.9241998,-0.19652711,0.8321132,0.4469298,1.0920284,-0.6022734,-0.052996866
1747679482.9247644,-0.19652711,0.8321132,0.4469298,1.0920284,-0.6022734,-0.052996866
1747679482.9254375,-0.19652711,0.8321132,0.4469298,1.0920284,-0.6022734,-0.052996866
1747679482.9262397,-0.19652711,0.8321132,0.4469298,1.0920284,-0.6022734,-0.052996866
1747679482.93222,-0.19652711,0.8321132,0.4469298,1.0920284,-0.6022734,-0.052996866
1747679482.9330688,-0.19652711,0.8321132,0.4469298,1.0920284,-0.6022734,-0.052996866
1747679482.933631,-0.19652711,0.8321132,0.4469298,1.0920284,-0.6022734,-0.052996866
1747679482.9342184,-0.11013083,0.8067312,0.34979504,1.1048115,-1.1349052,-0.07430214
1747679482.9347467,-0.11013083,0.8067312,0.34979504,1.1048115,-1.1349052,-0.07430214
1747679482.935442,-0.11013083,0.8067312,0.34979504,1.1048115,-1.1349052,-0.07430214
1747679482.9368439,-0.11013083,0.8067312,0.34979504,1.1048115,-1.1349052,-0.07430214
1747679482.9374592,-0.11013083,0.8067312,0.34979504,1.1048115,-1.1349052,-0.07430214
1747679482.9380164,-0.11013083,0.8067312,0.34979504,1.1048115,-1.1349052,-0.07430214
1747679482.9392953,-0.11013083,0.8067312,0.34979504,1.1048115,-1.1349052,-0.07430214
1747679482.9398663,-0.11013083,0.8067312,0.34979504,1.1048115,-1.1349052,-0.07430214
1747679482.9404323,-0.11013083,0.8067312,0.34979504,1.1048115,-1.1349052,-0.07430214
1747679482.9409902,-0.11013083,0.8067312,0.34979504,1.1048115,-1.1349052,-0.07430214
1747679482.9415493,-0.11013083,0.8067312,0.34979504,1.1048115,-1.1349052,-0.07430214
1747679482.9421008,-0.11013083,0.8067312,0.34979504,1.1048115,-1.1349052,-0.07430214
1747679482.9426572,-0.11013083,0.8067312,0.34979504,1.1048115,-1.1349052,-0.07430214
1747679482.943211,-0.11013083,0.8067312,0.34979504,1.1048115,-1.1349052,-0.07430214
1747679482.9437702,-0.11013083,0.8067312,0.34979504,1.1048115,-1.1349052,-0.07430214
1747679482.9443314,-0.11013083,0.8067312,0.34979504,0.93543464,-1.4172001,-0.15845796
1747679482.9448664,-0.11013083,0.8067312,0.34979504,0.93543464,-1.4172001,-0.15845796
1747679482.9454863,-0.015436621,0.7623128,0.27072048,0.93543464,-1.4172001,-0.15845796
1747679482.9460425,-0.015436621,0.7623128,0.27072048,0.93543464,-1.4172001,-0.15845796
1747679482.9466066,-0.015436621,0.7623128,0.27072048,0.93543464,-1.4172001,-0.15845796
1747679482.9471564,-0.015436621,0.7623128,0.27072048,0.93543464,-1.4172001,-0.15845796
1747679482.9477148,-0.015436621,0.7623128,0.27072048,0.93543464,-1.4172001,-0.15845796
1747679482.9482803,-0.015436621,0.7623128,0.27072048,0.93543464,-1.4172001,-0.15845796
1747679482.9488418,-0.015436621,0.7623128,0.27072048,0.93543464,-1.4172001,-0.15845796
1747679482.949402,-0.015436621,0.7623128,0.27072048,0.93543464,-1.4172001,-0.15845796
1747679482.9499633,-0.015436621,0.7623128,0.27072048,0.93543464,-1.4172001,-0.15845796
1747679482.950525,-0.015436621,0.7623128,0.27072048,0.93543464,-1.4172001,-0.15845796
1747679482.951089,-0.015436621,0.7623128,0.27072048,0.93543464,-1.4172001,-0.15845796
1747679482.95165,-0.015436621,0.7623128,0.27072048,0.93543464,-1.4172001,-0.15845796
1747679482.9522061,-0.015436621,0.7623128,0.27072048,0.93543464,-1.4172001,-0.15845796
1747679482.9527593,-0.015436621,0.7623128,0.27072048,0.93543464,-1.4172001,-0.15845796
1747679482.9533143,-0.015436621,0.7623128,0.27072048,0.93543464,-1.4172001,-0.15845796
1747679482.9547484,-0.015436621,0.7623128,0.27072048,0.7426219,-1.2584758,-0.2777675
1747679482.9553125,-0.012996048,0.72716856,0.25558895,0.7426219,-1.2584758,-0.2777675
1747679482.955866,-0.012996048,0.72716856,0.25558895,0.7426219,-1.2584758,-0.2777675
1747679482.9564195,-0.012996048,0.72716856,0.25558895,0.7426219,-1.2584758,-0.2777675
1747679482.956972,-0.012996048,0.72716856,0.25558895,0.7426219,-1.2584758,-0.2777675
1747679482.957532,-0.012996048,0.72716856,0.25558895,0.7426219,-1.2584758,-0.2777675
1747679482.9580915,-0.012996048,0.72716856,0.25558895,0.7426219,-1.2584758,-0.2777675
1747679482.958712,-0.012996048,0.72716856,0.25558895,0.5263734,-0.8472841,-0.33422646
1747679482.9592762,-0.012996048,0.72716856,0.25558895,0.5263734,-0.8472841,-0.33422646
1747679482.959841,-0.1125714,0.6886075,0.30391228,0.5263734,-0.8472841,-0.33422646
1747679482.9603996,-0.1125714,0.6886075,0.30391228,0.5263734,-0.8472841,-0.33422646
1747679482.9609568,-0.1125714,0.6886075,0.30391228,0.5263734,-0.8472841,-0.33422646
1747679482.9615266,-0.1125714,0.6886075,0.30391228,0.5263734,-0.8472841,-0.33422646
1747679482.962091,-0.1125714,0.6886075,0.30391228,0.5263734,-0.8472841,-0.33422646
1747679482.9626517,-0.1125714,0.6886075,0.30391228,0.5263734,-0.8472841,-0.33422646
1747679482.9632826,-0.1125714,0.6886075,0.30391228,0.5263734,-0.8472841,-0.33422646
1747679482.9657414,-0.1125714,0.6886075,0.30391228,0.5263734,-0.8472841,-0.33422646
1747679482.9663203,-0.1125714,0.6886075,0.30391228,0.5263734,-0.8472841,-0.33422646
1747679482.9668627,-0.1125714,0.6886075,0.30391228,0.5263734,-0.8472841,-0.33422646
1747679482.9673893,-0.1125714,0.6886075,0.30391228,0.5263734,-0.8472841,-0.33422646
1747679482.9679186,-0.1125714,0.6886075,0.30391228,0.5263734,-0.8472841,-0.33422646
1747679482.96845,-0.1125714,0.6886075,0.30391228,0.5263734,-0.8472841,-0.33422646
1747679482.9689782,-0.1125714,0.6886075,0.30391228,0.5263734,-0.8472841,-0.33422646
1747679482.969814,-0.1125714,0.6886075,0.30391228,0.5263734,-0.8472841,-0.33422646
1747679482.9703946,-0.1125714,0.6886075,0.30391228,0.5263734,-0.8472841,-0.33422646
1747679482.9709291,-0.1125714,0.6886075,0.30391228,0.5263734,-0.8472841,-0.33422646
1747679482.9714658,-0.28975695,0.648094,0.38298684,0.5263734,-0.8472841,-0.33422646
1747679482.9720025,-0.28975695,0.648094,0.38298684,0.42836913,-0.6182524,-0.21917799
1747679482.9725266,-0.28975695,0.648094,0.38298684,0.42836913,-0.6182524,-0.21917799
1747679482.9730382,-0.28975695,0.648094,0.38298684,0.42836913,-0.6182524,-0.21917799
1747679482.9735937,-0.28975695,0.648094,0.38298684,0.42836913,-0.6182524,-0.21917799
1747679482.9741137,-0.28975695,0.648094,0.38298684,0.42836913,-0.6182524,-0.21917799
1747679482.974668,-0.28975695,0.648094,0.38298684,0.42836913,-0.6182524,-0.21917799
1747679482.97519,-0.28975695,0.648094,0.38298684,0.42836913,-0.6182524,-0.21917799
1747679482.9757414,-0.28975695,0.648094,0.38298684,0.42836913,-0.6182524,-0.21917799
1747679482.9763012,-0.28975695,0.648094,0.38298684,0.42836913,-0.6182524,-0.21917799
1747679482.9768512,-0.28975695,0.648094,0.38298684,0.42836913,-0.6182524,-0.21917799
1747679482.9773962,-0.28975695,0.648094,0.38298684,0.42836913,-0.6182524,-0.21917799
1747679482.9779415,-0.28975695,0.648094,0.38298684,0.42836913,-0.6182524,-0.21917799
1747679482.9785905,-0.28975695,0.648094,0.38298684,0.42836913,-0.6182524,-0.21917799
1747679482.9791594,-0.28975695,0.648094,0.38298684,0.42836913,-0.6182524,-0.21917799
1747679482.979751,-0.28975695,0.648094,0.38298684,0.42836913,-0.6182524,-0.21917799
1747679482.9802918,-0.28975695,0.648094,0.38298684,0.42836913,-0.6182524,-0.21917799
1747679482.9808266,-0.28975695,0.648094,0.38298684,0.42836913,-0.6182524,-0.21917799
1747679482.9813657,-0.39323723,0.63198626,0.44937038,0.40386808,-0.5564671,0.060986344
1747679482.9819038,-0.39323723,0.63198626,0.44937038,0.40386808,-0.5564671,0.060986344
1747679482.982442,-0.39323723,0.63198626,0.44937038,0.40386808,-0.5564671,0.060986344
1747679482.982989,-0.39323723,0.63198626,0.44937038,0.40386808,-0.5564671,0.060986344
1747679482.9835594,-0.39323723,0.63198626,0.44937038,0.40386808,-0.5564671,0.060986344
1747679482.984087,-0.39323723,0.63198626,0.44937038,0.40386808,-0.5564671,0.060986344
1747679482.9846492,-0.39323723,0.63198626,0.44937038,0.40386808,-0.5564671,0.060986344
1747679482.9852195,-0.39323723,0.63198626,0.44937038,0.40386808,-0.5564671,0.060986344
1747679482.9859686,-0.39323723,0.63198626,0.44937038,0.40386808,-0.5564671,0.060986344
1747679482.9865248,-0.39323723,0.63198626,0.44937038,0.40386808,-0.5564671,0.060986344
1747679482.9870677,-0.39323723,0.63198626,0.44937038,0.40386808,-0.5564671,0.060986344
1747679482.9875965,-0.39323723,0.63198626,0.44937038,0.40386808,-0.5564671,0.060986344
1747679482.9881277,-0.39323723,0.63198626,0.44937038,0.40386808,-0.5564671,0.060986344
1747679482.988661,-0.39323723,0.63198626,0.44937038,0.40386808,-0.5564671,0.060986344
1747679482.9892166,-0.39323723,0.63198626,0.44937038,0.40386808,-0.5564671,0.060986344
1747679482.9897594,-0.39323723,0.63198626,0.44937038,0.40386808,-0.5564671,0.060986344
1747679482.9903133,-0.39323723,0.63198626,0.44937038,0.4709797,-0.56072813,0.3965444
1747679482.990849,-0.32587746,0.61783093,0.48305032,0.4709797,-0.56072813,0.3965444
1747679482.9913774,-0.32587746,0.61783093,0.48305032,0.4709797,-0.56072813,0.3965444
1747679482.991905,-0.32587746,0.61783093,0.48305032,0.4709797,-0.56072813,0.3965444
1747679482.9924319,-0.32587746,0.61783093,0.48305032,0.4709797,-0.56072813,0.3965444
1747679482.9929593,-0.32587746,0.61783093,0.48305032,0.4709797,-0.56072813,0.3965444
1747679482.9936254,-0.32587746,0.61783093,0.48305032,0.4709797,-0.56072813,0.3965444
1747679482.9940846,-0.32587746,0.61783093,0.48305032,0.4709797,-0.56072813,0.3965444
1747679482.9946501,-0.32587746,0.61783093,0.48305032,0.4709797,-0.56072813,0.3965444
1747679482.9951725,-0.32587746,0.61783093,0.48305032,0.4709797,-0.56072813,0.3965444
1747679482.995737,-0.32587746,0.61783093,0.48305032,0.4709797,-0.56072813,0.3965444
1747679482.9963138,-0.32587746,0.61783093,0.48305032,0.4709797,-0.56072813,0.3965444
1747679482.9969506,-0.32587746,0.61783093,0.48305032,0.4709797,-0.56072813,0.3965444
1747679482.9975696,-0.32587746,0.61783093,0.48305032,0.4709797,-0.56072813,0.3965444
1747679482.9981258,-0.32587746,0.61783093,0.48305032,0.4709797,-0.56072813,0.3965444
1747679482.9986734,-0.32587746,0.61783093,0.48305032,0.4709797,-0.56072813,0.3965444
1747679482.999222,-0.32587746,0.61783093,0.48305032,0.4709797,-0.56072813,0.3965444
1747679482.9999597,-0.32587746,0.61783093,0.48305032,0.4709797,-0.56072813,0.3965444
1747679483.0018377,-0.32587746,0.61783093,0.48305032,0.4709797,-0.56072813,0.3965444
1747679483.0024078,-0.32587746,0.61783093,0.48305032,0.4709797,-0.56072813,0.3965444
1747679483.0029569,-0.32587746,0.61783093,0.48305032,0.4709797,-0.56072813,0.3965444
1747679483.003505,-0.14234638,0.6212477,0.46450198,0.56791866,-0.669385,0.62983716
1747679483.0040386,-0.14234638,0.6212477,0.46450198,0.56791866,-0.669385,0.62983716
1747679483.0045636,-0.14234638,0.6212477,0.46450198,0.56791866,-0.669385,0.62983716
1747679483.0050926,-0.14234638,0.6212477,0.46450198,0.56791866,-0.669385,0.62983716
1747679483.005623,-0.14234638,0.6212477,0.46450198,0.56791866,-0.669385,0.62983716
1747679483.0061514,-0.14234638,0.6212477,0.46450198,0.56791866,-0.669385,0.62983716
1747679483.00668,-0.14234638,0.6212477,0.46450198,0.56791866,-0.669385,0.62983716
1747679483.0072086,-0.14234638,0.6212477,0.46450198,0.56791866,-0.669385,0.62983716
1747679483.0077372,-0.14234638,0.6212477,0.46450198,0.56791866,-0.669385,0.62983716
1747679483.0082664,-0.14234638,0.6212477,0.46450198,0.56791866,-0.669385,0.62983716
1747679483.008862,-0.14234638,0.6212477,0.46450198,0.56791866,-0.669385,0.62983716
1747679483.0094275,-0.14234638,0.6212477,0.46450198,0.56791866,-0.669385,0.62983716
1747679483.0099418,-0.14234638,0.6212477,0.46450198,0.56791866,-0.669385,0.62983716
1747679483.0104716,-0.14234638,0.6212477,0.46450198,0.56791866,-0.669385,0.62983716
1747679483.011005,-0.14234638,0.6212477,0.46450198,0.56791866,-0.669385,0.62983716
1747679483.01154,0.042160887,0.6549277,0.38884422,0.56791866,-0.669385,0.62983716
1747679483.0120919,0.042160887,0.6549277,0.38884422,0.56365764,-0.859002,0.66712135
1747679483.0126388,0.042160887,0.6549277,0.38884422,0.56365764,-0.859002,0.66712135
1747679483.0131674,0.042160887,0.6549277,0.38884422,0.56365764,-0.859002,0.66712135
1747679483.01373,0.042160887,0.6549277,0.38884422,0.56365764,-0.859002,0.66712135
1747679483.0142608,0.042160887,0.6549277,0.38884422,0.56365764,-0.859002,0.66712135
1747679483.0148256,0.042160887,0.6549277,0.38884422,0.56365764,-0.859002,0.66712135
1747679483.015367,0.042160887,0.6549277,0.38884422,0.56365764,-0.859002,0.66712135
1747679483.0159023,0.042160887,0.6549277,0.38884422,0.56365764,-0.859002,0.66712135
1747679483.016465,0.042160887,0.6549277,0.38884422,0.56365764,-0.859002,0.66712135
1747679483.0183222,0.042160887,0.6549277,0.38884422,0.56365764,-0.859002,0.66712135
1747679483.0188901,0.042160887,0.6549277,0.38884422,0.56365764,-0.859002,0.66712135
1747679483.0194542,0.042160887,0.6549277,0.38884422,0.56365764,-0.859002,0.66712135
1747679483.021196,0.08901988,0.6803096,0.33319917,0.37191015,-0.98470306,0.54674655
1747679483.024608,0.08901988,0.6803096,0.33319917,0.37191015,-0.98470306,0.54674655
1747679483.0265157,0.08901988,0.6803096,0.33319917,0.37191015,-0.98470306,0.54674655
1747679483.0270867,0.08901988,0.6803096,0.33319917,0.37191015,-0.98470306,0.54674655
1747679483.0276556,0.08901988,0.6803096,0.33319917,0.37191015,-0.98470306,0.54674655
1747679483.028216,0.08901988,0.6803096,0.33319917,0.37191015,-0.98470306,0.54674655
1747679483.029253,0.08901988,0.6803096,0.33319917,0.37191015,-0.98470306,0.54674655
1747679483.029844,0.08901988,0.6803096,0.33319917,0.37191015,-0.98470306,0.54674655
1747679483.0306008,0.09487725,0.71008456,0.29366186,0.37191015,-0.98470306,0.54674655
1747679483.0315747,0.09487725,0.71008456,0.29366186,0.14074796,-0.9261136,0.45087284
1747679483.032186,0.09487725,0.71008456,0.29366186,0.14074796,-0.9261136,0.45087284
1747679483.0328648,0.09487725,0.71008456,0.29366186,0.14074796,-0.9261136,0.45087284
1747679483.0334342,0.09487725,0.71008456,0.29366186,0.14074796,-0.9261136,0.45087284
1747679483.0339947,0.09487725,0.71008456,0.29366186,0.14074796,-0.9261136,0.45087284
1747679483.034533,0.09487725,0.71008456,0.29366186,0.14074796,-0.9261136,0.45087284
1747679483.0350633,0.09487725,0.71008456,0.29366186,0.14074796,-0.9261136,0.45087284
1747679483.0355918,0.09487725,0.71008456,0.29366186,0.14074796,-0.9261136,0.45087284
1747679483.0361197,0.09487725,0.71008456,0.29366186,0.14074796,-0.9261136,0.45087284
1747679483.036648,0.09487725,0.71008456,0.29366186,0.14074796,-0.9261136,0.45087284
1747679483.0372126,0.09487725,0.71008456,0.29366186,0.14074796,-0.9261136,0.45087284
1747679483.0377333,0.09487725,0.71008456,0.29366186,0.14074796,-0.9261136,0.45087284
1747679483.038254,0.09487725,0.71008456,0.29366186,0.14074796,-0.9261136,0.45087284
1747679483.038772,0.09487725,0.71008456,0.29366186,0.14074796,-0.9261136,0.45087284
1747679483.0392976,0.09487725,0.71008456,0.29366186,0.14074796,-0.9261136,0.45087284
1747679483.039904,0.09487725,0.71008456,0.29366186,0.14074796,-0.9261136,0.45087284
1747679483.0404284,0.09487725,0.71008456,0.29366186,0.14074796,-0.9261136,0.45087284
1747679483.0410209,0.08999611,0.7486456,0.29317376,0.14074796,-0.9261136,0.45087284
1747679483.0415905,0.08999611,0.7486456,0.29317376,0.14074796,-0.9261136,0.45087284
1747679483.0421402,0.08999611,0.7486456,0.29317376,0.14074796,-0.9261136,0.45087284
1747679483.0427313,0.08999611,0.7486456,0.29317376,-0.13728586,-0.79721665,0.36032543
1747679483.0432994,0.08999611,0.7486456,0.29317376,-0.13728586,-0.79721665,0.36032543
1747679483.0438673,0.08999611,0.7486456,0.29317376,-0.13728586,-0.79721665,0.36032543
1747679483.0444121,0.08999611,0.7486456,0.29317376,-0.13728586,-0.79721665,0.36032543
1747679483.0449784,0.08999611,0.7486456,0.29317376,-0.13728586,-0.79721665,0.36032543
1747679483.0455444,0.08999611,0.7486456,0.29317376,-0.13728586,-0.79721665,0.36032543
1747679483.0461133,0.08999611,0.7486456,0.29317376,-0.13728586,-0.79721665,0.36032543
1747679483.0466769,0.08999611,0.7486456,0.29317376,-0.13728586,-0.79721665,0.36032543
1747679483.0472484,0.08999611,0.7486456,0.29317376,-0.13728586,-0.79721665,0.36032543
1747679483.0477793,0.08999611,0.7486456,0.29317376,-0.13728586,-0.79721665,0.36032543
1747679483.0483532,0.08999611,0.7486456,0.29317376,-0.13728586,-0.79721665,0.36032543
1747679483.04895,0.08999611,0.7486456,0.29317376,-0.13728586,-0.79721665,0.36032543
1747679483.0495226,0.08999611,0.7486456,0.29317376,-0.13728586,-0.79721665,0.36032543
1747679483.0501003,0.08999611,0.7486456,0.29317376,-0.13728586,-0.79721665,0.36032543
1747679483.0506747,0.08999611,0.7486456,0.29317376,-0.13728586,-0.79721665,0.36032543
1747679483.0512502,0.08999611,0.7486456,0.29317376,-0.13728586,-0.79721665,0.36032543
1747679483.0518265,0.08999611,0.7486456,0.29317376,-0.13728586,-0.79721665,0.36032543
1747679483.0524027,0.08999611,0.7486456,0.29317376,-0.13728586,-0.79721665,0.36032543
1747679483.0529644,0.08999611,0.7486456,0.29317376,-0.13728586,-0.79721665,0.36032543
1747679483.0535376,0.08999611,0.7486456,0.29317376,-0.13728586,-0.79721665,0.36032543
1747679483.0541205,0.08999611,0.7486456,0.29317376,-0.13728586,-0.79721665,0.36032543
1747679483.0546844,0.06022113,0.74327636,0.41276184,-0.5314334,-0.6203829,0.21864536
1747679483.0552363,0.06022113,0.74327636,0.41276184,-0.5314334,-0.6203829,0.21864536
1747679483.0558016,0.06022113,0.74327636,0.41276184,-0.5314334,-0.6203829,0.21864536
1747679483.0563505,0.06022113,0.74327636,0.41276184,-0.5314334,-0.6203829,0.21864536
1747679483.0569143,0.06022113,0.74327636,0.41276184,-0.5314334,-0.6203829,0.21864536
1747679483.0574756,0.06022113,0.74327636,0.41276184,-0.5314334,-0.6203829,0.21864536
1747679483.0580406,0.06022113,0.74327636,0.41276184,-0.5314334,-0.6203829,0.21864536
1747679483.0586107,0.06022113,0.74327636,0.41276184,-0.5314334,-0.6203829,0.21864536
1747679483.0591738,0.06022113,0.74327636,0.41276184,-0.5314334,-0.6203829,0.21864536
1747679483.0597239,0.06022113,0.74327636,0.41276184,-0.5314334,-0.6203829,0.21864536
1747679483.0602605,0.06022113,0.74327636,0.41276184,-0.5314334,-0.6203829,0.21864536
1747679483.0607986,0.06022113,0.74327636,0.41276184,-0.5314334,-0.6203829,0.21864536
1747679483.0613334,0.06022113,0.74327636,0.41276184,-0.5314334,-0.6203829,0.21864536
1747679483.061866,0.06022113,0.74327636,0.41276184,-0.5314334,-0.6203829,0.21864536
1747679483.0623984,0.06022113,0.74327636,0.41276184,-0.5314334,-0.6203829,0.21864536
1747679483.0629408,0.005064188,0.6842145,0.5899474,-0.5314334,-0.6203829,0.21864536
1747679483.0634975,0.005064188,0.6842145,0.5899474,-0.5314334,-0.6203829,0.21864536
1747679483.0640604,0.005064188,0.6842145,0.5899474,-0.7103977,-0.50746495,0.15472955
1747679483.0646036,0.005064188,0.6842145,0.5899474,-0.7103977,-0.50746495,0.15472955
1747679483.0651362,0.005064188,0.6842145,0.5899474,-0.7103977,-0.50746495,0.15472955
1747679483.065668,0.005064188,0.6842145,0.5899474,-0.7103977,-0.50746495,0.15472955
1747679483.0662003,0.005064188,0.6842145,0.5899474,-0.7103977,-0.50746495,0.15472955
1747679483.066732,0.005064188,0.6842145,0.5899474,-0.7103977,-0.50746495,0.15472955
1747679483.0672653,0.005064188,0.6842145,0.5899474,-0.7103977,-0.50746495,0.15472955
1747679483.0677974,0.005064188,0.6842145,0.5899474,-0.7103977,-0.50746495,0.15472955
1747679483.06833,0.005064188,0.6842145,0.5899474,-0.7103977,-0.50746495,0.15472955
1747679483.0688622,0.005064188,0.6842145,0.5899474,-0.7103977,-0.50746495,0.15472955
1747679483.0694442,0.005064188,0.6842145,0.5899474,-0.7103977,-0.50746495,0.15472955
1747679483.0699933,0.005064188,0.6842145,0.5899474,-0.7253114,-0.43715757,0.19201377
1747679483.0705333,0.005064188,0.6842145,0.5899474,-0.7253114,-0.43715757,0.19201377
1747679483.0710735,0.005064188,0.6842145,0.5899474,-0.7253114,-0.43715757,0.19201377
1747679483.0716124,0.005064188,0.6842145,0.5899474,-0.7253114,-0.43715757,0.19201377
1747679483.072146,-0.06668864,0.6100211,0.7188096,-0.7253114,-0.43715757,0.19201377
1747679483.0726807,-0.06668864,0.6100211,0.7188096,-0.7253114,-0.43715757,0.19201377
1747679483.0731974,-0.06668864,0.6100211,0.7188096,-0.7253114,-0.43715757,0.19201377
1747679483.0737293,-0.06668864,0.6100211,0.7188096,-0.7253114,-0.43715757,0.19201377
1747679483.074261,-0.06668864,0.6100211,0.7188096,-0.7253114,-0.43715757,0.19201377
1747679483.0747948,-0.06668864,0.6100211,0.7188096,-0.7253114,-0.43715757,0.19201377
1747679483.0753303,-0.06668864,0.6100211,0.7188096,-0.7253114,-0.43715757,0.19201377
1747679483.0758655,-0.06668864,0.6100211,0.7188096,-0.7253114,-0.43715757,0.19201377
1747679483.0763977,-0.06668864,0.6100211,0.7188096,-0.7253114,-0.43715757,0.19201377
1747679483.0769298,-0.06668864,0.6100211,0.7188096,-0.7253114,-0.43715757,0.19201377
1747679483.077462,-0.06668864,0.6100211,0.7188096,-0.7253114,-0.43715757,0.19201377
1747679483.0779943,-0.06668864,0.6100211,0.7188096,-0.7253114,-0.43715757,0.19201377
1747679483.0785267,-0.06668864,0.6100211,0.7188096,-0.7253114,-0.43715757,0.19201377
1747679483.0790606,-0.06668864,0.6100211,0.7188096,-0.7253114,-0.43715757,0.19201377
1747679483.0796106,-0.06668864,0.6100211,0.7188096,-0.7253114,-0.43715757,0.19201377
1747679483.0801635,-0.06668864,0.6100211,0.7188096,-0.7253114,-0.43715757,0.19201377
1747679483.080707,-0.06668864,0.6100211,0.7188096,-0.7253114,-0.43715757,0.19201377
1747679483.0812402,-0.06668864,0.6100211,0.7188096,-0.7253114,-0.43715757,0.19201377
1747679483.0817723,-0.06668864,0.6100211,0.7188096,-0.7253114,-0.43715757,0.19201377
1747679483.0823047,-0.06668864,0.6100211,0.7188096,-0.7253114,-0.43715757,0.19201377
1747679483.0828378,-0.06668864,0.6100211,0.7188096,-0.7253114,-0.43715757,0.19201377
1747679483.083374,-0.06668864,0.6100211,0.7188096,-0.7253114,-0.43715757,0.19201377
1747679483.0839162,-0.06668864,0.6100211,0.7188096,-0.52397656,-0.5564671,0.36884755
1747679483.084489,-0.06668864,0.6100211,0.7188096,-0.52397656,-0.5564671,0.36884755
1747679483.085059,-0.06668864,0.6100211,0.7188096,-0.52397656,-0.5564671,0.36884755
1747679483.0856755,-0.06668864,0.6100211,0.7188096,-0.52397656,-0.5564671,0.36884755
1747679483.0862432,-0.06668864,0.6100211,0.7188096,-0.52397656,-0.5564671,0.36884755
1747679483.0868185,-0.06668864,0.6100211,0.7188096,-0.52397656,-0.5564671,0.36884755
1747679483.0873759,-0.06668864,0.6100211,0.7188096,-0.52397656,-0.5564671,0.36884755
1747679483.0879319,-0.06668864,0.6100211,0.7188096,-0.52397656,-0.5564671,0.36884755
1747679483.0886421,-0.16919269,0.56853133,0.9345562,-0.52397656,-0.5564671,0.36884755
1747679483.0891852,-0.16919269,0.56853133,0.9345562,-0.17457008,-0.9953557,0.62877184
1747679483.089727,-0.16919269,0.56853133,0.9345562,-0.17457008,-0.9953557,0.62877184
1747679483.090267,-0.16919269,0.56853133,0.9345562,-0.17457008,-0.9953557,0.62877184
1747679483.0908027,-0.16919269,0.56853133,0.9345562,-0.17457008,-0.9953557,0.62877184
1747679483.0913358,-0.16919269,0.56853133,0.9345562,-0.17457008,-0.9953557,0.62877184
1747679483.0918682,-0.16919269,0.56853133,0.9345562,-0.17457008,-0.9953557,0.62877184
1747679483.0924003,-0.16919269,0.56853133,0.9345562,-0.17457008,-0.9953557,0.62877184
1747679483.092933,-0.16919269,0.56853133,0.9345562,-0.17457008,-0.9953557,0.62877184
1747679483.0934653,-0.16919269,0.56853133,0.9345562,-0.17457008,-0.9953557,0.62877184
1747679483.0940053,-0.16919269,0.56853133,0.9345562,-0.17457008,-0.9953557,0.62877184
1747679483.0945468,-0.16919269,0.56853133,0.9345562,-0.17457008,-0.9953557,0.62877184
1747679483.095082,-0.16919269,0.56853133,0.9345562,-0.17457008,-0.9953557,0.62877184
1747679483.0956395,-0.16919269,0.56853133,0.9345562,-0.17457008,-0.9953557,0.62877184
1747679483.0961945,-0.16919269,0.56853133,0.9345562,-0.17457008,-0.9953557,0.62877184
1747679483.0967526,-0.16919269,0.56853133,0.9345562,-0.17457008,-0.9953557,0.62877184
1747679483.0973067,-0.16919269,0.56853133,0.9345562,-0.17457008,-0.9953557,0.62877184
1747679483.0978487,-0.16919269,0.56853133,0.9345562,-0.17457008,-0.9953557,0.62877184
1747679483.0983882,-0.16919269,0.56853133,0.9345562,-0.17457008,-0.9953557,0.62877184
1747679483.098992,-0.16919269,0.56853133,0.9345562,-0.17457008,-0.9953557,0.62877184
1747679483.0995584,-0.16919269,0.56853133,0.9345562,-0.17457008,-0.9953557,0.62877184
1747679483.1001205,-0.16919269,0.56853133,0.9345562,-0.17457008,-0.9953557,0.62877184
1747679483.1006744,-0.16919269,0.56853133,0.9345562,-0.17457008,-0.9953557,0.62877184
1747679483.1012182,-0.16919269,0.56853133,0.9345562,-0.17457008,-0.9953557,0.62877184
1747679483.1017647,-0.12038124,0.613926,0.91942465,-0.17457008,-0.9953557,0.62877184
1747679483.102304,-0.12038124,0.613926,0.91942465,-0.17457008,-0.9953557,0.62877184
1747679483.1028383,-0.12038124,0.613926,0.91942465,-0.17457008,-0.9953557,0.62877184
1747679483.1033738,-0.12038124,0.613926,0.91942465,-0.17457008,-0.9953557,0.62877184
1747679483.1039076,-0.12038124,0.613926,0.91942465,-0.17457008,-0.9953557,0.62877184
1747679483.1044438,-0.12038124,0.613926,0.91942465,-0.17457008,-0.9953557,0.62877184
1747679483.1049788,-0.12038124,0.613926,0.91942465,-0.17457008,-0.9953557,0.62877184
1747679483.1055126,-0.12038124,0.613926,0.91942465,-0.17457008,-0.9953557,0.62877184
1747679483.1060498,-0.12038124,0.613926,0.91942465,-0.17457008,-0.9953557,0.62877184
1747679483.106584,-0.12038124,0.613926,0.91942465,-0.17457008,-0.9953557,0.62877184
1747679483.1071167,-0.12038124,0.613926,0.91942465,-0.17457008,-0.9953557,0.62877184
1747679483.1076493,-0.12038124,0.613926,0.91942465,-0.17457008,-0.9953557,0.62877184
1747679483.1081815,-0.12038124,0.613926,0.91942465,-0.17457008,-0.9953557,0.62877184
1747679483.1087139,-0.12038124,0.613926,0.91942465,-0.17457008,-0.9953557,0.62877184
1747679483.1092472,-0.12038124,0.613926,0.91942465,-0.17457008,-0.9953557,0.62877184
1747679483.1097777,-0.12038124,0.613926,0.91942465,-0.17457008,-0.9953557,0.62877184
1747679483.11034,-0.12038124,0.613926,0.91942465,-0.17457008,-0.9953557,0.62877184
1747679483.1109128,-0.12038124,0.613926,0.91942465,-0.17457008,-0.9953557,0.62877184
1747679483.11155,-0.12038124,0.613926,0.91942465,-0.17457008,-0.9953557,0.62877184
1747679483.1121018,0.07730513,0.66957104,0.8886734,0.49761128,-2.0765984,1.1092057
1747679483.1126494,0.07730513,0.66957104,0.8886734,0.49761128,-2.0765984,1.1092057
1747679483.1131878,0.07730513,0.66957104,0.8886734,0.49761128,-2.0765984,1.1092057
1747679483.113732,0.07730513,0.66957104,0.8886734,0.49761128,-2.0765984,1.1092057
1747679483.1142828,0.07730513,0.66957104,0.8886734,0.49761128,-2.0765984,1.1092057
1747679483.1148326,0.07730513,0.66957104,0.8886734,0.49761128,-2.0765984,1.1092057
1747679483.1153843,0.07730513,0.66957104,0.8886734,0.49761128,-2.0765984,1.1092057
1747679483.1159148,0.07730513,0.66957104,0.8886734,0.49761128,-2.0765984,1.1092057
1747679483.1164682,0.07730513,0.66957104,0.8886734,0.49761128,-2.0765984,1.1092057
1747679483.1170313,0.07730513,0.66957104,0.8886734,0.49761128,-2.0765984,1.1092057
1747679483.117593,0.07730513,0.66957104,0.8886734,0.49761128,-2.0765984,1.1092057
1747679483.118144,0.07730513,0.66957104,0.8886734,0.49761128,-2.0765984,1.1092057
1747679483.1186838,0.07730513,0.66957104,0.8886734,0.49761128,-2.0765984,1.1092057
1747679483.1192298,0.07730513,0.66957104,0.8886734,0.49761128,-2.0765984,1.1092057
1747679483.119784,0.3316128,0.7217993,0.8383977,0.49761128,-2.0765984,1.1092057
1747679483.1203415,0.3316128,0.7217993,0.8383977,0.49761128,-2.0765984,1.1092057
1747679483.120905,0.3316128,0.7217993,0.8383977,0.6605966,-2.3897858,1.1582079
1747679483.1214488,0.3316128,0.7217993,0.8383977,0.6605966,-2.3897858,1.1582079
1747679483.1219885,0.3316128,0.7217993,0.8383977,0.6605966,-2.3897858,1.1582079
1747679483.1225216,0.3316128,0.7217993,0.8383977,0.6605966,-2.3897858,1.1582079
1747679483.1230543,0.3316128,0.7217993,0.8383977,0.6605966,-2.3897858,1.1582079
1747679483.123587,0.3316128,0.7217993,0.8383977,0.6605966,-2.3897858,1.1582079
1747679483.1241252,0.3316128,0.7217993,0.8383977,0.6605966,-2.3897858,1.1582079
1747679483.1246705,0.3316128,0.7217993,0.8383977,0.6605966,-2.3897858,1.1582079
1747679483.125205,0.3316128,0.7217993,0.8383977,0.6605966,-2.3897858,1.1582079
1747679483.1257374,0.3316128,0.7217993,0.8383977,0.6605966,-2.3897858,1.1582079
1747679483.126273,0.3316128,0.7217993,0.8383977,0.6605966,-2.3897858,1.1582079
1747679483.126826,0.3316128,0.7217993,0.8383977,0.6605966,-2.3897858,1.1582079
1747679483.12739,0.3316128,0.7217993,0.8383977,0.6605966,-2.3897858,1.1582079
1747679483.1279402,0.3316128,0.7217993,0.8383977,0.6605966,-2.3897858,1.1582079
1747679483.1284733,0.3316128,0.7217993,0.8383977,0.6605966,-2.3897858,1.1582079
1747679483.1290061,0.3316128,0.7217993,0.8383977,0.6605966,-2.3897858,1.1582079
1747679483.129541,0.3316128,0.7217993,0.8383977,0.6605966,-2.3897858,1.1582079
1747679483.1301243,0.5912897,0.76328903,0.7700617,0.6712493,-2.411091,0.9867005
1747679483.1306899,0.5912897,0.76328903,0.7700617,0.6712493,-2.411091,0.9867005
1747679483.1312432,0.5912897,0.76328903,0.7700617,0.6712493,-2.411091,0.9867005
1747679483.1317797,0.5912897,0.76328903,0.7700617,0.6712493,-2.411091,0.9867005
1747679483.1323128,0.5912897,0.76328903,0.7700617,0.6712493,-2.411091,0.9867005
1747679483.132846,0.5912897,0.76328903,0.7700617,0.6712493,-2.411091,0.9867005
1747679483.1333783,0.5912897,0.76328903,0.7700617,0.6712493,-2.411091,0.9867005
1747679483.1339104,0.5912897,0.76328903,0.7700617,0.6712493,-2.411091,0.9867005
1747679483.134447,0.5912897,0.76328903,0.7700617,0.6712493,-2.411091,0.9867005
1747679483.134982,0.5912897,0.76328903,0.7700617,0.6712493,-2.411091,0.9867005
1747679483.1355162,0.5912897,0.76328903,0.7700617,0.6712493,-2.411091,0.9867005
1747679483.1360483,0.5912897,0.76328903,0.7700617,0.6712493,-2.411091,0.9867005
1747679483.1365807,0.5912897,0.76328903,0.7700617,0.6712493,-2.411091,0.9867005
1747679483.1371126,0.5912897,0.76328903,0.7700617,0.6712493,-2.411091,0.9867005
1747679483.1376448,0.5912897,0.76328903,0.7700617,0.6712493,-2.411091,0.9867005
1747679483.1381767,0.5912897,0.76328903,0.7700617,0.6712493,-2.411091,0.9867005
1747679483.138709,0.5912897,0.76328903,0.7700617,0.6712493,-2.411091,0.9867005
1747679483.1392412,0.5912897,0.76328903,0.7700617,0.6712493,-2.411091,0.9867005
1747679483.1397734,0.5912897,0.76328903,0.7700617,0.6712493,-2.411091,0.9867005
1747679483.140305,0.5912897,0.76328903,0.7700617,0.6712493,-2.411091,0.9867005
1747679483.1408374,0.5912897,0.76328903,0.7700617,0.6712493,-2.411091,0.9867005
1747679483.1413698,0.5912897,0.76328903,0.7700617,0.6712493,-2.411091,0.9867005
1747679483.1419356,0.7113659,0.784278,0.6914752,0.49335024,-2.1959078,0.6532729
1747679483.1425014,0.7113659,0.784278,0.6914752,0.49335024,-2.1959078,0.6532729
1747679483.1430552,0.7113659,0.784278,0.6914752,0.49335024,-2.1959078,0.6532729
1747679483.1435983,0.7113659,0.784278,0.6914752,0.49335024,-2.1959078,0.6532729
1747679483.144136,0.7113659,0.784278,0.6914752,0.49335024,-2.1959078,0.6532729
1747679483.1446757,0.7113659,0.784278,0.6914752,0.49335024,-2.1959078,0.6532729
1747679483.1452947,0.7113659,0.784278,0.6914752,0.49335024,-2.1959078,0.6532729
1747679483.1458611,0.7113659,0.784278,0.6914752,0.49335024,-2.1959078,0.6532729
1747679483.1464067,0.7113659,0.784278,0.6914752,0.49335024,-2.1959078,0.6532729
1747679483.1469452,0.7113659,0.784278,0.6914752,0.49335024,-2.1959078,0.6532729
1747679483.1474702,0.7113659,0.784278,0.6914752,0.49335024,-2.1959078,0.6532729
1747679483.148631,0.7113659,0.784278,0.6914752,0.49335024,-2.1959078,0.6532729
1747679483.1491976,0.7113659,0.784278,0.6914752,0.49335024,-2.1959078,0.6532729
1747679483.1497428,0.7113659,0.784278,0.6914752,0.49335024,-2.1959078,0.6532729
1747679483.1502762,0.7113659,0.784278,0.6914752,0.49335024,-2.1959078,0.6532729
1747679483.1508086,0.7113659,0.784278,0.6914752,0.49335024,-2.1959078,0.6532729
1747679483.1513412,0.7113659,0.784278,0.6914752,0.49335024,-2.1959078,0.6532729
1747679483.1518738,0.7113659,0.784278,0.6914752,0.49335024,-2.1959078,0.6532729
1747679483.152406,0.7113659,0.784278,0.6914752,0.49335024,-2.1959078,0.6532729
1747679483.152938,0.7113659,0.784278,0.6914752,0.49335024,-2.1959078,0.6532729
1747679483.1534705,0.7113659,0.784278,0.6914752,0.49335024,-2.1959078,0.6532729
1747679483.1540046,0.7113659,0.784278,0.6914752,0.49335024,-2.1959078,0.6532729
1747679483.1545415,0.7113659,0.784278,0.6914752,0.49335024,-2.1959078,0.6532729
1747679483.1550834,0.6918413,0.79794514,0.59580475,0.23768695,-1.9104172,0.36458647
1747679483.155618,0.6918413,0.79794514,0.59580475,0.23768695,-1.9104172,0.36458647
1747679483.1561527,0.6918413,0.79794514,0.59580475,0.23768695,-1.9104172,0.36458647
1747679483.1566918,0.6918413,0.79794514,0.59580475,0.23768695,-1.9104172,0.36458647
1747679483.1572301,0.6918413,0.79794514,0.59580475,0.23768695,-1.9104172,0.36458647
1747679483.1577888,0.6918413,0.79794514,0.59580475,0.23768695,-1.9104172,0.36458647
1747679483.1583774,0.6918413,0.79794514,0.59580475,0.23768695,-1.9104172,0.36458647
1747679483.1589353,0.6918413,0.79794514,0.59580475,0.23768695,-1.9104172,0.36458647
1747679483.159487,0.6918413,0.79794514,0.59580475,0.23768695,-1.9104172,0.36458647
1747679483.1600304,0.6918413,0.79794514,0.59580475,0.23768695,-1.9104172,0.36458647
1747679483.1606283,0.6918413,0.79794514,0.59580475,0.23768695,-1.9104172,0.36458647
1747679483.1611788,0.6918413,0.79794514,0.59580475,0.23768695,-1.9104172,0.36458647
1747679483.1617203,0.6918413,0.79794514,0.59580475,0.23768695,-1.9104172,0.36458647
1747679483.162254,0.6918413,0.79794514,0.59580475,0.23768695,-1.9104172,0.36458647
1747679483.1627877,0.6918413,0.79794514,0.59580475,0.23768695,-1.9104172,0.36458647
1747679483.163325,0.6918413,0.79794514,0.59580475,0.23768695,-1.9104172,0.36458647
1747679483.1638627,0.4926906,0.7647534,0.520147,0.23768695,-1.9104172,0.36458647
1747679483.1644063,0.4926906,0.7647534,0.520147,-0.27790067,-1.3266528,0.0972053
1747679483.164944,0.4926906,0.7647534,0.520147,-0.27790067,-1.3266528,0.0972053
1747679483.1654816,0.4926906,0.7647534,0.520147,-0.27790067,-1.3266528,0.0972053
1747679483.1660147,0.4926906,0.7647534,0.520147,-0.27790067,-1.3266528,0.0972053
1747679483.1665475,0.4926906,0.7647534,0.520147,-0.27790067,-1.3266528,0.0972053
1747679483.1670804,0.4926906,0.7647534,0.520147,-0.27790067,-1.3266528,0.0972053
1747679483.1676133,0.4926906,0.7647534,0.520147,-0.27790067,-1.3266528,0.0972053
1747679483.1681461,0.4926906,0.7647534,0.520147,-0.27790067,-1.3266528,0.0972053
1747679483.168679,0.4926906,0.7647534,0.520147,-0.27790067,-1.3266528,0.0972053
1747679483.1692114,0.4926906,0.7647534,0.520147,-0.27790067,-1.3266528,0.0972053
1747679483.1697438,0.4926906,0.7647534,0.520147,-0.27790067,-1.3266528,0.0972053
1747679483.1702871,0.4926906,0.7647534,0.520147,-0.27790067,-1.3266528,0.0972053
1747679483.1708302,0.3516255,0.7042272,0.6045908,-0.6922882,-0.80360824,0.055660024
1747679483.1713696,0.3516255,0.7042272,0.6045908,-0.6922882,-0.80360824,0.055660024
1747679483.1719086,0.3516255,0.7042272,0.6045908,-0.6922882,-0.80360824,0.055660024
1747679483.172449,0.3516255,0.7042272,0.6045908,-0.6922882,-0.80360824,0.055660024
1747679483.173077,0.3516255,0.7042272,0.6045908,-0.6922882,-0.80360824,0.055660024
1747679483.1736383,0.3516255,0.7042272,0.6045908,-0.6922882,-0.80360824,0.055660024
1747679483.1741943,0.3516255,0.7042272,0.6045908,-0.6922882,-0.80360824,0.055660024
1747679483.1747253,0.3516255,0.7042272,0.6045908,-0.6922882,-0.80360824,0.055660024
1747679483.175249,0.3516255,0.7042272,0.6045908,-0.6922882,-0.80360824,0.055660024
1747679483.1757953,0.3516255,0.7042272,0.6045908,-0.6922882,-0.80360824,0.055660024
1747679483.1763523,0.3516255,0.7042272,0.6045908,-0.6922882,-0.80360824,0.055660024
1747679483.176896,0.3516255,0.7042272,0.6045908,-0.6922882,-0.80360824,0.055660024
1747679483.177454,0.3516255,0.7042272,0.6045908,-0.6922882,-0.80360824,0.055660024
1747679483.178014,0.3516255,0.7042272,0.6045908,-0.6922882,-0.80360824,0.055660024
1747679483.1785676,0.3516255,0.7042272,0.6045908,-0.6922882,-0.80360824,0.055660024
1747679483.1791723,0.3516255,0.7042272,0.6045908,-0.6922882,-0.80360824,0.055660024
1747679483.1797352,0.3516255,0.7042272,0.6045908,-0.6922882,-0.80360824,0.055660024
1747679483.180289,0.3516255,0.7042272,0.6045908,-0.6922882,-0.80360824,0.055660024
1747679483.1808333,0.3516255,0.7042272,0.6045908,-0.6922882,-0.80360824,0.055660024
1747679483.1813807,0.3516255,0.7042272,0.6045908,-0.9010799,-0.48509443,0.11638005
1747679483.1819575,0.3516255,0.7042272,0.6045908,-0.9010799,-0.48509443,0.11638005
1747679483.18251,0.26620543,0.6549277,0.8130157,-0.9010799,-0.48509443,0.11638005
1747679483.1830435,0.26620543,0.6549277,0.8130157,-0.9010799,-0.48509443,0.11638005
1747679483.1835763,0.26620543,0.6549277,0.8130157,-0.9010799,-0.48509443,0.11638005
1747679483.1841161,0.26620543,0.6549277,0.8130157,-0.9010799,-0.48509443,0.11638005
1747679483.1846576,0.26620543,0.6549277,0.8130157,-0.9010799,-0.48509443,0.11638005
1747679483.1851916,0.26620543,0.6549277,0.8130157,-0.9010799,-0.48509443,0.11638005
1747679483.185724,0.26620543,0.6549277,0.8130157,-0.9010799,-0.48509443,0.11638005
1747679483.186256,0.26620543,0.6549277,0.8130157,-0.9010799,-0.48509443,0.11638005
1747679483.186788,0.26620543,0.6549277,0.8130157,-0.9010799,-0.48509443,0.11638005
1747679483.1873202,0.26620543,0.6549277,0.8130157,-0.9010799,-0.48509443,0.11638005
1747679483.1878524,0.26620543,0.6549277,0.8130157,-0.9010799,-0.48509443,0.11638005
1747679483.1883876,0.26620543,0.6549277,0.8130157,-0.9010799,-0.48509443,0.11638005
1747679483.1889527,0.26620543,0.6549277,0.8130157,-0.9010799,-0.48509443,0.11638005
1747679483.18953,0.23838292,0.6212477,1.0121664,-0.9010799,-0.48509443,0.11638005
1747679483.1900928,0.23838292,0.6212477,1.0121664,-0.9010799,-0.48509443,0.11638005
1747679483.190677,0.23838292,0.6212477,1.0121664,-0.8456862,-0.41372177,0.21225378
1747679483.191238,0.23838292,0.6212477,1.0121664,-0.8456862,-0.41372177,0.21225378
1747679483.1917963,0.23838292,0.6212477,1.0121664,-0.8456862,-0.41372177,0.21225378
1747679483.1923358,0.23838292,0.6212477,1.0121664,-0.8456862,-0.41372177,0.21225378
1747679483.1928687,0.23838292,0.6212477,1.0121664,-0.8456862,-0.41372177,0.21225378
1747679483.1934066,0.23838292,0.6212477,1.0121664,-0.8456862,-0.41372177,0.21225378
1747679483.1939418,0.23838292,0.6212477,1.0121664,-0.8456862,-0.41372177,0.21225378
1747679483.1944754,0.23838292,0.6212477,1.0121664,-0.8456862,-0.41372177,0.21225378
1747679483.1950076,0.23838292,0.6212477,1.0121664,-0.8456862,-0.41372177,0.21225378
1747679483.1955397,0.23838292,0.6212477,1.0121664,-0.8456862,-0.41372177,0.21225378
1747679483.1960719,0.23838292,0.6212477,1.0121664,-0.8456862,-0.41372177,0.21225378
1747679483.196604,0.23838292,0.6212477,1.0121664,-0.8456862,-0.41372177,0.21225378
1747679483.1971362,0.23838292,0.6212477,1.0121664,-0.8456862,-0.41372177,0.21225378
1747679483.1976683,0.23838292,0.6212477,1.0121664,-0.8456862,-0.41372177,0.21225378
1747679483.1982002,0.23838292,0.6212477,1.0121664,-0.8456862,-0.41372177,0.21225378
1747679483.1987345,0.23838292,0.6212477,1.0121664,-0.8456862,-0.41372177,0.21225378
1747679483.1992745,0.23838292,0.6212477,1.0121664,-0.57937026,-0.4978776,0.29534435
1747679483.1998107,0.23838292,0.6212477,1.0121664,-0.57937026,-0.4978776,0.29534435
1747679483.2003486,0.23838292,0.6212477,1.0121664,-0.57937026,-0.4978776,0.29534435
1747679483.2008843,0.23838292,0.6212477,1.0121664,-0.57937026,-0.4978776,0.29534435
1747679483.20142,0.23838292,0.6212477,1.0121664,-0.57937026,-0.4978776,0.29534435
1747679483.2019591,0.27987266,0.60806865,1.1351712,-0.57937026,-0.4978776,0.29534435
1747679483.202494,0.27987266,0.60806865,1.1351712,-0.57937026,-0.4978776,0.29534435
1747679483.2030263,0.27987266,0.60806865,1.1351712,-0.57937026,-0.4978776,0.29534435
1747679483.203561,0.27987266,0.60806865,1.1351712,-0.57937026,-0.4978776,0.29534435
1747679483.2040951,0.27987266,0.60806865,1.1351712,-0.57937026,-0.4978776,0.29534435
1747679483.20463,0.27987266,0.60806865,1.1351712,-0.57937026,-0.4978776,0.29534435
1747679483.2051804,0.27987266,0.60806865,1.1351712,-0.57937026,-0.4978776,0.29534435
1747679483.205735,0.27987266,0.60806865,1.1351712,-0.57937026,-0.4978776,0.29534435
1747679483.2063038,0.27987266,0.60806865,1.1351712,-0.57937026,-0.4978776,0.29534435
1747679483.2068598,0.27987266,0.60806865,1.1351712,-0.57937026,-0.4978776,0.29534435
1747679483.207389,0.27987266,0.60806865,1.1351712,-0.57937026,-0.4978776,0.29534435
1747679483.2079132,0.27987266,0.60806865,1.1351712,-0.57937026,-0.4978776,0.29534435
1747679483.2092662,0.27987266,0.60806865,1.1351712,-0.57937026,-0.4978776,0.29534435
1747679483.209836,0.27987266,0.60806865,1.1351712,-0.57937026,-0.4978776,0.29534435
1747679483.2103827,0.27987266,0.60806865,1.1351712,-0.57937026,-0.4978776,0.29534435
1747679483.210916,0.27987266,0.60806865,1.1351712,-0.57937026,-0.4978776,0.29534435
1747679483.2114558,0.35406607,0.6227121,1.1532315,-0.21931115,-0.6757766,0.31771487
1747679483.2119918,0.35406607,0.6227121,1.1532315,-0.21931115,-0.6757766,0.31771487
1747679483.2125247,0.35406607,0.6227121,1.1532315,-0.21931115,-0.6757766,0.31771487
1747679483.2130568,0.35406607,0.6227121,1.1532315,-0.21931115,-0.6757766,0.31771487
1747679483.2135909,0.35406607,0.6227121,1.1532315,-0.21931115,-0.6757766,0.31771487
1747679483.2141235,0.35406607,0.6227121,1.1532315,-0.21931115,-0.6757766,0.31771487
1747679483.2146573,0.35406607,0.6227121,1.1532315,-0.21931115,-0.6757766,0.31771487
1747679483.2151895,0.35406607,0.6227121,1.1532315,-0.21931115,-0.6757766,0.31771487
1747679483.2157218,0.35406607,0.6227121,1.1532315,-0.21931115,-0.6757766,0.31771487
1747679483.216254,0.35406607,0.6227121,1.1532315,-0.21931115,-0.6757766,0.31771487
1747679483.216786,0.35406607,0.6227121,1.1532315,-0.21931115,-0.6757766,0.31771487
1747679483.2173183,0.35406607,0.6227121,1.1532315,-0.21931115,-0.6757766,0.31771487
1747679483.2178507,0.35406607,0.6227121,1.1532315,-0.21931115,-0.6757766,0.31771487
1747679483.2183826,0.35406607,0.6227121,1.1532315,-0.21931115,-0.6757766,0.31771487
1747679483.2189147,0.35406607,0.6227121,1.1532315,-0.21931115,-0.6757766,0.31771487
1747679483.219447,0.35406607,0.6227121,1.1532315,-0.21931115,-0.6757766,0.31771487
1747679483.2199807,0.35406607,0.6227121,1.1532315,-0.21931115,-0.6757766,0.31771487
1747679483.2205365,0.35406607,0.6227121,1.1532315,-0.21931115,-0.6757766,0.31771487
1747679483.2210934,0.35406607,0.6227121,1.1532315,-0.21931115,-0.6757766,0.31771487
1747679483.2216375,0.35406607,0.6227121,1.1532315,-0.21931115,-0.6757766,0.31771487
1747679483.2221642,0.35406607,0.6227121,1.1532315,-0.21931115,-0.6757766,0.31771487
1747679483.2227063,0.35406607,0.6227121,1.1532315,-0.21931115,-0.6757766,0.31771487
1747679483.2232502,0.35406607,0.6227121,1.1532315,-0.21931115,-0.6757766,0.31771487
1747679483.2237854,0.426307,0.64662963,1.0722045,-0.21931115,-0.6757766,0.31771487
1747679483.2243214,0.426307,0.64662963,1.0722045,0.09920268,-0.88243777,0.24208117
1747679483.224858,0.426307,0.64662963,1.0722045,0.09920268,-0.88243777,0.24208117
1747679483.2253907,0.426307,0.64662963,1.0722045,0.09920268,-0.88243777,0.24208117
1747679483.2259228,0.426307,0.64662963,1.0722045,0.09920268,-0.88243777,0.24208117
1747679483.2264547,0.426307,0.64662963,1.0722045,0.09920268,-0.88243777,0.24208117
1747679483.2269838,0.426307,0.64662963,1.0722045,0.09920268,-0.88243777,0.24208117
1747679483.2275054,0.426307,0.64662963,1.0722045,0.09920268,-0.88243777,0.24208117
1747679483.2280245,0.426307,0.64662963,1.0722045,0.09920268,-0.88243777,0.24208117
1747679483.2285438,0.426307,0.64662963,1.0722045,0.09920268,-0.88243777,0.24208117
1747679483.2290623,0.426307,0.64662963,1.0722045,0.09920268,-0.88243777,0.24208117
1747679483.229581,0.426307,0.64662963,1.0722045,0.09920268,-0.88243777,0.24208117
1747679483.2300994,0.426307,0.64662963,1.0722045,0.09920268,-0.88243777,0.24208117
1747679483.2307186,0.426307,0.64662963,1.0722045,0.09920268,-0.88243777,0.24208117
1747679483.2312472,0.426307,0.64662963,1.0722045,0.09920268,-0.88243777,0.24208117
1747679483.2317672,0.45168898,0.68519074,0.9628669,0.09920268,-0.88243777,0.24208117
1747679483.2322867,0.45168898,0.68519074,0.9628669,0.31012487,-1.0741853,0.088683195
1747679483.2328057,0.45168898,0.68519074,0.9628669,0.31012487,-1.0741853,0.088683195
1747679483.2333248,0.45168898,0.68519074,0.9628669,0.31012487,-1.0741853,0.088683195
1747679483.233856,0.45168898,0.68519074,0.9628669,0.31012487,-1.0741853,0.088683195
1747679483.2343857,0.45168898,0.68519074,0.9628669,0.31012487,-1.0741853,0.088683195
1747679483.2349062,0.45168898,0.68519074,0.9628669,0.31012487,-1.0741853,0.088683195
1747679483.2354271,0.45168898,0.68519074,0.9628669,0.31012487,-1.0741853,0.088683195
1747679483.2359667,0.45168898,0.68519074,0.9628669,0.31012487,-1.0741853,0.088683195
1747679483.236537,0.45168898,0.68519074,0.9628669,0.31012487,-1.0741853,0.088683195
1747679483.2370944,0.45168898,0.68519074,0.9628669,0.31012487,-1.0741853,0.088683195
1747679483.2378583,0.45168898,0.68519074,0.9628669,0.31012487,-1.0741853,0.088683195
1747679483.2383933,0.45168898,0.68519074,0.9628669,0.31012487,-1.0741853,0.088683195
1747679483.238926,0.45168898,0.68519074,0.9628669,0.31012487,-1.0741853,0.088683195
1747679483.2394798,0.45168898,0.68519074,0.9628669,0.31012487,-1.0741853,0.088683195
1747679483.240027,0.45168898,0.68519074,0.9628669,0.31012487,-1.0741853,0.088683195
1747679483.240565,0.45168898,0.68519074,0.9628669,0.31012487,-1.0741853,0.088683195
1747679483.2410984,0.45168898,0.68519074,0.9628669,0.31012487,-1.0741853,0.088683195
1747679483.2416322,0.45168898,0.68519074,0.9628669,0.31012487,-1.0741853,0.088683195
1747679483.2421525,0.45168898,0.68519074,0.9628669,0.31012487,-1.0741853,0.088683195
1747679483.2426713,0.45168898,0.68519074,0.9628669,0.31012487,-1.0741853,0.088683195
1747679483.24319,0.45168898,0.68519074,0.9628669,0.31012487,-1.0741853,0.088683195
1747679483.2437088,0.45168898,0.68519074,0.9628669,0.31012487,-1.0741853,0.088683195
1747679483.2442613,0.45705822,0.70813215,0.886721,0.3740407,-1.1785811,-0.016777903
1747679483.2448168,0.45705822,0.70813215,0.886721,0.3740407,-1.1785811,-0.016777903
1747679483.2453384,0.45705822,0.70813215,0.886721,0.3740407,-1.1785811,-0.016777903
1747679483.2458572,0.45705822,0.70813215,0.886721,0.3740407,-1.1785811,-0.016777903
1747679483.2463765,0.45705822,0.70813215,0.886721,0.3740407,-1.1785811,-0.016777903
1747679483.2468953,0.45705822,0.70813215,0.886721,0.3740407,-1.1785811,-0.016777903
1747679483.2474144,0.45705822,0.70813215,0.886721,0.3740407,-1.1785811,-0.016777903
1747679483.2479331,0.45705822,0.70813215,0.886721,0.3740407,-1.1785811,-0.016777903
1747679483.2484515,0.45705822,0.70813215,0.886721,0.3740407,-1.1785811,-0.016777903
1747679483.24897,0.45705822,0.70813215,0.886721,0.3740407,-1.1785811,-0.016777903
1747679483.2494888,0.45705822,0.70813215,0.886721,0.3740407,-1.1785811,-0.016777903
1747679483.2500072,0.45705822,0.70813215,0.886721,0.3740407,-1.1785811,-0.016777903
1747679483.250526,0.45705822,0.70813215,0.886721,0.3740407,-1.1785811,-0.016777903
1747679483.2510476,0.45705822,0.70813215,0.886721,0.3740407,-1.1785811,-0.016777903
1747679483.2515874,0.45705822,0.70813215,0.886721,0.3740407,-1.1785811,-0.016777903
1747679483.2521646,0.45705822,0.70813215,0.886721,0.3740407,-1.1785811,-0.016777903
1747679483.2527099,0.45705822,0.70813215,0.886721,0.3740407,-1.1785811,-0.016777903
1747679483.253235,0.45705822,0.70813215,0.886721,0.3740407,-1.1785811,-0.016777903
1747679483.2537708,0.45705822,0.70813215,0.886721,0.3740407,-1.1785811,-0.016777903
1747679483.2543123,0.41068733,0.7222874,0.75834686,0.3740407,-1.1785811,-0.016777903
1747679483.254835,0.41068733,0.7222874,0.75834686,0.3740407,-1.1785811,-0.016777903
1747679483.2553542,0.41068733,0.7222874,0.75834686,0.3740407,-1.1785811,-0.016777903
1747679483.2558732,0.41068733,0.7222874,0.75834686,0.3772365,-1.2978905,-0.2010685
1747679483.256392,0.41068733,0.7222874,0.75834686,0.3772365,-1.2978905,-0.2010685
1747679483.2569108,0.41068733,0.7222874,0.75834686,0.3772365,-1.2978905,-0.2010685
1747679483.2574322,0.41068733,0.7222874,0.75834686,0.3772365,-1.2978905,-0.2010685
1747679483.257954,0.41068733,0.7222874,0.75834686,0.3772365,-1.2978905,-0.2010685
1747679483.2584753,0.41068733,0.7222874,0.75834686,0.3772365,-1.2978905,-0.2010685
1747679483.2589965,0.41068733,0.7222874,0.75834686,0.3772365,-1.2978905,-0.2010685
1747679483.2595177,0.41068733,0.7222874,0.75834686,0.3772365,-1.2978905,-0.2010685
1747679483.2600389,0.41068733,0.7222874,0.75834686,0.3772365,-1.2978905,-0.2010685
1747679483.2605598,0.41068733,0.7222874,0.75834686,0.3772365,-1.2978905,-0.2010685
1747679483.261081,0.41068733,0.7222874,0.75834686,0.3772365,-1.2978905,-0.2010685
1747679483.2616026,0.41068733,0.7222874,0.75834686,0.3772365,-1.2978905,-0.2010685
1747679483.2621238,0.41068733,0.7222874,0.75834686,0.3772365,-1.2978905,-0.2010685
1747679483.2626455,0.41068733,0.7222874,0.75834686,0.3772365,-1.2978905,-0.2010685
1747679483.263167,0.41068733,0.7222874,0.75834686,0.3772365,-1.2978905,-0.2010685
1747679483.263688,0.41068733,0.7222874,0.75834686,0.3772365,-1.2978905,-0.2010685
1747679483.264227,0.41068733,0.7222874,0.75834686,0.3772365,-1.2978905,-0.2010685
1747679483.2647562,0.41068733,0.7222874,0.75834686,0.22596905,-1.1871032,-0.28735486
1747679483.2652798,0.41068733,0.7222874,0.75834686,0.22596905,-1.1871032,-0.28735486
1747679483.2658021,0.38335294,0.69495296,0.7027018,0.22596905,-1.1871032,-0.28735486
1747679483.2663262,0.38335294,0.69495296,0.7027018,0.22596905,-1.1871032,-0.28735486
1747679483.2669144,0.38335294,0.69495296,0.7027018,0.22596905,-1.1871032,-0.28735486
1747679483.2674696,0.38335294,0.69495296,0.7027018,0.22596905,-1.1871032,-0.28735486
1747679483.268011,0.38335294,0.69495296,0.7027018,0.22596905,-1.1871032,-0.28735486
1747679483.268539,0.38335294,0.69495296,0.7027018,0.22596905,-1.1871032,-0.28735486
1747679483.2690747,0.38335294,0.69495296,0.7027018,0.22596905,-1.1871032,-0.28735486
1747679483.2696104,0.38335294,0.69495296,0.7027018,0.22596905,-1.1871032,-0.28735486
1747679483.270133,0.38335294,0.69495296,0.7027018,0.22596905,-1.1871032,-0.28735486
1747679483.2706552,0.38335294,0.69495296,0.7027018,0.22596905,-1.1871032,-0.28735486
1747679483.271177,0.38335294,0.69495296,0.7027018,0.22596905,-1.1871032,-0.28735486
1747679483.2716987,0.38335294,0.69495296,0.7027018,0.22596905,-1.1871032,-0.28735486
1747679483.2722206,0.38335294,0.69495296,0.7027018,0.22596905,-1.1871032,-0.28735486
1747679483.2727451,0.38335294,0.69495296,0.7027018,0.22596905,-1.1871032,-0.28735486
1747679483.2732704,0.38335294,0.69495296,0.7027018,0.22596905,-1.1871032,-0.28735486
1747679483.2737937,0.37603122,0.6456534,0.72417885,0.05872266,-0.89735144,-0.27883276
1747679483.2743146,0.37603122,0.6456534,0.72417885,0.05872266,-0.89735144,-0.27883276
1747679483.2748344,0.37603122,0.6456534,0.72417885,0.05872266,-0.89735144,-0.27883276
1747679483.2753532,0.37603122,0.6456534,0.72417885,0.05872266,-0.89735144,-0.27883276
1747679483.2758718,0.37603122,0.6456534,0.72417885,0.05872266,-0.89735144,-0.27883276
1747679483.27639,0.37603122,0.6456534,0.72417885,0.05872266,-0.89735144,-0.27883276
1747679483.2769089,0.37603122,0.6456534,0.72417885,0.05872266,-0.89735144,-0.27883276
1747679483.2774274,0.37603122,0.6456534,0.72417885,0.05872266,-0.89735144,-0.27883276
1747679483.277946,0.37603122,0.6456534,0.72417885,0.05872266,-0.89735144,-0.27883276
1747679483.278465,0.37603122,0.6456534,0.72417885,0.05872266,-0.89735144,-0.27883276
1747679483.2789834,0.37603122,0.6456534,0.72417885,0.05872266,-0.89735144,-0.27883276
1747679483.2795022,0.37603122,0.6456534,0.72417885,0.05872266,-0.89735144,-0.27883276
1747679483.2800207,0.37603122,0.6456534,0.72417885,0.05872266,-0.89735144,-0.27883276
1747679483.2805393,0.37603122,0.6456534,0.72417885,0.05872266,-0.89735144,-0.27883276
1747679483.281058,0.37603122,0.6456534,0.72417885,0.05872266,-0.89735144,-0.27883276
1747679483.281604,0.37603122,0.6456534,0.72417885,-0.077631086,-0.5095955,-0.24474432
1747679483.2821565,0.37603122,0.6456534,0.72417885,-0.077631086,-0.5095955,-0.24474432
1747679483.2827315,0.37603122,0.6456534,0.72417885,-0.077631086,-0.5095955,-0.24474432
1747679483.2833078,0.37603122,0.6456534,0.72417885,-0.077631086,-0.5095955,-0.24474432
1747679483.283871,0.37603122,0.6456534,0.72417885,-0.077631086,-0.5095955,-0.24474432
1747679483.2844002,0.37603122,0.6456534,0.72417885,-0.077631086,-0.5095955,-0.24474432
1747679483.2849197,0.37603122,0.6456534,0.72417885,-0.077631086,-0.5095955,-0.24474432
1747679483.2854388,0.37603122,0.6456534,0.72417885,-0.077631086,-0.5095955,-0.24474432
1747679483.2859576,0.37603122,0.6456534,0.72417885,-0.077631086,-0.5095955,-0.24474432
1747679483.2864766,0.37603122,0.6456534,0.72417885,-0.077631086,-0.5095955,-0.24474432
1747679483.2869952,0.37603122,0.6456534,0.72417885,-0.077631086,-0.5095955,-0.24474432
1747679483.287514,0.37603122,0.6456534,0.72417885,-0.077631086,-0.5095955,-0.24474432
1747679483.2880325,0.37603122,0.6456534,0.72417885,-0.077631086,-0.5095955,-0.24474432
1747679483.288551,0.37603122,0.6456534,0.72417885,-0.077631086,-0.5095955,-0.24474432
1747679483.28907,0.37603122,0.6456534,0.72417885,-0.077631086,-0.5095955,-0.24474432
1747679483.2895885,0.37603122,0.6456534,0.72417885,-0.077631086,-0.5095955,-0.24474432
1747679483.2901344,0.40385374,0.64223665,0.84962434,-0.077631086,-0.5095955,-0.24474432
1747679483.2906566,0.40385374,0.64223665,0.84962434,-0.1415469,-0.13994901,-0.24048327
1747679483.291176,0.40385374,0.64223665,0.84962434,-0.1415469,-0.13994901,-0.24048327
1747679483.291695,0.40385374,0.64223665,0.84962434,-0.1415469,-0.13994901,-0.24048327
1747679483.2922134,0.40385374,0.64223665,0.84962434,-0.1415469,-0.13994901,-0.24048327
1747679483.292732,0.40385374,0.64223665,0.84962434,-0.1415469,-0.13994901,-0.24048327
1747679483.2932506,0.40385374,0.64223665,0.84962434,-0.1415469,-0.13994901,-0.24048327
1747679483.293782,0.40385374,0.64223665,0.84962434,-0.1415469,-0.13994901,-0.24048327
1747679483.2943115,0.40385374,0.64223665,0.84962434,-0.1415469,-0.13994901,-0.24048327
1747679483.2948313,0.40385374,0.64223665,0.84962434,-0.1415469,-0.13994901,-0.24048327
1747679483.29535,0.40385374,0.64223665,0.84962434,-0.1415469,-0.13994901,-0.24048327
1747679483.2958686,0.40385374,0.64223665,0.84962434,-0.1415469,-0.13994901,-0.24048327
1747679483.296387,0.40385374,0.64223665,0.84962434,-0.1415469,-0.13994901,-0.24048327
1747679483.2969077,0.40385374,0.64223665,0.84962434,-0.1415469,-0.13994901,-0.24048327
1747679483.2974818,0.40385374,0.64223665,0.84962434,-0.1415469,-0.13994901,-0.24048327
1747679483.2980561,0.40385374,0.64223665,0.84962434,-0.1415469,-0.13994901,-0.24048327
1747679483.2986057,0.40385374,0.64223665,0.84962434,-0.1415469,-0.13994901,-0.24048327
1747679483.2991755,0.40385374,0.64223665,0.84962434,-0.1415469,-0.13994901,-0.24048327
1747679483.2997375,0.41947338,0.6573682,0.8886734,-0.1415469,-0.13994901,-0.24048327
1747679483.3002841,0.41947338,0.6573682,0.8886734,-0.1330248,0.08375636,-0.28522435
1747679483.3008192,0.41947338,0.6573682,0.8886734,-0.1330248,0.08375636,-0.28522435
1747679483.3013575,0.41947338,0.6573682,0.8886734,-0.1330248,0.08375636,-0.28522435
1747679483.3018932,0.41947338,0.6573682,0.8886734,-0.1330248,0.08375636,-0.28522435
1747679483.3024256,0.41947338,0.6573682,0.8886734,-0.1330248,0.08375636,-0.28522435
1747679483.302958,0.41947338,0.6573682,0.8886734,-0.1330248,0.08375636,-0.28522435
1747679483.3034902,0.41947338,0.6573682,0.8886734,-0.1330248,0.08375636,-0.28522435
1747679483.3040264,0.41947338,0.6573682,0.8886734,-0.1330248,0.08375636,-0.28522435
1747679483.3045619,0.41947338,0.6573682,0.8886734,-0.1330248,0.08375636,-0.28522435
1747679483.3050957,0.41947338,0.6573682,0.8886734,-0.1330248,0.08375636,-0.28522435
1747679483.3056278,0.41947338,0.6573682,0.8886734,-0.1330248,0.08375636,-0.28522435
1747679483.3061612,0.41947338,0.6573682,0.8886734,-0.1330248,0.08375636,-0.28522435
1747679483.3067055,0.41947338,0.6573682,0.8886734,-0.1330248,0.08375636,-0.28522435
1747679483.307308,0.41947338,0.6573682,0.8886734,-0.1330248,0.08375636,-0.28522435
1747679483.3078501,0.41947338,0.6573682,0.8886734,-0.1330248,0.08375636,-0.28522435
1747679483.3083951,0.41947338,0.6573682,0.8886734,-0.1330248,0.08375636,-0.28522435
1747679483.3089328,0.41947338,0.6573682,0.8886734,-0.1330248,0.08375636,-0.28522435
1747679483.3094695,0.41947338,0.6573682,0.8886734,-0.1330248,0.08375636,-0.28522435
1747679483.309998,0.41947338,0.6573682,0.8886734,-0.1330248,0.08375636,-0.28522435
1747679483.3105426,0.41947338,0.6573682,0.8886734,-0.08295741,0.15832481,-0.3416833
1747679483.311078,0.41947338,0.6573682,0.8886734,-0.08295741,0.15832481,-0.3416833
1747679483.3116157,0.40141317,0.6793333,0.89501894,-0.08295741,0.15832481,-0.3416833
1747679483.3121512,0.40141317,0.6793333,0.89501894,-0.08295741,0.15832481,-0.3416833
1747679483.312722,0.40141317,0.6793333,0.89501894,-0.08295741,0.15832481,-0.3416833
1747679483.313287,0.40141317,0.6793333,0.89501894,-0.08295741,0.15832481,-0.3416833
1747679483.3138454,0.40141317,0.6793333,0.89501894,-0.08295741,0.15832481,-0.3416833
1747679483.3144114,0.40141317,0.6793333,0.89501894,-0.08295741,0.15832481,-0.3416833
1747679483.314961,0.40141317,0.6793333,0.89501894,-0.08295741,0.15832481,-0.3416833
1747679483.3155012,0.40141317,0.6793333,0.89501894,-0.08295741,0.15832481,-0.3416833
1747679483.3160388,0.40141317,0.6793333,0.89501894,-0.08295741,0.15832481,-0.3416833
1747679483.3165672,0.40141317,0.6793333,0.89501894,-0.08295741,0.15832481,-0.3416833
1747679483.3170874,0.40141317,0.6793333,0.89501894,-0.08295741,0.15832481,-0.3416833
1747679483.3176064,0.40141317,0.6793333,0.89501894,-0.08295741,0.15832481,-0.3416833
1747679483.3181252,0.40141317,0.6793333,0.89501894,-0.08295741,0.15832481,-0.3416833
1747679483.3186443,0.40141317,0.6793333,0.89501894,-0.08295741,0.15832481,-0.3416833
1747679483.3191628,0.40141317,0.6793333,0.89501894,-0.08295741,0.15832481,-0.3416833
1747679483.3196816,0.40141317,0.6793333,0.89501894,-0.08295741,0.15832481,-0.3416833
1747679483.3202,0.40141317,0.6793333,0.89501894,-0.08295741,0.15832481,-0.3416833
1747679483.3207185,0.40141317,0.6793333,0.89501894,-0.08295741,0.15832481,-0.3416833
1747679483.3212373,0.40141317,0.6793333,0.89501894,-0.08295741,0.15832481,-0.3416833
1747679483.3217554,0.40141317,0.6793333,0.89501894,-0.08295741,0.15832481,-0.3416833
1747679483.322274,0.40141317,0.6793333,0.89501894,-0.08295741,0.15832481,-0.3416833
1747679483.3227923,0.40141317,0.6793333,0.89501894,-0.08295741,0.15832481,-0.3416833
1747679483.3233116,0.38091236,0.7174063,0.8691489,-0.026498433,0.15725954,-0.40559912
1747679483.3238478,0.38091236,0.7174063,0.8691489,-0.026498433,0.15725954,-0.40559912
1747679483.3243797,0.38091236,0.7174063,0.8691489,-0.026498433,0.15725954,-0.40559912
1747679483.3249006,0.38091236,0.7174063,0.8691489,-0.026498433,0.15725954,-0.40559912
1747679483.3254197,0.38091236,0.7174063,0.8691489,-0.026498433,0.15725954,-0.40559912
1747679483.3259385,0.38091236,0.7174063,0.8691489,-0.026498433,0.15725954,-0.40559912
1747679483.326457,0.38091236,0.7174063,0.8691489,-0.026498433,0.15725954,-0.40559912
1747679483.3269758,0.38091236,0.7174063,0.8691489,-0.026498433,0.15725954,-0.40559912
1747679483.3274941,0.38091236,0.7174063,0.8691489,-0.026498433,0.15725954,-0.40559912
1747679483.3280394,0.38091236,0.7174063,0.8691489,-0.026498433,0.15725954,-0.40559912
1747679483.3285935,0.38091236,0.7174063,0.8691489,-0.026498433,0.15725954,-0.40559912
1747679483.3291683,0.38091236,0.7174063,0.8691489,-0.026498433,0.15725954,-0.40559912
1747679483.3297362,0.38091236,0.7174063,0.8691489,-0.026498433,0.15725954,-0.40559912
1747679483.3302832,0.38091236,0.7174063,0.8691489,-0.026498433,0.15725954,-0.40559912
1747679483.3308167,0.38091236,0.7174063,0.8691489,-0.026498433,0.15725954,-0.40559912
1747679483.3313372,0.38091236,0.7174063,0.8691489,-0.026498433,0.15725954,-0.40559912
1747679483.3318582,0.38091236,0.7174063,0.8691489,-0.026498433,0.15725954,-0.40559912
1747679483.3323798,0.3457681,0.75157434,0.8423026,0.024634222,0.13915007,-0.47058022
1747679483.332899,0.3457681,0.75157434,0.8423026,0.024634222,0.13915007,-0.47058022
1747679483.3334177,0.3457681,0.75157434,0.8423026,0.024634222,0.13915007,-0.47058022
1747679483.33397,0.3457681,0.75157434,0.8423026,0.024634222,0.13915007,-0.47058022
1747679483.334527,0.3457681,0.75157434,0.8423026,0.024634222,0.13915007,-0.47058022
1747679483.3350487,0.3457681,0.75157434,0.8423026,0.024634222,0.13915007,-0.47058022
1747679483.3355675,0.3457681,0.75157434,0.8423026,0.024634222,0.13915007,-0.47058022
1747679483.3360865,0.3457681,0.75157434,0.8423026,0.024634222,0.13915007,-0.47058022
1747679483.336605,0.3457681,0.75157434,0.8423026,0.024634222,0.13915007,-0.47058022
1747679483.3371239,0.3457681,0.75157434,0.8423026,0.024634222,0.13915007,-0.47058022
1747679483.3376427,0.3457681,0.75157434,0.8423026,0.024634222,0.13915007,-0.47058022
1747679483.3381615,0.3457681,0.75157434,0.8423026,0.024634222,0.13915007,-0.47058022
1747679483.33868,0.3457681,0.75157434,0.8423026,0.024634222,0.13915007,-0.47058022
1747679483.339199,0.3457681,0.75157434,0.8423026,0.024634222,0.13915007,-0.47058022
1747679483.3397176,0.3457681,0.75157434,0.8423026,0.024634222,0.13915007,-0.47058022
1747679483.3402364,0.3457681,0.75157434,0.8423026,0.024634222,0.13915007,-0.47058022
1747679483.3407552,0.3457681,0.75157434,0.8423026,0.024634222,0.13915007,-0.47058022
1747679483.3412738,0.3457681,0.75157434,0.8423026,0.024634222,0.13915007,-0.47058022
1747679483.3417923,0.3457681,0.75157434,0.8423026,0.024634222,0.13915007,-0.47058022
1747679483.342311,0.3457681,0.75157434,0.8423026,0.024634222,0.13915007,-0.47058022
1747679483.342831,0.3457681,0.75157434,0.8423026,0.024634222,0.13915007,-0.47058022
1747679483.3434088,0.3457681,0.75157434,0.8423026,0.024634222,0.13915007,-0.47058022
1747679483.3439565,0.3223386,0.7618247,0.82717097,0.055526868,0.14021532,-0.50253814
1747679483.3444943,0.3223386,0.7618247,0.82717097,0.055526868,0.14021532,-0.50253814
1747679483.345028,0.3223386,0.7618247,0.82717097,0.055526868,0.14021532,-0.50253814
1747679483.3455884,0.3223386,0.7618247,0.82717097,0.055526868,0.14021532,-0.50253814
1747679483.3461394,0.3223386,0.7618247,0.82717097,0.055526868,0.14021532,-0.50253814
1747679483.3466709,0.3223386,0.7618247,0.82717097,0.055526868,0.14021532,-0.50253814
1747679483.3471909,0.3223386,0.7618247,0.82717097,0.055526868,0.14021532,-0.50253814
1747679483.3477097,0.3223386,0.7618247,0.82717097,0.055526868,0.14021532,-0.50253814
1747679483.3482287,0.3223386,0.7618247,0.82717097,0.055526868,0.14021532,-0.50253814
1747679483.3487508,0.3223386,0.7618247,0.82717097,0.055526868,0.14021532,-0.50253814
1747679483.3492694,0.3223386,0.7618247,0.82717097,0.055526868,0.14021532,-0.50253814
1747679483.3497891,0.3223386,0.7618247,0.82717097,0.055526868,0.14021532,-0.50253814
1747679483.3503094,0.3223386,0.7618247,0.82717097,0.055526868,0.14021532,-0.50253814
1747679483.3508325,0.3223386,0.7618247,0.82717097,0.055526868,0.14021532,-0.50253814
1747679483.3513515,0.3223386,0.7618247,0.82717097,0.055526868,0.14021532,-0.50253814
1747679483.3518708,0.3223386,0.7618247,0.82717097,0.055526868,0.14021532,-0.50253814
1747679483.3523896,0.3223386,0.7618247,0.82717097,0.055526868,0.14021532,-0.50253814
1747679483.3529108,0.3223386,0.7618247,0.82717097,0.055526868,0.14021532,-0.50253814
1747679483.3534305,0.3223386,0.7618247,0.82717097,0.055526868,0.14021532,-0.50253814
1747679483.3539672,0.3223386,0.7618247,0.82717097,0.055526868,0.14021532,-0.50253814
1747679483.354507,0.3223386,0.7618247,0.82717097,0.055526868,0.14021532,-0.50253814
1747679483.3550303,0.2989091,0.7789087,0.75151324,0.038482647,0.3308975,-0.54301816
1747679483.3555536,0.2989091,0.7789087,0.75151324,0.038482647,0.3308975,-0.54301816
1747679483.3560758,0.2989091,0.7789087,0.75151324,0.038482647,0.3308975,-0.54301816
1747679483.356595,0.2989091,0.7789087,0.75151324,0.038482647,0.3308975,-0.54301816
1747679483.3571136,0.2989091,0.7789087,0.75151324,0.038482647,0.3308975,-0.54301816
1747679483.357635,0.2989091,0.7789087,0.75151324,0.038482647,0.3308975,-0.54301816
1747679483.35817,0.2989091,0.7789087,0.75151324,0.038482647,0.3308975,-0.54301816
1747679483.3587215,0.2989091,0.7789087,0.75151324,0.038482647,0.3308975,-0.54301816
1747679483.3592622,0.2989091,0.7789087,0.75151324,0.038482647,0.3308975,-0.54301816
1747679483.3598075,0.2989091,0.7789087,0.75151324,0.038482647,0.3308975,-0.54301816
1747679483.3603694,0.2989091,0.7789087,0.75151324,0.038482647,0.3308975,-0.54301816
1747679483.3609262,0.2989091,0.7789087,0.75151324,0.038482647,0.3308975,-0.54301816
1747679483.361462,0.2989091,0.7789087,0.75151324,0.038482647,0.3308975,-0.54301816
1747679483.3619843,0.2989091,0.7789087,0.75151324,0.038482647,0.3308975,-0.54301816
1747679483.362506,0.2989091,0.7789087,0.75151324,0.038482647,0.3308975,-0.54301816
1747679483.3630278,0.2989091,0.7789087,0.75151324,0.038482647,0.3308975,-0.54301816
1747679483.363549,0.2989091,0.7789087,0.75151324,0.038482647,0.3308975,-0.54301816
1747679483.3640873,0.2989091,0.7789087,0.75151324,0.038482647,0.3308975,-0.54301816
1747679483.364626,0.1973813,0.7652415,0.7890981,0.019307904,0.46192494,-0.5355613
1747679483.3651493,0.1973813,0.7652415,0.7890981,0.019307904,0.46192494,-0.5355613
1747679483.365672,0.1973813,0.7652415,0.7890981,0.019307904,0.46192494,-0.5355613
1747679483.3661957,0.1973813,0.7652415,0.7890981,0.019307904,0.46192494,-0.5355613
1747679483.3667169,0.1973813,0.7652415,0.7890981,0.019307904,0.46192494,-0.5355613
1747679483.3672397,0.1973813,0.7652415,0.7890981,0.019307904,0.46192494,-0.5355613
1747679483.3677614,0.1973813,0.7652415,0.7890981,0.019307904,0.46192494,-0.5355613
1747679483.3682823,0.1973813,0.7652415,0.7890981,0.019307904,0.46192494,-0.5355613
1747679483.368804,0.1973813,0.7652415,0.7890981,0.019307904,0.46192494,-0.5355613
1747679483.3693252,0.1973813,0.7652415,0.7890981,0.019307904,0.46192494,-0.5355613
1747679483.3698463,0.1973813,0.7652415,0.7890981,0.019307904,0.46192494,-0.5355613
1747679483.370374,0.1973813,0.7652415,0.7890981,0.019307904,0.46192494,-0.5355613
1747679483.3708985,0.1973813,0.7652415,0.7890981,0.019307904,0.46192494,-0.5355613
1747679483.37142,0.1973813,0.7652415,0.7890981,0.019307904,0.46192494,-0.5355613
1747679483.371945,0.1973813,0.7652415,0.7890981,0.019307904,0.46192494,-0.5355613
1747679483.3724663,0.1973813,0.7652415,0.7890981,0.019307904,0.46192494,-0.5355613
1747679483.373888,0.1973813,0.7652415,0.7890981,0.019307904,0.46192494,-0.5355613
1747679483.3744597,0.1973813,0.7652415,0.7890981,0.09281109,0.3170491,-0.44820967
1747679483.3750205,0.1973813,0.7652415,0.7890981,0.09281109,0.3170491,-0.44820967
1747679483.3755846,0.1973813,0.7652415,0.7890981,0.09281109,0.3170491,-0.44820967
1747679483.3761475,0.1973813,0.7652415,0.7890981,0.09281109,0.3170491,-0.44820967
1747679483.376698,0.1973813,0.7652415,0.7890981,0.09281109,0.3170491,-0.44820967
1747679483.3772514,0.16272517,0.7911115,0.81350386,0.09281109,0.3170491,-0.44820967
1747679483.3778207,0.16272517,0.7911115,0.81350386,0.09281109,0.3170491,-0.44820967
1747679483.3783588,0.16272517,0.7911115,0.81350386,0.09281109,0.3170491,-0.44820967
1747679483.378894,0.16272517,0.7911115,0.81350386,0.09281109,0.3170491,-0.44820967
1747679483.3794286,0.16272517,0.7911115,0.81350386,0.09281109,0.3170491,-0.44820967
1747679483.3799627,0.16272517,0.7911115,0.81350386,0.09281109,0.3170491,-0.44820967
1747679483.3804953,0.16272517,0.7911115,0.81350386,0.09281109,0.3170491,-0.44820967
1747679483.3810277,0.16272517,0.7911115,0.81350386,0.09281109,0.3170491,-0.44820967
1747679483.3815598,0.16272517,0.7911115,0.81350386,0.09281109,0.3170491,-0.44820967
1747679483.3820918,0.16272517,0.7911115,0.81350386,0.09281109,0.3170491,-0.44820967
1747679483.3826263,0.16272517,0.7911115,0.81350386,0.09281109,0.3170491,-0.44820967
1747679483.3831844,0.16272517,0.7911115,0.81350386,0.09281109,0.3170491,-0.44820967
1747679483.383751,0.15930837,0.79794514,0.79202676,0.09281109,0.3170491,-0.44820967
1747679483.3843062,0.15930837,0.79794514,0.79202676,0.14181322,0.12849742,-0.35553175
1747679483.384833,0.15930837,0.79794514,0.79202676,0.14181322,0.12849742,-0.35553175
1747679483.3853528,0.15930837,0.79794514,0.79202676,0.14181322,0.12849742,-0.35553175
1747679483.3858733,0.15930837,0.79794514,0.79202676,0.14181322,0.12849742,-0.35553175
1747679483.3863928,0.15930837,0.79794514,0.79202676,0.14181322,0.12849742,-0.35553175
1747679483.3869114,0.15930837,0.79794514,0.79202676,0.14181322,0.12849742,-0.35553175
1747679483.3874307,0.15930837,0.79794514,0.79202676,0.14181322,0.12849742,-0.35553175
1747679483.3879495,0.15930837,0.79794514,0.79202676,0.14181322,0.12849742,-0.35553175
1747679483.3884683,0.15930837,0.79794514,0.79202676,0.14181322,0.12849742,-0.35553175
1747679483.3890197,0.15930837,0.79794514,0.79202676,0.14181322,0.12849742,-0.35553175
1747679483.3895652,0.15930837,0.79794514,0.79202676,0.14181322,0.12849742,-0.35553175
1747679483.3901107,0.22422758,0.77061075,0.79837227,0.14181322,0.12849742,-0.35553175
1747679483.3906434,0.22422758,0.77061075,0.79837227,0.14181322,0.12849742,-0.35553175
1747679483.3911638,0.22422758,0.77061075,0.79837227,0.14074796,-0.037683703,-0.28415906
1747679483.391683,0.22422758,0.77061075,0.79837227,0.14074796,-0.037683703,-0.28415906
1747679483.392204,0.22422758,0.77061075,0.79837227,0.14074796,-0.037683703,-0.28415906
1747679483.392743,0.22422758,0.77061075,0.79837227,0.14074796,-0.037683703,-0.28415906
1747679483.3933587,0.22422758,0.77061075,0.79837227,0.14074796,-0.037683703,-0.28415906
1747679483.3939116,0.22422758,0.77061075,0.79837227,0.14074796,-0.037683703,-0.28415906
1747679483.3944685,0.22422758,0.77061075,0.79837227,0.14074796,-0.037683703,-0.28415906
1747679483.3949904,0.22422758,0.77061075,0.79837227,0.14074796,-0.037683703,-0.28415906
1747679483.39551,0.22422758,0.77061075,0.79837227,0.14074796,-0.037683703,-0.28415906
1747679483.396029,0.22422758,0.77061075,0.79837227,0.14074796,-0.037683703,-0.28415906
1747679483.3965476,0.22422758,0.77061075,0.79837227,0.14074796,-0.037683703,-0.28415906
1747679483.3970659,0.22422758,0.77061075,0.79837227,0.14074796,-0.037683703,-0.28415906
1747679483.397585,0.22422758,0.77061075,0.79837227,0.14074796,-0.037683703,-0.28415906
1747679483.3981032,0.22422758,0.77061075,0.79837227,0.14074796,-0.037683703,-0.28415906
1747679483.3986228,0.22422758,0.77061075,0.79837227,0.14074796,-0.037683703,-0.28415906
