timestamp,acc_x,acc_y,acc_z,gyro_x,gyro_y,gyro_z
1747679576.688368,0.14076002,0.98196435,0.019341536,-0.22037642,0.010253162,-0.15100113
1747679576.6889222,0.0860912,0.98098814,0.04569972,-0.22037642,0.010253162,-0.15100113
1747679576.689466,0.0860912,0.98098814,0.04569972,-0.22037642,0.010253162,-0.15100113
1747679576.6899908,0.0860912,0.98098814,0.04569972,-0.22037642,0.010253162,-0.15100113
1747679576.6905098,0.0860912,0.98098814,0.04569972,-0.22037642,0.010253162,-0.15100113
1747679576.6910303,0.0860912,0.98098814,0.04569972,-0.22037642,0.010253162,-0.15100113
1747679576.6915486,0.0860912,0.98098814,0.04569972,-0.22037642,0.010253162,-0.15100113
1747679576.6920671,0.0860912,0.98098814,0.04569972,-0.22037642,0.010253162,-0.15100113
1747679576.692586,0.0860912,0.98098814,0.04569972,-0.22037642,0.010253162,-0.15100113
1747679576.6931052,0.0860912,0.98098814,0.04569972,-0.22037642,0.010253162,-0.15100113
1747679576.6936233,0.0860912,0.98098814,0.04569972,-0.22037642,0.010253162,-0.15100113
1747679576.6941447,0.0860912,0.98098814,0.04569972,-0.22037642,0.010253162,-0.15100113
1747679576.6946757,0.0860912,0.98098814,0.04569972,-0.22037642,0.010253162,-0.15100113
1747679576.6952016,0.0860912,0.98098814,0.04569972,-0.22037642,0.010253162,-0.15100113
1747679576.6957202,0.0860912,0.98098814,0.04569972,-0.22037642,0.010253162,-0.15100113
1747679576.6962385,0.0860912,0.98098814,0.04569972,-0.22037642,0.010253162,-0.15100113
1747679576.696757,0.0860912,0.98098814,0.04569972,-0.22037642,0.010253162,-0.15100113
1747679576.6972764,0.0860912,0.98098814,0.04569972,-0.22037642,0.010253162,-0.15100113
1747679576.697795,0.0860912,0.98098814,0.04569972,-0.22037642,0.010253162,-0.15100113
1747679576.6983132,0.0860912,0.98098814,0.04569972,-0.22037642,0.010253162,-0.15100113
1747679576.698831,0.0860912,0.98098814,0.04569972,-0.22037642,0.010253162,-0.15100113
1747679576.6993537,0.06559038,0.98782176,0.119893126,-0.21611536,-0.13675322,-0.105194785
1747679576.6998723,0.06559038,0.98782176,0.119893126,-0.21611536,-0.13675322,-0.105194785
1747679576.7003903,0.06559038,0.98782176,0.119893126,-0.21611536,-0.13675322,-0.105194785
1747679576.7009087,0.06559038,0.98782176,0.119893126,-0.21611536,-0.13675322,-0.105194785
1747679576.7014284,0.06559038,0.98782176,0.119893126,-0.21611536,-0.13675322,-0.105194785
1747679576.7020392,0.06559038,0.98782176,0.119893126,-0.21611536,-0.13675322,-0.105194785
1747679576.7026038,0.06559038,0.98782176,0.119893126,-0.21611536,-0.13675322,-0.105194785
1747679576.7031505,0.06559038,0.98782176,0.119893126,-0.21611536,-0.13675322,-0.105194785
1747679576.7036862,0.06559038,0.98782176,0.119893126,-0.21611536,-0.13675322,-0.105194785
1747679576.704213,0.06559038,0.98782176,0.119893126,-0.21611536,-0.13675322,-0.105194785
1747679576.7047634,0.06559038,0.98782176,0.119893126,-0.21611536,-0.13675322,-0.105194785
1747679576.705315,0.06559038,0.98782176,0.119893126,-0.21611536,-0.13675322,-0.105194785
1747679576.7058654,0.06559038,0.98782176,0.119893126,-0.21611536,-0.13675322,-0.105194785
1747679576.7064102,0.06559038,0.98782176,0.119893126,-0.21611536,-0.13675322,-0.105194785
1747679576.7069614,0.06559038,0.98782176,0.119893126,-0.21611536,-0.13675322,-0.105194785
1747679576.707507,0.06559038,0.98782176,0.119893126,-0.21611536,-0.13675322,-0.105194785
1747679576.708047,0.06559038,0.98782176,0.119893126,-0.21611536,-0.13675322,-0.105194785
1747679576.7085853,0.06559038,0.98782176,0.119893126,-0.21611536,-0.13675322,-0.105194785
1747679576.70913,0.06559038,0.98782176,0.119893126,-0.16072164,-0.25819328,-0.06684529
1747679576.7096808,0.12562847,1.0039295,0.17309761,-0.16072164,-0.25819328,-0.06684529
1747679576.7192178,0.12562847,1.0039295,0.17309761,-0.16072164,-0.25819328,-0.06684529
1747679576.7197762,0.26718166,1.0000246,0.19750333,-0.098936364,-0.2486059,-0.0988032
1747679576.7203064,0.26718166,1.0000246,0.19750333,-0.098936364,-0.2486059,-0.0988032
1747679576.7208471,0.26718166,1.0000246,0.19750333,-0.098936364,-0.2486059,-0.0988032
1747679576.7213833,0.26718166,1.0000246,0.19750333,-0.098936364,-0.2486059,-0.0988032
1747679576.7219303,0.26718166,1.0000246,0.19750333,-0.098936364,-0.2486059,-0.0988032
1747679576.7224703,0.26718166,1.0000246,0.19750333,-0.098936364,-0.2486059,-0.0988032
1747679576.7229958,0.26718166,1.0000246,0.19750333,-0.098936364,-0.2486059,-0.0988032
1747679576.7235174,0.26718166,1.0000246,0.19750333,-0.098936364,-0.2486059,-0.0988032
1747679576.7240486,0.26718166,1.0000246,0.19750333,-0.098936364,-0.2486059,-0.0988032
1747679576.724574,0.26718166,1.0000246,0.19750333,-0.098936364,-0.2486059,-0.0988032
1747679576.725093,0.26718166,1.0000246,0.19750333,-0.098936364,-0.2486059,-0.0988032
1747679576.7256126,0.26718166,1.0000246,0.19750333,-0.098936364,-0.2486059,-0.0988032
1747679576.7261305,0.26718166,1.0000246,0.19750333,-0.098936364,-0.2486059,-0.0988032
1747679576.7266486,0.26718166,1.0000246,0.19750333,-0.098936364,-0.2486059,-0.0988032
1747679576.7271667,0.26718166,1.0000246,0.19750333,-0.098936364,-0.2486059,-0.0988032
1747679576.727685,0.26718166,1.0000246,0.19750333,-0.098936364,-0.2486059,-0.0988032
1747679576.7282035,0.22813252,0.98733366,0.20043202,-0.0019973693,-0.16551533,-0.24261379
1747679576.7287219,0.22813252,0.98733366,0.20043202,-0.0019973693,-0.16551533,-0.24261379
1747679576.7292404,0.22813252,0.98733366,0.20043202,-0.0019973693,-0.16551533,-0.24261379
1747679576.7297585,0.22813252,0.98733366,0.20043202,-0.0019973693,-0.16551533,-0.24261379
1747679576.7302766,0.22813252,0.98733366,0.20043202,-0.0019973693,-0.16551533,-0.24261379
1747679576.7307956,0.22813252,0.98733366,0.20043202,-0.0019973693,-0.16551533,-0.24261379
1747679576.731314,0.22813252,0.98733366,0.20043202,-0.0019973693,-0.16551533,-0.24261379
1747679576.7318382,0.22813252,0.98733366,0.20043202,-0.0019973693,-0.16551533,-0.24261379
1747679576.732377,0.22813252,0.98733366,0.20043202,-0.0019973693,-0.16551533,-0.24261379
1747679576.7329235,0.22813252,0.98733366,0.20043202,-0.0019973693,-0.16551533,-0.24261379
1747679576.7334576,0.22813252,0.98733366,0.20043202,-0.0019973693,-0.16551533,-0.24261379
1747679576.733991,0.22813252,0.98733366,0.20043202,-0.0019973693,-0.16551533,-0.24261379
1747679576.7345762,0.22813252,0.98733366,0.20043202,-0.0019973693,-0.16551533,-0.24261379
1747679576.7351077,0.22813252,0.98733366,0.20043202,-0.0019973693,-0.16551533,-0.24261379
1747679576.7356436,0.22813252,0.98733366,0.20043202,-0.0019973693,-0.16551533,-0.24261379
1747679576.7362025,0.22813252,0.98733366,0.20043202,-0.0019973693,-0.16551533,-0.24261379
1747679576.736755,0.22813252,0.98733366,0.20043202,-0.0019973693,-0.16551533,-0.24261379
1747679576.7372918,0.22813252,0.98733366,0.20043202,-0.0019973693,-0.16551533,-0.24261379
1747679576.7378156,0.22813252,0.98733366,0.20043202,-0.0019973693,-0.16551533,-0.24261379
1747679576.7383466,0.22813252,0.98733366,0.20043202,-0.0019973693,-0.16551533,-0.24261379
1747679576.738869,0.22813252,0.98733366,0.20043202,-0.0019973693,-0.16551533,-0.24261379
1747679576.7393913,0.22813252,0.98733366,0.20043202,-0.0019973693,-0.16551533,-0.24261379
1747679576.7399127,0.22813252,0.98733366,0.20043202,-0.0019973693,-0.16551533,-0.24261379
1747679576.7404342,0.22813252,0.98733366,0.20043202,-0.0019973693,-0.16551533,-0.24261379
1747679576.7409558,0.22813252,0.98733366,0.20043202,-0.0019973693,-0.16551533,-0.24261379
1747679576.7414854,0.18224975,1.0112512,0.21214676,0.04167844,-0.12610058,-0.27563697
1747679576.7420142,0.18224975,1.0112512,0.21214676,0.04167844,-0.12610058,-0.27563697
1747679576.7425408,0.18224975,1.0112512,0.21214676,0.04167844,-0.12610058,-0.27563697
1747679576.7430668,0.18224975,1.0112512,0.21214676,0.04167844,-0.12610058,-0.27563697
1747679576.7435935,0.18224975,1.0112512,0.21214676,0.04167844,-0.12610058,-0.27563697
1747679576.744143,0.18224975,1.0112512,0.21214676,0.04167844,-0.12610058,-0.27563697
1747679576.74469,0.18224975,1.0112512,0.21214676,0.04167844,-0.12610058,-0.27563697
1747679576.7452238,0.18224975,1.0112512,0.21214676,0.04167844,-0.12610058,-0.27563697
1747679576.745759,0.18224975,1.0112512,0.21214676,0.04167844,-0.12610058,-0.27563697
1747679576.7462811,0.18224975,1.0112512,0.21214676,0.04167844,-0.12610058,-0.27563697
1747679576.746811,0.18224975,1.0112512,0.21214676,0.04167844,-0.12610058,-0.27563697
1747679576.747332,0.18224975,1.0112512,0.21214676,0.04167844,-0.12610058,-0.27563697
1747679576.7478633,0.18224975,1.0112512,0.21214676,0.04167844,-0.12610058,-0.27563697
1747679576.7483869,0.18224975,1.0112512,0.21214676,0.04167844,-0.12610058,-0.27563697
1747679576.7489116,0.18224975,1.0112512,0.21214676,0.04167844,-0.12610058,-0.27563697
1747679576.749435,0.18224975,1.0112512,0.21214676,0.04167844,-0.12610058,-0.27563697
1747679576.7499566,0.1568678,0.99953645,0.21165864,0.04167844,-0.12610058,-0.27563697
1747679576.7504783,0.1568678,0.99953645,0.21165864,0.11411637,-0.018508956,-0.30013803
1747679576.751002,0.1568678,0.99953645,0.21165864,0.11411637,-0.018508956,-0.30013803
1747679576.7515514,0.1568678,0.99953645,0.21165864,0.11411637,-0.018508956,-0.30013803
1747679576.7521055,0.1568678,0.99953645,0.21165864,0.11411637,-0.018508956,-0.30013803
1747679576.7526467,0.1568678,0.99953645,0.21165864,0.11411637,-0.018508956,-0.30013803
1747679576.753174,0.1568678,0.99953645,0.21165864,0.11411637,-0.018508956,-0.30013803
1747679576.7537088,0.1568678,0.99953645,0.21165864,0.11411637,-0.018508956,-0.30013803
1747679576.7542613,0.1568678,0.99953645,0.21165864,0.11411637,-0.018508956,-0.30013803
1747679576.754808,0.1568678,0.99953645,0.21165864,0.11411637,-0.018508956,-0.30013803
1747679576.755363,0.1568678,0.99953645,0.21165864,0.11411637,-0.018508956,-0.30013803
1747679576.7558854,0.1568678,0.99953645,0.21165864,0.11411637,-0.018508956,-0.30013803
1747679576.7564063,0.1568678,0.99953645,0.21165864,0.11411637,-0.018508956,-0.30013803
1747679576.7569273,0.1568678,0.99953645,0.21165864,0.11411637,-0.018508956,-0.30013803
1747679576.7574508,0.1568678,0.99953645,0.21165864,0.11411637,-0.018508956,-0.30013803
1747679576.757959,0.1568678,0.99953645,0.21165864,0.11411637,-0.018508956,-0.30013803
1747679576.75848,0.1568678,0.99953645,0.21165864,0.11411637,-0.018508956,-0.30013803
1747679576.7589993,0.1568678,0.99953645,0.21165864,0.11411637,-0.018508956,-0.30013803
1747679576.7595177,0.1568678,0.99953645,0.21165864,0.11411637,-0.018508956,-0.30013803
1747679576.7600358,0.1568678,0.99953645,0.21165864,0.11411637,-0.018508956,-0.30013803
1747679576.7605546,0.13490264,0.993191,0.20921808,0.11411637,-0.018508956,-0.30013803
1747679576.7610755,0.13490264,0.993191,0.20921808,0.20466378,0.06564687,-0.30866015
1747679576.7615943,0.13490264,0.993191,0.20921808,0.20466378,0.06564687,-0.30866015
1747679576.7621126,0.13490264,0.993191,0.20921808,0.20466378,0.06564687,-0.30866015
1747679576.7626727,0.13490264,0.993191,0.20921808,0.20466378,0.06564687,-0.30866015
1747679576.7632391,0.13490264,0.993191,0.20921808,0.20466378,0.06564687,-0.30866015
1747679576.763797,0.13490264,0.993191,0.20921808,0.20466378,0.06564687,-0.30866015
1747679576.7643414,0.13490264,0.993191,0.20921808,0.20466378,0.06564687,-0.30866015
1747679576.7648764,0.13490264,0.993191,0.20921808,0.20466378,0.06564687,-0.30866015
1747679576.7659438,0.13490264,0.993191,0.20921808,0.20466378,0.06564687,-0.30866015
1747679576.766511,0.13490264,0.993191,0.20921808,0.20466378,0.06564687,-0.30866015
1747679576.767075,0.13490264,0.993191,0.20921808,0.20466378,0.06564687,-0.30866015
1747679576.7676263,0.13490264,0.993191,0.20921808,0.20466378,0.06564687,-0.30866015
1747679576.7681592,0.13490264,0.993191,0.20921808,0.20466378,0.06564687,-0.30866015
1747679576.7686791,0.13490264,0.993191,0.20921808,0.20466378,0.06564687,-0.30866015
1747679576.769198,0.13490264,0.993191,0.20921808,0.20466378,0.06564687,-0.30866015
1747679576.7697165,0.13490264,0.993191,0.20921808,0.20466378,0.06564687,-0.30866015
1747679576.7702353,0.13490264,0.993191,0.20921808,0.20466378,0.06564687,-0.30866015
1747679576.7707555,0.13490264,0.993191,0.20921808,0.20466378,0.06564687,-0.30866015
1747679576.7712762,0.06022113,0.9853812,0.1828599,0.20466378,0.06564687,-0.30866015
1747679576.7717955,0.06022113,0.9853812,0.1828599,0.28668907,0.020905798,-0.29161593
1747679576.7723145,0.06022113,0.9853812,0.1828599,0.28668907,0.020905798,-0.29161593
1747679576.7728333,0.06022113,0.9853812,0.1828599,0.28668907,0.020905798,-0.29161593
1747679576.7733517,0.06022113,0.9853812,0.1828599,0.28668907,0.020905798,-0.29161593
1747679576.773873,0.06022113,0.9853812,0.1828599,0.28668907,0.020905798,-0.29161593
1747679576.7744043,0.06022113,0.9853812,0.1828599,0.28668907,0.020905798,-0.29161593
1747679576.7749305,0.06022113,0.9853812,0.1828599,0.28668907,0.020905798,-0.29161593
1747679576.775449,0.06022113,0.9853812,0.1828599,0.28668907,0.020905798,-0.29161593
1747679576.7759676,0.06022113,0.9853812,0.1828599,0.28668907,0.020905798,-0.29161593
1747679576.7764857,0.06022113,0.9853812,0.1828599,0.28668907,0.020905798,-0.29161593
1747679576.7770092,0.06022113,0.9853812,0.1828599,0.28668907,0.020905798,-0.29161593
1747679576.7775273,0.06022113,0.9853812,0.1828599,0.28668907,0.020905798,-0.29161593
1747679576.7780805,0.06022113,0.9853812,0.1828599,0.28668907,0.020905798,-0.29161593
1747679576.7786434,0.06022113,0.9853812,0.1828599,0.28668907,0.020905798,-0.29161593
1747679576.7791967,0.06022113,0.9853812,0.1828599,0.28668907,0.020905798,-0.29161593
1747679576.77973,0.06022113,0.9853812,0.1828599,0.28668907,0.020905798,-0.29161593
1747679576.7802534,0.06022113,0.9853812,0.1828599,0.28668907,0.020905798,-0.29161593
1747679576.780773,0.06022113,0.9853812,0.1828599,0.28668907,0.020905798,-0.29161593
1747679576.7812912,0.06022113,0.9853812,0.1828599,0.28668907,0.020905798,-0.29161593
1747679576.7818124,0.06022113,0.9853812,0.1828599,0.28668907,0.020905798,-0.29161593
1747679576.7823474,0.06022113,0.9853812,0.1828599,0.28668907,0.020905798,-0.29161593
1747679576.7829075,-0.0032337585,0.9951435,0.15210868,0.36125752,-0.14953639,-0.18828535
1747679576.7834527,-0.0032337585,0.9951435,0.15210868,0.36125752,-0.14953639,-0.18828535
1747679576.7839804,-0.0032337585,0.9951435,0.15210868,0.36125752,-0.14953639,-0.18828535
1747679576.7845123,-0.0032337585,0.9951435,0.15210868,0.36125752,-0.14953639,-0.18828535
1747679576.785038,-0.0032337585,0.9951435,0.15210868,0.36125752,-0.14953639,-0.18828535
1747679576.7855573,-0.0032337585,0.9951435,0.15210868,0.36125752,-0.14953639,-0.18828535
1747679576.7860756,-0.0032337585,0.9951435,0.15210868,0.36125752,-0.14953639,-0.18828535
1747679576.7865949,-0.0032337585,0.9951435,0.15210868,0.36125752,-0.14953639,-0.18828535
1747679576.7871137,-0.0032337585,0.9951435,0.15210868,0.36125752,-0.14953639,-0.18828535
1747679576.7876358,-0.010067361,1.0014889,0.102809116,0.36125752,-0.14953639,-0.18828535
1747679576.7881544,-0.010067361,1.0014889,0.102809116,0.36125752,-0.14953639,-0.18828535
1747679576.788673,-0.010067361,1.0014889,0.102809116,0.3942807,-0.24754064,-0.08175898
1747679576.7891917,-0.010067361,1.0014889,0.102809116,0.3942807,-0.24754064,-0.08175898
1747679576.7897384,-0.010067361,1.0014889,0.102809116,0.3942807,-0.24754064,-0.08175898
1747679576.7902684,-0.010067361,1.0014889,0.102809116,0.3942807,-0.24754064,-0.08175898
1747679576.7907877,-0.010067361,1.0014889,0.102809116,0.3942807,-0.24754064,-0.08175898
1747679576.791306,-0.010067361,1.0014889,0.102809116,0.3942807,-0.24754064,-0.08175898
1747679576.7918243,-0.010067361,1.0014889,0.102809116,0.3942807,-0.24754064,-0.08175898
1747679576.7923424,-0.010067361,1.0014889,0.102809116,0.3942807,-0.24754064,-0.08175898
1747679576.7928607,-0.010067361,1.0014889,0.102809116,0.3942807,-0.24754064,-0.08175898
1747679576.7934072,-0.010067361,1.0014889,0.102809116,0.3942807,-0.24754064,-0.08175898
1747679576.7939734,-0.010067361,1.0014889,0.102809116,0.3942807,-0.24754064,-0.08175898
1747679576.794528,-0.010067361,1.0014889,0.102809116,0.3942807,-0.24754064,-0.08175898
1747679576.795065,-0.010067361,1.0014889,0.102809116,0.3942807,-0.24754064,-0.08175898
1747679576.7955892,-0.010067361,1.0014889,0.102809116,0.3942807,-0.24754064,-0.08175898
1747679576.796111,-0.010067361,1.0014889,0.102809116,0.3942807,-0.24754064,-0.08175898
1747679576.7966535,-0.010067361,1.0014889,0.102809116,0.3942807,-0.24754064,-0.08175898
1747679576.797195,-0.010067361,1.0014889,0.102809116,0.3942807,-0.24754064,-0.08175898
1747679576.7977507,-0.010067361,1.0014889,0.102809116,0.3942807,-0.24754064,-0.08175898
1747679576.7983184,-0.010067361,1.0014889,0.102809116,0.3942807,-0.24754064,-0.08175898
1747679576.798888,-0.010067361,1.0014889,0.102809116,0.3942807,-0.24754064,-0.08175898
1747679576.7994375,-0.010067361,1.0014889,0.102809116,0.3942807,-0.24754064,-0.08175898
1747679576.7999704,-0.010067361,1.0014889,0.102809116,0.3942807,-0.24754064,-0.08175898
1747679576.8004904,-0.010067361,1.0014889,0.102809116,0.3942807,-0.24754064,-0.08175898
1747679576.8010087,-0.010067361,1.0014889,0.102809116,0.3942807,-0.24754064,-0.08175898
1747679576.8015313,-0.015436621,1.01418,0.034473088,0.35486594,-0.2635196,0.030093698
1747679576.8020504,-0.015436621,1.01418,0.034473088,0.35486594,-0.2635196,0.030093698
1747679576.8025684,-0.015436621,1.01418,0.034473088,0.35486594,-0.2635196,0.030093698
1747679576.8030863,-0.015436621,1.01418,0.034473088,0.35486594,-0.2635196,0.030093698
1747679576.8036077,-0.015436621,1.01418,0.034473088,0.35486594,-0.2635196,0.030093698
1747679576.8041394,-0.015436621,1.01418,0.034473088,0.35486594,-0.2635196,0.030093698
1747679576.804672,-0.015436621,1.01418,0.034473088,0.35486594,-0.2635196,0.030093698
1747679576.8051906,-0.015436621,1.01418,0.034473088,0.35486594,-0.2635196,0.030093698
1747679576.805709,-0.015436621,1.01418,0.034473088,0.35486594,-0.2635196,0.030093698
1747679576.8062267,-0.015436621,1.01418,0.034473088,0.35486594,-0.2635196,0.030093698
1747679576.8067448,-0.015436621,1.01418,0.034473088,0.35486594,-0.2635196,0.030093698
1747679576.8072653,0.025564997,1.0210135,-0.012874019,0.35486594,-0.2635196,0.030093698
1747679576.8077838,0.025564997,1.0210135,-0.012874019,0.35486594,-0.2635196,0.030093698
1747679576.8083022,0.025564997,1.0210135,-0.012874019,0.35486594,-0.2635196,0.030093698
1747679576.8088377,0.025564997,1.0210135,-0.012874019,0.2568617,-0.18682061,0.14194638
1747679576.8093705,0.025564997,1.0210135,-0.012874019,0.2568617,-0.18682061,0.14194638
1747679576.8098905,0.025564997,1.0210135,-0.012874019,0.2568617,-0.18682061,0.14194638
1747679576.810409,0.025564997,1.0210135,-0.012874019,0.2568617,-0.18682061,0.14194638
1747679576.8109272,0.025564997,1.0210135,-0.012874019,0.2568617,-0.18682061,0.14194638
1747679576.8114452,0.025564997,1.0210135,-0.012874019,0.2568617,-0.18682061,0.14194638
1747679576.8119636,0.025564997,1.0210135,-0.012874019,0.2568617,-0.18682061,0.14194638
1747679576.8124816,0.025564997,1.0210135,-0.012874019,0.2568617,-0.18682061,0.14194638
1747679576.8130026,0.025564997,1.0210135,-0.012874019,0.2568617,-0.18682061,0.14194638
1747679576.8135378,0.025564997,1.0210135,-0.012874019,0.2568617,-0.18682061,0.14194638
1747679576.814079,0.025564997,1.0210135,-0.012874019,0.2568617,-0.18682061,0.14194638
1747679576.8146126,0.025564997,1.0210135,-0.012874019,0.2568617,-0.18682061,0.14194638
1747679576.8151324,0.025564997,1.0210135,-0.012874019,0.2568617,-0.18682061,0.14194638
1747679576.8156512,0.025564997,1.0210135,-0.012874019,0.2568617,-0.18682061,0.14194638
1747679576.8161693,0.025564997,1.0210135,-0.012874019,0.2568617,-0.18682061,0.14194638
1747679576.8166873,0.025564997,1.0210135,-0.012874019,0.2568617,-0.18682061,0.14194638
1747679576.8172054,0.025564997,1.0210135,-0.012874019,0.2568617,-0.18682061,0.14194638
1747679576.8177245,0.087067425,1.031752,-0.028493684,0.12157321,-0.071772136,0.1941443
1747679576.818243,0.087067425,1.031752,-0.028493684,0.12157321,-0.071772136,0.1941443
1747679576.8187618,0.087067425,1.031752,-0.028493684,0.12157321,-0.071772136,0.1941443
1747679576.8192804,0.087067425,1.031752,-0.028493684,0.12157321,-0.071772136,0.1941443
1747679576.8198023,0.087067425,1.031752,-0.028493684,0.12157321,-0.071772136,0.1941443
1747679576.820323,0.087067425,1.031752,-0.028493684,0.12157321,-0.071772136,0.1941443
1747679576.820841,0.087067425,1.031752,-0.028493684,0.12157321,-0.071772136,0.1941443
1747679576.8213677,0.087067425,1.031752,-0.028493684,0.12157321,-0.071772136,0.1941443
1747679576.821886,0.087067425,1.031752,-0.028493684,0.12157321,-0.071772136,0.1941443
1747679576.8224044,0.087067425,1.031752,-0.028493684,0.12157321,-0.071772136,0.1941443
1747679576.8229222,0.087067425,1.031752,-0.028493684,0.12157321,-0.071772136,0.1941443
1747679576.8234403,0.087067425,1.031752,-0.028493684,0.12157321,-0.071772136,0.1941443
1747679576.8239832,0.087067425,1.031752,-0.028493684,0.12157321,-0.071772136,0.1941443
1747679576.82454,0.087067425,1.031752,-0.028493684,0.12157321,-0.071772136,0.1941443
1747679576.8250937,0.087067425,1.031752,-0.028493684,0.12157321,-0.071772136,0.1941443
1747679576.8256218,0.087067425,1.031752,-0.028493684,0.12157321,-0.071772136,0.1941443
1747679576.8261476,0.087067425,1.031752,-0.028493684,0.12157321,-0.071772136,0.1941443
1747679576.8266795,0.087067425,1.031752,-0.028493684,0.12157321,-0.071772136,0.1941443
1747679576.8272123,0.087067425,1.031752,-0.028493684,0.12157321,-0.071772136,0.1941443
1747679576.827732,0.087067425,1.031752,-0.028493684,0.12157321,-0.071772136,0.1941443
1747679576.8282573,0.087067425,1.031752,-0.028493684,-0.008388951,0.018775271,0.19627483
1747679576.828779,0.087067425,1.031752,-0.028493684,-0.008388951,0.018775271,0.19627483
1747679576.8293173,0.087067425,1.031752,-0.028493684,-0.008388951,0.018775271,0.19627483
1747679576.829871,0.087067425,1.031752,-0.028493684,-0.008388951,0.018775271,0.19627483
1747679576.830413,0.14271247,1.0537171,-0.018731393,-0.008388951,0.018775271,0.19627483
1747679576.8309393,0.14271247,1.0537171,-0.018731393,-0.008388951,0.018775271,0.19627483
1747679576.8314629,0.14271247,1.0537171,-0.018731393,-0.008388951,0.018775271,0.19627483
1747679576.8319848,0.14271247,1.0537171,-0.018731393,-0.008388951,0.018775271,0.19627483
1747679576.8325348,0.14271247,1.0537171,-0.018731393,-0.008388951,0.018775271,0.19627483
1747679576.833077,0.14271247,1.0537171,-0.018731393,-0.008388951,0.018775271,0.19627483
1747679576.8336153,0.14271247,1.0537171,-0.018731393,-0.008388951,0.018775271,0.19627483
1747679576.8341537,0.14271247,1.0537171,-0.018731393,-0.008388951,0.018775271,0.19627483
1747679576.8346798,0.14271247,1.0537171,-0.018731393,-0.008388951,0.018775271,0.19627483
1747679576.8351986,0.14271247,1.0537171,-0.018731393,-0.008388951,0.018775271,0.19627483
1747679576.8357172,0.14271247,1.0537171,-0.018731393,-0.008388951,0.018775271,0.19627483
1747679576.8362362,0.14271247,1.0537171,-0.018731393,-0.008388951,0.018775271,0.19627483
1747679576.8367543,0.14271247,1.0537171,-0.018731393,-0.008388951,0.018775271,0.19627483
1747679576.837319,0.14271247,1.0537171,-0.018731393,-0.008388951,0.018775271,0.19627483
1747679576.8378384,0.14271247,1.0537171,-0.018731393,-0.008388951,0.018775271,0.19627483
1747679576.8383567,0.14271247,1.0537171,-0.018731393,-0.008388951,0.018775271,0.19627483
1747679576.838875,0.14271247,1.0537171,-0.018731393,-0.008388951,0.018775271,0.19627483
1747679576.8394008,0.19494073,1.0668962,-0.00067115744,-0.008388951,0.018775271,0.19627483
1747679576.8399222,0.19494073,1.0668962,-0.00067115744,-0.11704584,0.07736477,0.15579481
1747679576.840449,0.19494073,1.0668962,-0.00067115744,-0.11704584,0.07736477,0.15579481
1747679576.840968,0.19494073,1.0668962,-0.00067115744,-0.11704584,0.07736477,0.15579481
1747679576.8414865,0.19494073,1.0668962,-0.00067115744,-0.11704584,0.07736477,0.15579481
1747679576.8420045,0.19494073,1.0668962,-0.00067115744,-0.11704584,0.07736477,0.15579481
1747679576.8425257,0.19494073,1.0668962,-0.00067115744,-0.11704584,0.07736477,0.15579481
1747679576.8430467,0.19494073,1.0668962,-0.00067115744,-0.11704584,0.07736477,0.15579481
1747679576.8435678,0.19494073,1.0668962,-0.00067115744,-0.11704584,0.07736477,0.15579481
1747679576.8440928,0.19494073,1.0668962,-0.00067115744,-0.11704584,0.07736477,0.15579481
1747679576.8446238,0.19494073,1.0668962,-0.00067115744,-0.11704584,0.07736477,0.15579481
1747679576.8451753,0.19494073,1.0668962,-0.00067115744,-0.11704584,0.07736477,0.15579481
1747679576.8457365,0.19494073,1.0668962,-0.00067115744,-0.11704584,0.07736477,0.15579481
1747679576.8462775,0.19494073,1.0668962,-0.00067115744,-0.11704584,0.07736477,0.15579481
1747679576.846805,0.19494073,1.0668962,-0.00067115744,-0.11704584,0.07736477,0.15579481
1747679576.8473313,0.19494073,1.0668962,-0.00067115744,-0.11704584,0.07736477,0.15579481
1747679576.847858,0.19494073,1.0668962,-0.00067115744,-0.11704584,0.07736477,0.15579481
1747679576.848387,0.19494073,1.0668962,-0.00067115744,-0.11704584,0.07736477,0.15579481
1747679576.8489215,0.19494073,1.0668962,-0.00067115744,-0.11704584,0.07736477,0.15579481
1747679576.849444,0.19494073,1.0668962,-0.00067115744,-0.11704584,0.07736477,0.15579481
1747679576.8499658,0.19494073,1.0668962,-0.00067115744,-0.11704584,0.07736477,0.15579481
1747679576.8504872,0.19494073,1.0698249,0.009091132,-0.11704584,0.07736477,0.15579481
1747679576.8510084,0.19494073,1.0698249,0.009091132,-0.11704584,0.07736477,0.15579481
1747679576.85153,0.19494073,1.0698249,0.009091132,-0.18948378,0.101865835,0.10359689
1747679576.8520513,0.19494073,1.0698249,0.009091132,-0.18948378,0.101865835,0.10359689
1747679576.8525724,0.19494073,1.0698249,0.009091132,-0.18948378,0.101865835,0.10359689
1747679576.8530931,0.19494073,1.0698249,0.009091132,-0.18948378,0.101865835,0.10359689
1747679576.8536139,0.19494073,1.0698249,0.009091132,-0.18948378,0.101865835,0.10359689
1747679576.8541658,0.19494073,1.0698249,0.009091132,-0.18948378,0.101865835,0.10359689
1747679576.8547251,0.19494073,1.0698249,0.009091132,-0.18948378,0.101865835,0.10359689
1747679576.855263,0.19494073,1.0698249,0.009091132,-0.18948378,0.101865835,0.10359689
1747679576.8557944,0.19494073,1.0698249,0.009091132,-0.18948378,0.101865835,0.10359689
1747679576.8563468,0.19494073,1.0698249,0.009091132,-0.18948378,0.101865835,0.10359689
1747679576.8568919,0.19494073,1.0698249,0.009091132,-0.18948378,0.101865835,0.10359689
1747679576.8574295,0.19494073,1.0698249,0.009091132,-0.18948378,0.101865835,0.10359689
1747679576.8579366,0.19494073,1.0698249,0.009091132,-0.18948378,0.101865835,0.10359689
1747679576.858456,0.19494073,1.0698249,0.009091132,-0.18948378,0.101865835,0.10359689
1747679576.8589745,0.14759362,1.070313,0.056438237,-0.24807326,0.11891005,0.069508456
1747679576.859493,0.14759362,1.070313,0.056438237,-0.24807326,0.11891005,0.069508456
1747679576.8600147,0.14759362,1.070313,0.056438237,-0.24807326,0.11891005,0.069508456
1747679576.860568,0.14759362,1.070313,0.056438237,-0.24807326,0.11891005,0.069508456
1747679576.8611135,0.14759362,1.070313,0.056438237,-0.24807326,0.11891005,0.069508456
1747679576.8616555,0.14759362,1.070313,0.056438237,-0.24807326,0.11891005,0.069508456
1747679576.8621752,0.14759362,1.070313,0.056438237,-0.24807326,0.11891005,0.069508456
1747679576.8626947,0.14759362,1.070313,0.056438237,-0.24807326,0.11891005,0.069508456
1747679576.8632164,0.14759362,1.070313,0.056438237,-0.24807326,0.11891005,0.069508456
1747679576.863748,0.14759362,1.070313,0.056438237,-0.24807326,0.11891005,0.069508456
1747679576.8642745,0.14759362,1.070313,0.056438237,-0.24807326,0.11891005,0.069508456
1747679576.8647933,0.14759362,1.070313,0.056438237,-0.24807326,0.11891005,0.069508456
1747679576.865312,0.14759362,1.070313,0.056438237,-0.24807326,0.11891005,0.069508456
1747679576.8658304,0.14759362,1.070313,0.056438237,-0.24807326,0.11891005,0.069508456
1747679576.866349,0.14759362,1.070313,0.056438237,-0.24807326,0.11891005,0.069508456
1747679576.8668678,0.14759362,1.070313,0.056438237,-0.24807326,0.11891005,0.069508456
1747679576.867386,0.14759362,1.070313,0.056438237,-0.24807326,0.11891005,0.069508456
1747679576.8679042,0.14759362,1.070313,0.056438237,-0.24807326,0.11891005,0.069508456
1747679576.8684225,0.14759362,1.070313,0.056438237,-0.24807326,0.11891005,0.069508456
1747679576.8689408,0.14759362,1.070313,0.056438237,-0.24807326,0.11891005,0.069508456
1747679576.8694847,0.14759362,1.070313,0.056438237,-0.24807326,0.11891005,0.069508456
1747679576.870032,0.14759362,1.070313,0.056438237,-0.24807326,0.11891005,0.069508456
1747679576.870563,0.14759362,1.070313,0.056438237,-0.24913853,0.12530163,0.049268443
1747679576.8710866,0.12660469,1.0673844,0.11305952,-0.24913853,0.12530163,0.049268443
1747679576.8716075,0.12660469,1.0673844,0.11305952,-0.24913853,0.12530163,0.049268443
1747679576.8721266,0.12660469,1.0673844,0.11305952,-0.24913853,0.12530163,0.049268443
1747679576.872645,0.12660469,1.0673844,0.11305952,-0.24913853,0.12530163,0.049268443
1747679576.873163,0.12660469,1.0673844,0.11305952,-0.24913853,0.12530163,0.049268443
1747679576.8736837,0.12660469,1.0673844,0.11305952,-0.24913853,0.12530163,0.049268443
1747679576.8742075,0.12660469,1.0673844,0.11305952,-0.24913853,0.12530163,0.049268443
1747679576.8747277,0.12660469,1.0673844,0.11305952,-0.24913853,0.12530163,0.049268443
1747679576.8752463,0.12660469,1.0673844,0.11305952,-0.24913853,0.12530163,0.049268443
1747679576.8757672,0.12660469,1.0673844,0.11305952,-0.24913853,0.12530163,0.049268443
1747679576.8763227,0.12660469,1.0673844,0.11305952,-0.24913853,0.12530163,0.049268443
1747679576.8768663,0.12660469,1.0673844,0.11305952,-0.24913853,0.12530163,0.049268443
1747679576.8773994,0.12660469,1.0673844,0.11305952,-0.24913853,0.12530163,0.049268443
1747679576.877919,0.12660469,1.0673844,0.11305952,-0.24913853,0.12530163,0.049268443
1747679576.878437,0.12660469,1.0673844,0.11305952,-0.24913853,0.12530163,0.049268443
1747679576.8789558,0.12660469,1.0673844,0.11305952,-0.24913853,0.12530163,0.049268443
1747679576.879474,0.12660469,1.0673844,0.11305952,-0.24913853,0.12530163,0.049268443
1747679576.8799922,0.12660469,1.0673844,0.11305952,-0.24913853,0.12530163,0.049268443
1747679576.8805106,0.12660469,1.0673844,0.11305952,-0.24913853,0.12530163,0.049268443
1747679576.8810287,0.12660469,1.0673844,0.11305952,-0.24913853,0.12530163,0.049268443
1747679576.8815465,0.12660469,1.0673844,0.11305952,-0.24913853,0.12530163,0.049268443
1747679576.8820648,0.12660469,1.0673844,0.11305952,-0.24913853,0.12530163,0.049268443
1747679576.882583,0.12660469,1.0673844,0.11305952,-0.24913853,0.12530163,0.049268443
1747679576.883101,0.12660469,1.0673844,0.11305952,-0.24913853,0.12530163,0.049268443
1747679576.8836193,0.12660469,1.0673844,0.11305952,-0.24913853,0.12530163,0.049268443
1747679576.884141,0.12660469,1.0673844,0.11305952,-0.24913853,0.12530163,0.049268443
1747679576.8847222,0.11830675,1.0434667,0.18188366,-0.18202692,0.09867004,0.03968107
1747679576.8852756,0.11830675,1.0434667,0.18188366,-0.18202692,0.09867004,0.03968107
1747679576.8858123,0.11830675,1.0434667,0.18188366,-0.18202692,0.09867004,0.03968107
1747679576.8863354,0.11830675,1.0434667,0.18188366,-0.18202692,0.09867004,0.03968107
1747679576.8868694,0.11830675,1.0434667,0.18188366,-0.18202692,0.09867004,0.03968107
1747679576.887402,0.11830675,1.0434667,0.18188366,-0.18202692,0.09867004,0.03968107
1747679576.8879213,0.11830675,1.0434667,0.18188366,-0.18202692,0.09867004,0.03968107
1747679576.8884404,0.11830675,1.0434667,0.18188366,-0.18202692,0.09867004,0.03968107
1747679576.8889587,0.11830675,1.0434667,0.18188366,-0.18202692,0.09867004,0.03968107
1747679576.8894768,0.11830675,1.0434667,0.18188366,-0.18202692,0.09867004,0.03968107
1747679576.8899953,0.11830675,1.0434667,0.18188366,-0.18202692,0.09867004,0.03968107
1747679576.8905134,0.11830675,1.0434667,0.18188366,-0.18202692,0.09867004,0.03968107
1747679576.8910315,0.11830675,1.0434667,0.18188366,-0.18202692,0.09867004,0.03968107
1747679576.8915524,0.11830675,1.0434667,0.18188366,-0.18202692,0.09867004,0.03968107
1747679576.8921084,0.11830675,1.0434667,0.18188366,-0.18202692,0.09867004,0.03968107
1747679576.892662,0.11830675,1.0434667,0.18188366,-0.18202692,0.09867004,0.03968107
1747679576.8931978,0.11830675,1.0434667,0.18188366,-0.18202692,0.09867004,0.03968107
1747679576.8937182,0.09780595,1.0302876,0.20482506,-0.18202692,0.09867004,0.03968107
1747679576.8942394,0.09780595,1.0302876,0.20482506,-0.03395528,0.016644744,0.035420015
1747679576.8947713,0.09780595,1.0302876,0.20482506,-0.03395528,0.016644744,0.035420015
1747679576.8952978,0.09780595,1.0302876,0.20482506,-0.03395528,0.016644744,0.035420015
1747679576.8958173,0.09780595,1.0302876,0.20482506,-0.03395528,0.016644744,0.035420015
1747679576.8963356,0.09780595,1.0302876,0.20482506,-0.03395528,0.016644744,0.035420015
1747679576.896854,0.09780595,1.0302876,0.20482506,-0.03395528,0.016644744,0.035420015
1747679576.8973725,0.09780595,1.0302876,0.20482506,-0.03395528,0.016644744,0.035420015
1747679576.8978934,0.09780595,1.0302876,0.20482506,-0.03395528,0.016644744,0.035420015
1747679576.8984146,0.09780595,1.0302876,0.20482506,-0.03395528,0.016644744,0.035420015
1747679576.8989344,0.09780595,1.0302876,0.20482506,-0.03395528,0.016644744,0.035420015
1747679576.8994725,0.09780595,1.0302876,0.20482506,-0.03395528,0.016644744,0.035420015
1747679576.9000154,0.095853485,1.0136918,0.20384881,0.105594255,-0.052597392,0.042876862
1747679576.9005394,0.095853485,1.0136918,0.20384881,0.105594255,-0.052597392,0.042876862
1747679576.9010587,0.095853485,1.0136918,0.20384881,0.105594255,-0.052597392,0.042876862
1747679576.9015772,0.095853485,1.0136918,0.20384881,0.105594255,-0.052597392,0.042876862
1747679576.9020956,0.095853485,1.0136918,0.20384881,0.105594255,-0.052597392,0.042876862
1747679576.9026134,0.095853485,1.0136918,0.20384881,0.105594255,-0.052597392,0.042876862
1747679576.9031317,0.095853485,1.0136918,0.20384881,0.105594255,-0.052597392,0.042876862
1747679576.9036531,0.095853485,1.0136918,0.20384881,0.105594255,-0.052597392,0.042876862
1747679576.9041765,0.095853485,1.0136918,0.20384881,0.105594255,-0.052597392,0.042876862
1747679576.9046965,0.095853485,1.0136918,0.20384881,0.105594255,-0.052597392,0.042876862
1747679576.9052148,0.095853485,1.0136918,0.20384881,0.105594255,-0.052597392,0.042876862
1747679576.905733,0.095853485,1.0136918,0.20384881,0.105594255,-0.052597392,0.042876862
1747679576.906251,0.095853485,1.0136918,0.20384881,0.105594255,-0.052597392,0.042876862
1747679576.906769,0.095853485,1.0136918,0.20384881,0.105594255,-0.052597392,0.042876862
1747679576.9072902,0.095853485,1.0136918,0.20384881,0.105594255,-0.052597392,0.042876862
1747679576.9078298,0.095853485,1.0136918,0.20384881,0.105594255,-0.052597392,0.042876862
1747679576.9083624,0.095853485,1.0136918,0.20384881,0.105594255,-0.052597392,0.042876862
1747679576.9088821,0.095853485,1.0136918,0.20384881,0.105594255,-0.052597392,0.042876862
1747679576.9094014,0.10463954,0.99172664,0.16821645,0.23129536,-0.10053425,0.047137916
1747679576.9099517,0.10463954,0.99172664,0.16821645,0.23129536,-0.10053425,0.047137916
1747679576.9104705,0.10463954,0.99172664,0.16821645,0.23129536,-0.10053425,0.047137916
1747679576.9109888,0.10463954,0.99172664,0.16821645,0.23129536,-0.10053425,0.047137916
1747679576.9115071,0.10463954,0.99172664,0.16821645,0.23129536,-0.10053425,0.047137916
1747679576.9120255,0.10463954,0.99172664,0.16821645,0.23129536,-0.10053425,0.047137916
1747679576.9125435,0.10463954,0.99172664,0.16821645,0.23129536,-0.10053425,0.047137916
1747679576.9130616,0.10463954,0.99172664,0.16821645,0.23129536,-0.10053425,0.047137916
1747679576.9135795,0.10463954,0.99172664,0.16821645,0.23129536,-0.10053425,0.047137916
1747679576.9141004,0.10463954,0.99172664,0.16821645,0.23129536,-0.10053425,0.047137916
1747679576.914655,0.10463954,0.99172664,0.16821645,0.23129536,-0.10053425,0.047137916
1747679576.9152124,0.10463954,0.99172664,0.16821645,0.23129536,-0.10053425,0.047137916
1747679576.9157596,0.10463954,0.99172664,0.16821645,0.23129536,-0.10053425,0.047137916
1747679576.9163008,0.10463954,0.99172664,0.16821645,0.23129536,-0.10053425,0.047137916
1747679576.9168363,0.10463954,0.99172664,0.16821645,0.23129536,-0.10053425,0.047137916
1747679576.9173589,0.10854446,0.9692733,0.109154604,0.23129536,-0.10053425,0.047137916
1747679576.91788,0.10854446,0.9692733,0.109154604,0.31119013,-0.12290479,0.049268443
1747679576.9183989,0.10854446,0.9692733,0.109154604,0.31119013,-0.12290479,0.049268443
1747679576.9189172,0.10854446,0.9692733,0.109154604,0.31119013,-0.12290479,0.049268443
1747679576.9194353,0.10854446,0.9692733,0.109154604,0.31119013,-0.12290479,0.049268443
1747679576.9199536,0.10854446,0.9692733,0.109154604,0.31119013,-0.12290479,0.049268443
1747679576.920472,0.10854446,0.9692733,0.109154604,0.31119013,-0.12290479,0.049268443
1747679576.9209898,0.10854446,0.9692733,0.109154604,0.31119013,-0.12290479,0.049268443
1747679576.9215078,0.10854446,0.9692733,0.109154604,0.31119013,-0.12290479,0.049268443
1747679576.9220257,0.10854446,0.9692733,0.109154604,0.31119013,-0.12290479,0.049268443
1747679576.9225435,0.10854446,0.9692733,0.109154604,0.31119013,-0.12290479,0.049268443
1747679576.9230645,0.10854446,0.9692733,0.109154604,0.31119013,-0.12290479,0.049268443
1747679576.9236236,0.10854446,0.9692733,0.109154604,0.31119013,-0.12290479,0.049268443
1747679576.9241734,0.10854446,0.9692733,0.109154604,0.31119013,-0.12290479,0.049268443
1747679576.9247074,0.10854446,0.9692733,0.109154604,0.31119013,-0.12290479,0.049268443
1747679576.9252305,0.10854446,0.9692733,0.109154604,0.31119013,-0.12290479,0.049268443
1747679576.9257655,0.10854446,0.9692733,0.109154604,0.31119013,-0.12290479,0.049268443
1747679576.926298,0.10854446,0.9692733,0.109154604,0.31119013,-0.12290479,0.049268443
1747679576.9268203,0.10854446,0.9692733,0.109154604,0.31119013,-0.12290479,0.049268443
1747679576.927339,0.10854446,0.9692733,0.109154604,0.31119013,-0.12290479,0.049268443
1747679576.9278586,0.099270284,0.93901026,0.037889887,0.3271691,-0.119709,0.05139897
1747679576.928378,0.099270284,0.93901026,0.037889887,0.3271691,-0.119709,0.05139897
1747679576.9288988,0.099270284,0.93901026,0.037889887,0.3271691,-0.119709,0.05139897
1747679576.9294193,0.099270284,0.93901026,0.037889887,0.3271691,-0.119709,0.05139897
1747679576.9299517,0.099270284,0.93901026,0.037889887,0.3271691,-0.119709,0.05139897
1747679576.930482,0.099270284,0.93901026,0.037889887,0.3271691,-0.119709,0.05139897
1747679576.9310017,0.099270284,0.93901026,0.037889887,0.3271691,-0.119709,0.05139897
1747679576.93152,0.099270284,0.93901026,0.037889887,0.3271691,-0.119709,0.05139897
1747679576.9320383,0.099270284,0.93901026,0.037889887,0.3271691,-0.119709,0.05139897
1747679576.9325566,0.099270284,0.93901026,0.037889887,0.3271691,-0.119709,0.05139897
1747679576.933075,0.099270284,0.93901026,0.037889887,0.3271691,-0.119709,0.05139897
1747679576.9335957,0.099270284,0.93901026,0.037889887,0.3271691,-0.119709,0.05139897
1747679576.934119,0.099270284,0.93901026,0.037889887,0.3271691,-0.119709,0.05139897
1747679576.9346392,0.099270284,0.93901026,0.037889887,0.3271691,-0.119709,0.05139897
1747679576.9351575,0.099270284,0.93901026,0.037889887,0.3271691,-0.119709,0.05139897
1747679576.9356756,0.099270284,0.93901026,0.037889887,0.3271691,-0.119709,0.05139897
1747679576.936194,0.099270284,0.93901026,0.037889887,0.3271691,-0.119709,0.05139897
1747679576.9367123,0.099270284,0.93901026,0.037889887,0.3271691,-0.119709,0.05139897
1747679576.93723,0.099270284,0.93901026,0.037889887,0.3271691,-0.119709,0.05139897
1747679576.9377508,0.099270284,0.93901026,0.037889887,0.3271691,-0.119709,0.05139897
1747679576.9382913,0.099270284,0.93901026,0.037889887,0.3271691,-0.119709,0.05139897
1747679576.9388242,0.099270284,0.93901026,0.037889887,0.3271691,-0.119709,0.05139897
1747679576.9393845,0.099270284,0.93901026,0.037889887,0.3271691,-0.119709,0.05139897
1747679576.9399056,0.084138736,0.91118777,-0.010921562,0.2920154,-0.10053425,0.06418213
1747679576.9404242,0.084138736,0.91118777,-0.010921562,0.2920154,-0.10053425,0.06418213
1747679576.9409428,0.084138736,0.91118777,-0.010921562,0.2920154,-0.10053425,0.06418213
1747679576.9414613,0.084138736,0.91118777,-0.010921562,0.2920154,-0.10053425,0.06418213
1747679576.9419794,0.084138736,0.91118777,-0.010921562,0.2920154,-0.10053425,0.06418213
1747679576.9425008,0.084138736,0.91118777,-0.010921562,0.2920154,-0.10053425,0.06418213
1747679576.943022,0.084138736,0.91118777,-0.010921562,0.2920154,-0.10053425,0.06418213
1747679576.9435432,0.084138736,0.91118777,-0.010921562,0.2920154,-0.10053425,0.06418213
1747679576.9440672,0.084138736,0.91118777,-0.010921562,0.2920154,-0.10053425,0.06418213
1747679576.9446034,0.084138736,0.91118777,-0.010921562,0.2920154,-0.10053425,0.06418213
1747679576.9451606,0.084138736,0.91118777,-0.010921562,0.2920154,-0.10053425,0.06418213
1747679576.9457176,0.084138736,0.91118777,-0.010921562,0.2920154,-0.10053425,0.06418213
1747679576.9462552,0.084138736,0.91118777,-0.010921562,0.2920154,-0.10053425,0.06418213
1747679576.9467936,0.084138736,0.91118777,-0.010921562,0.2920154,-0.10053425,0.06418213
1747679576.9473288,0.084138736,0.91118777,-0.010921562,0.2920154,-0.10053425,0.06418213
1747679576.947851,0.084138736,0.91118777,-0.010921562,0.2920154,-0.10053425,0.06418213
1747679576.9483721,0.084138736,0.91118777,-0.010921562,0.2920154,-0.10053425,0.06418213
1747679576.9488928,0.084138736,0.91118777,-0.010921562,0.2920154,-0.10053425,0.06418213
1747679576.9494143,0.084138736,0.91118777,-0.010921562,0.2920154,-0.10053425,0.06418213
1747679576.9499352,0.084138736,0.91118777,-0.010921562,0.2920154,-0.10053425,0.06418213
1747679576.9504561,0.084138736,0.91118777,-0.010921562,0.2920154,-0.10053425,0.06418213
1747679576.9509778,0.084138736,0.91118777,-0.010921562,0.2920154,-0.10053425,0.06418213
1747679576.951499,0.084138736,0.91118777,-0.010921562,0.2920154,-0.10053425,0.06418213
1747679576.9520206,0.08657931,0.8809247,-0.03825597,0.23768695,-0.09733847,0.08442214
1747679576.9525425,0.08657931,0.8809247,-0.03825597,0.23768695,-0.09733847,0.08442214
1747679576.953064,0.08657931,0.8809247,-0.03825597,0.23768695,-0.09733847,0.08442214
1747679576.9535882,0.08657931,0.8809247,-0.03825597,0.23768695,-0.09733847,0.08442214
1747679576.954147,0.08657931,0.8809247,-0.03825597,0.23768695,-0.09733847,0.08442214
1747679576.9546902,0.08657931,0.8809247,-0.03825597,0.23768695,-0.09733847,0.08442214
1747679576.9552135,0.08657931,0.8809247,-0.03825597,0.23768695,-0.09733847,0.08442214
1747679576.955735,0.08657931,0.8809247,-0.03825597,0.23768695,-0.09733847,0.08442214
1747679576.9562562,0.08657931,0.8809247,-0.03825597,0.23768695,-0.09733847,0.08442214
1747679576.9567773,0.08657931,0.8809247,-0.03825597,0.23768695,-0.09733847,0.08442214
1747679576.9573007,0.08657931,0.8809247,-0.03825597,0.23768695,-0.09733847,0.08442214
1747679576.9578128,0.08657931,0.8809247,-0.03825597,0.23768695,-0.09733847,0.08442214
1747679576.9583378,0.08657931,0.8809247,-0.03825597,0.23768695,-0.09733847,0.08442214
1747679576.9588604,0.08657931,0.8809247,-0.03825597,0.23768695,-0.09733847,0.08442214
1747679576.9593823,0.08657931,0.8809247,-0.03825597,0.23768695,-0.09733847,0.08442214
1747679576.959904,0.08657931,0.8809247,-0.03825597,0.23768695,-0.09733847,0.08442214
1747679576.9604504,0.08657931,0.8809247,-0.03825597,0.23768695,-0.09733847,0.08442214
1747679576.9609973,0.08657931,0.8809247,-0.03825597,0.23768695,-0.09733847,0.08442214
1747679576.9615226,0.08657931,0.8809247,-0.03825597,0.23768695,-0.09733847,0.08442214
1747679576.962046,0.08657931,0.8809247,-0.03825597,0.23768695,-0.09733847,0.08442214
1747679576.9625847,0.08657931,0.8809247,-0.03825597,0.23768695,-0.09733847,0.08442214
1747679576.9631186,0.08657931,0.8809247,-0.03825597,0.23768695,-0.09733847,0.08442214
1747679576.9636507,0.11196126,0.8614,-0.051435065,0.23768695,-0.09733847,0.08442214
1747679576.9641824,0.11196126,0.8614,-0.051435065,0.23768695,-0.09733847,0.08442214
1747679576.9647074,0.11196126,0.8614,-0.051435065,0.20146799,-0.11757848,0.09294425
1747679576.9652297,0.11196126,0.8614,-0.051435065,0.20146799,-0.11757848,0.09294425
1747679576.9657528,0.11196126,0.8614,-0.051435065,0.20146799,-0.11757848,0.09294425
1747679576.9662747,0.11196126,0.8614,-0.051435065,0.20146799,-0.11757848,0.09294425
1747679576.9667966,0.11196126,0.8614,-0.051435065,0.20146799,-0.11757848,0.09294425
1747679576.967318,0.11196126,0.8614,-0.051435065,0.20146799,-0.11757848,0.09294425
1747679576.9678397,0.11196126,0.8614,-0.051435065,0.20146799,-0.11757848,0.09294425
1747679576.9683614,0.11196126,0.8614,-0.051435065,0.20146799,-0.11757848,0.09294425
1747679576.9688833,0.11196126,0.8614,-0.051435065,0.20146799,-0.11757848,0.09294425
1747679576.9694076,0.11196126,0.8614,-0.051435065,0.20146799,-0.11757848,0.09294425
1747679576.9699442,0.11196126,0.8614,-0.051435065,0.20146799,-0.11757848,0.09294425
1747679576.970503,0.11196126,0.8614,-0.051435065,0.20146799,-0.11757848,0.09294425
1747679576.9710617,0.11196126,0.8614,-0.051435065,0.20146799,-0.11757848,0.09294425
1747679576.9715905,0.11196126,0.8614,-0.051435065,0.20146799,-0.11757848,0.09294425
1747679576.9721134,0.13441454,0.81307673,-0.05533998,0.13009532,-0.17510271,0.08229162
1747679576.9726365,0.13441454,0.81307673,-0.05533998,0.13009532,-0.17510271,0.08229162
1747679576.973196,0.13441454,0.81307673,-0.05533998,0.13009532,-0.17510271,0.08229162
1747679576.9737291,0.13441454,0.81307673,-0.05533998,0.13009532,-0.17510271,0.08229162
1747679576.974266,0.13441454,0.81307673,-0.05533998,0.13009532,-0.17510271,0.08229162
1747679576.9747899,0.13441454,0.81307673,-0.05533998,0.13009532,-0.17510271,0.08229162
1747679576.9753118,0.13441454,0.81307673,-0.05533998,0.13009532,-0.17510271,0.08229162
1747679576.9758756,0.13441454,0.81307673,-0.05533998,0.13009532,-0.17510271,0.08229162
1747679576.97643,0.13441454,0.81307673,-0.05533998,0.13009532,-0.17510271,0.08229162
1747679576.9769647,0.13441454,0.81307673,-0.05533998,0.13009532,-0.17510271,0.08229162
1747679576.9774933,0.13441454,0.81307673,-0.05533998,0.13009532,-0.17510271,0.08229162
1747679576.9780278,0.13441454,0.81307673,-0.05533998,0.13009532,-0.17510271,0.08229162
1747679576.9785602,0.13441454,0.81307673,-0.05533998,0.13009532,-0.17510271,0.08229162
1747679576.9790797,0.13441454,0.81307673,-0.05533998,0.13009532,-0.17510271,0.08229162
1747679576.9795983,0.13441454,0.81307673,-0.05533998,0.13009532,-0.17510271,0.08229162
1747679576.9801168,0.13441454,0.81307673,-0.05533998,0.13009532,-0.17510271,0.08229162
1747679576.980636,0.11781863,0.7750038,-0.05533998,0.13009532,-0.17510271,0.08229162
1747679576.9811554,0.11781863,0.7750038,-0.05533998,0.08109319,-0.21558273,0.089748465
1747679576.981674,0.11781863,0.7750038,-0.05533998,0.08109319,-0.21558273,0.089748465
1747679576.9821928,0.11781863,0.7750038,-0.05533998,0.08109319,-0.21558273,0.089748465
1747679576.9827116,0.11781863,0.7750038,-0.05533998,0.08109319,-0.21558273,0.089748465
1747679576.9832299,0.11781863,0.7750038,-0.05533998,0.08109319,-0.21558273,0.089748465
1747679576.9837484,0.11781863,0.7750038,-0.05533998,0.08109319,-0.21558273,0.089748465
1747679576.9842699,0.11781863,0.7750038,-0.05533998,0.08109319,-0.21558273,0.089748465
1747679576.9848013,0.11781863,0.7750038,-0.05533998,0.08109319,-0.21558273,0.089748465
1747679576.9853303,0.11781863,0.7750038,-0.05533998,0.08109319,-0.21558273,0.089748465
1747679576.985885,0.11781863,0.7750038,-0.05533998,0.08109319,-0.21558273,0.089748465
1747679576.986428,0.11781863,0.7750038,-0.05533998,0.08109319,-0.21558273,0.089748465
1747679576.9869611,0.11781863,0.7750038,-0.05533998,0.08109319,-0.21558273,0.089748465
1747679576.9874816,0.11781863,0.7750038,-0.05533998,0.08109319,-0.21558273,0.089748465
1747679576.9880002,0.11781863,0.7750038,-0.05533998,0.08109319,-0.21558273,0.089748465
1747679576.9885187,0.11781863,0.7750038,-0.05533998,0.08109319,-0.21558273,0.089748465
1747679576.9890373,0.11781863,0.7750038,-0.05533998,0.08109319,-0.21558273,0.089748465
1747679576.989556,0.11781863,0.7750038,-0.05533998,0.08109319,-0.21558273,0.089748465
1747679576.9900742,0.11781863,0.7750038,-0.05533998,0.08109319,-0.21558273,0.089748465
1747679576.9905925,0.11781863,0.7750038,-0.05533998,0.08109319,-0.21558273,0.089748465
1747679576.9911592,0.11781863,0.7750038,-0.05533998,0.08109319,-0.21558273,0.089748465
1747679576.9917026,0.11781863,0.7750038,-0.05533998,0.08109319,-0.21558273,0.089748465
1747679576.9922278,0.12514035,0.7349784,-0.047042035,0.08109319,-0.21558273,0.089748465
1747679576.9927478,0.12514035,0.7349784,-0.047042035,0.031025803,-0.25819328,0.13022847
1747679576.9932666,0.12514035,0.7349784,-0.047042035,0.031025803,-0.25819328,0.13022847
1747679576.9937878,0.12514035,0.7349784,-0.047042035,0.031025803,-0.25819328,0.13022847
1747679576.9943192,0.12514035,0.7349784,-0.047042035,0.031025803,-0.25819328,0.13022847
1747679576.9948452,0.12514035,0.7349784,-0.047042035,0.031025803,-0.25819328,0.13022847
1747679576.9953635,0.12514035,0.7349784,-0.047042035,0.031025803,-0.25819328,0.13022847
1747679576.995882,0.12514035,0.7349784,-0.047042035,0.031025803,-0.25819328,0.13022847
1747679576.9964,0.12514035,0.7349784,-0.047042035,0.031025803,-0.25819328,0.13022847
1747679576.9969182,0.12514035,0.7349784,-0.047042035,0.031025803,-0.25819328,0.13022847
1747679576.9974368,0.12514035,0.7349784,-0.047042035,0.031025803,-0.25819328,0.13022847
1747679576.997955,0.12514035,0.7349784,-0.047042035,0.031025803,-0.25819328,0.13022847
1747679576.9984763,0.14612928,0.7125251,-0.035327286,0.00972053,-0.30613014,0.16644745
1747679576.9989953,0.14612928,0.7125251,-0.035327286,0.00972053,-0.30613014,0.16644745
1747679576.9995139,0.14612928,0.7125251,-0.035327286,0.00972053,-0.30613014,0.16644745
1747679577.0000331,0.14612928,0.7125251,-0.035327286,0.00972053,-0.30613014,0.16644745
1747679577.0005543,0.14612928,0.7125251,-0.035327286,0.00972053,-0.30613014,0.16644745
1747679577.0010962,0.14612928,0.7125251,-0.035327286,0.00972053,-0.30613014,0.16644745
1747679577.0016303,0.14612928,0.7125251,-0.035327286,0.00972053,-0.30613014,0.16644745
1747679577.00215,0.14612928,0.7125251,-0.035327286,0.00972053,-0.30613014,0.16644745
1747679577.0026689,0.14612928,0.7125251,-0.035327286,0.00972053,-0.30613014,0.16644745
1747679577.0031872,0.14612928,0.7125251,-0.035327286,0.00972053,-0.30613014,0.16644745
1747679577.0037055,0.14612928,0.7125251,-0.035327286,0.00972053,-0.30613014,0.16644745
1747679577.004227,0.14612928,0.7125251,-0.035327286,0.00972053,-0.30613014,0.16644745
1747679577.0047586,0.14612928,0.7125251,-0.035327286,0.00972053,-0.30613014,0.16644745
1747679577.0052845,0.14612928,0.7125251,-0.035327286,0.00972053,-0.30613014,0.16644745
1747679577.0058033,0.14612928,0.7125251,-0.035327286,0.00972053,-0.30613014,0.16644745
1747679577.006437,0.14612928,0.7125251,-0.035327286,0.00972053,-0.30613014,0.16644745
1747679577.0069878,0.14612928,0.7125251,-0.035327286,0.00972053,-0.30613014,0.16644745
1747679577.007515,0.14612928,0.7125251,-0.035327286,0.00972053,-0.30613014,0.16644745
1747679577.008047,0.14612928,0.7125251,-0.035327286,0.00972053,-0.30613014,0.16644745
1747679577.0085797,0.14612928,0.7125251,-0.035327286,0.00972053,-0.30613014,0.16644745
1747679577.0091,0.14612928,0.7125251,-0.035327286,0.00972053,-0.30613014,0.16644745
1747679577.0096188,0.14612928,0.7125251,-0.035327286,0.00972053,-0.30613014,0.16644745
1747679577.010138,0.15491533,0.6837264,-0.020683851,0.00013315796,-0.35513225,0.20905799
1747679577.0106635,0.15491533,0.6837264,-0.020683851,0.00013315796,-0.35513225,0.20905799
1747679577.0112224,0.15491533,0.6837264,-0.020683851,0.00013315796,-0.35513225,0.20905799
1747679577.0117407,0.15491533,0.6837264,-0.020683851,0.00013315796,-0.35513225,0.20905799
1747679577.012259,0.15491533,0.6837264,-0.020683851,0.00013315796,-0.35513225,0.20905799
1747679577.0127773,0.15491533,0.6837264,-0.020683851,0.00013315796,-0.35513225,0.20905799
1747679577.0132983,0.15491533,0.6837264,-0.020683851,0.00013315796,-0.35513225,0.20905799
1747679577.0138297,0.15491533,0.6837264,-0.020683851,0.00013315796,-0.35513225,0.20905799
1747679577.0143557,0.15491533,0.6837264,-0.020683851,0.00013315796,-0.35513225,0.20905799
1747679577.0148745,0.15491533,0.6837264,-0.020683851,0.00013315796,-0.35513225,0.20905799
1747679577.0153925,0.15491533,0.6837264,-0.020683851,0.00013315796,-0.35513225,0.20905799
1747679577.0159109,0.15491533,0.6837264,-0.020683851,0.00013315796,-0.35513225,0.20905799
1747679577.016432,0.15491533,0.6837264,-0.020683851,0.00013315796,-0.35513225,0.20905799
1747679577.016987,0.15491533,0.6837264,-0.020683851,0.00013315796,-0.35513225,0.20905799
1747679577.0175362,0.15491533,0.6837264,-0.020683851,0.00013315796,-0.35513225,0.20905799
1747679577.018068,0.16272517,0.6524871,-0.005064188,0.00013315796,-0.35513225,0.20905799
1747679577.0185878,0.16272517,0.6524871,-0.005064188,0.00013315796,-0.35513225,0.20905799
1747679577.019107,0.16272517,0.6524871,-0.005064188,0.0075900033,-0.40306914,0.25060326
1747679577.0196257,0.16272517,0.6524871,-0.005064188,0.0075900033,-0.40306914,0.25060326
1747679577.0201442,0.16272517,0.6524871,-0.005064188,0.0075900033,-0.40306914,0.25060326
1747679577.0206625,0.16272517,0.6524871,-0.005064188,0.0075900033,-0.40306914,0.25060326
1747679577.0211809,0.16272517,0.6524871,-0.005064188,0.0075900033,-0.40306914,0.25060326
1747679577.021734,0.16272517,0.6524871,-0.005064188,0.0075900033,-0.40306914,0.25060326
1747679577.0222864,0.16272517,0.6524871,-0.005064188,0.0075900033,-0.40306914,0.25060326
1747679577.0228193,0.16272517,0.6524871,-0.005064188,0.0075900033,-0.40306914,0.25060326
1747679577.023342,0.16272517,0.6524871,-0.005064188,0.0075900033,-0.40306914,0.25060326
1747679577.0238733,0.16272517,0.6524871,-0.005064188,0.0075900033,-0.40306914,0.25060326
1747679577.024399,0.16272517,0.6524871,-0.005064188,0.0075900033,-0.40306914,0.25060326
1747679577.0249178,0.16272517,0.6524871,-0.005064188,0.0075900033,-0.40306914,0.25060326
1747679577.0254362,0.16272517,0.6524871,-0.005064188,0.0075900033,-0.40306914,0.25060326
1747679577.0259542,0.16272517,0.6524871,-0.005064188,0.0075900033,-0.40306914,0.25060326
1747679577.026472,0.16272517,0.6524871,-0.005064188,0.0075900033,-0.40306914,0.25060326
1747679577.0269911,0.16711819,0.6197834,-0.007992875,0.0075900033,-0.40306914,0.25060326
1747679577.0275097,0.16711819,0.6197834,-0.007992875,0.0075900033,-0.40306914,0.25060326
1747679577.0280285,0.16711819,0.6197834,-0.007992875,0.03315633,-0.49574706,0.3198454
1747679577.0285468,0.16711819,0.6197834,-0.007992875,0.03315633,-0.49574706,0.3198454
1747679577.0290647,0.16711819,0.6197834,-0.007992875,0.03315633,-0.49574706,0.3198454
1747679577.0295835,0.16711819,0.6197834,-0.007992875,0.03315633,-0.49574706,0.3198454
1747679577.0301015,0.16711819,0.6197834,-0.007992875,0.03315633,-0.49574706,0.3198454
1747679577.03062,0.16711819,0.6197834,-0.007992875,0.03315633,-0.49574706,0.3198454
1747679577.0311384,0.16711819,0.6197834,-0.007992875,0.03315633,-0.49574706,0.3198454
1747679577.0316565,0.16711819,0.6197834,-0.007992875,0.03315633,-0.49574706,0.3198454
1747679577.0321774,0.16711819,0.6197834,-0.007992875,0.03315633,-0.49574706,0.3198454
1747679577.0327172,0.16711819,0.6197834,-0.007992875,0.03315633,-0.49574706,0.3198454
1747679577.0332503,0.16711819,0.6197834,-0.007992875,0.03315633,-0.49574706,0.3198454
1747679577.0337725,0.16711819,0.6197834,-0.007992875,0.03315633,-0.49574706,0.3198454
1747679577.034304,0.16711819,0.6197834,-0.007992875,0.03315633,-0.49574706,0.3198454
1747679577.03483,0.16711819,0.6197834,-0.007992875,0.03315633,-0.49574706,0.3198454
1747679577.0353484,0.16711819,0.6197834,-0.007992875,0.03315633,-0.49574706,0.3198454
1747679577.0358672,0.16711819,0.6197834,-0.007992875,0.03315633,-0.49574706,0.3198454
1747679577.0363855,0.16711819,0.6197834,-0.007992875,0.03315633,-0.49574706,0.3198454
1747679577.0369353,0.16711819,0.6197834,-0.007992875,0.03315633,-0.49574706,0.3198454
1747679577.0374951,0.16711819,0.6197834,-0.007992875,0.03315633,-0.49574706,0.3198454
1747679577.0396113,0.15491533,0.5719482,-0.023124425,0.051265813,-0.5490103,0.3997402
1747679577.0401738,0.15491533,0.5719482,-0.023124425,0.051265813,-0.5490103,0.3997402
1747679577.040702,0.15491533,0.5719482,-0.023124425,0.051265813,-0.5490103,0.3997402
1747679577.041222,0.15491533,0.5719482,-0.023124425,0.051265813,-0.5490103,0.3997402
1747679577.0417457,0.15491533,0.5719482,-0.023124425,0.051265813,-0.5490103,0.3997402
1747679577.042269,0.15491533,0.5719482,-0.023124425,0.051265813,-0.5490103,0.3997402
1747679577.0427907,0.15491533,0.5719482,-0.023124425,0.051265813,-0.5490103,0.3997402
1747679577.0433118,0.15491533,0.5719482,-0.023124425,0.051265813,-0.5490103,0.3997402
1747679577.0438485,0.15491533,0.5719482,-0.023124425,0.051265813,-0.5490103,0.3997402
1747679577.044391,0.15491533,0.5719482,-0.023124425,0.051265813,-0.5490103,0.3997402
1747679577.0449164,0.15491533,0.5719482,-0.023124425,0.051265813,-0.5490103,0.3997402
1747679577.0454385,0.15491533,0.5719482,-0.023124425,0.051265813,-0.5490103,0.3997402
1747679577.0459602,0.15491533,0.5719482,-0.023124425,0.051265813,-0.5490103,0.3997402
1747679577.0464818,0.15491533,0.5719482,-0.023124425,0.051265813,-0.5490103,0.3997402
1747679577.0470073,0.15491533,0.5719482,-0.023124425,0.051265813,-0.5490103,0.3997402
1747679577.0475304,0.15491533,0.5719482,-0.023124425,0.051265813,-0.5490103,0.3997402
1747679577.048064,0.15491533,0.5719482,-0.023124425,0.052331075,-0.59907764,0.51159286
1747679577.0487854,0.1505223,0.5182556,-0.030934256,0.052331075,-0.59907764,0.51159286
1747679577.0493379,0.1505223,0.5182556,-0.030934256,0.052331075,-0.59907764,0.51159286
1747679577.0498738,0.1505223,0.5182556,-0.030934256,0.052331075,-0.59907764,0.51159286
1747679577.050397,0.1505223,0.5182556,-0.030934256,0.052331075,-0.59907764,0.51159286
1747679577.0509183,0.1505223,0.5182556,-0.030934256,0.052331075,-0.59907764,0.51159286
1747679577.0514395,0.1505223,0.5182556,-0.030934256,0.052331075,-0.59907764,0.51159286
1747679577.0519612,0.1505223,0.5182556,-0.030934256,0.052331075,-0.59907764,0.51159286
1747679577.0525198,0.1505223,0.5182556,-0.030934256,0.052331075,-0.59907764,0.51159286
1747679577.053887,0.1505223,0.5182556,-0.030934256,0.052331075,-0.59907764,0.51159286
1747679577.0544367,0.1505223,0.5182556,-0.030934256,0.052331075,-0.59907764,0.51159286
1747679577.0549643,0.1505223,0.5182556,-0.030934256,0.052331075,-0.59907764,0.51159286
1747679577.0554862,0.1505223,0.5182556,-0.030934256,0.052331075,-0.59907764,0.51159286
1747679577.0560489,0.1505223,0.5182556,-0.030934256,0.052331075,-0.59907764,0.51159286
1747679577.0565717,0.1505223,0.5182556,-0.030934256,0.052331075,-0.59907764,0.51159286
1747679577.0570931,0.1505223,0.5182556,-0.030934256,0.052331075,-0.59907764,0.51159286
1747679577.0581052,0.1505223,0.5182556,-0.030934256,0.052331075,-0.59907764,0.51159286
1747679577.058632,0.1466174,0.47334903,-0.03874409,0.043808967,-0.6470145,0.66072977
1747679577.0591557,0.1466174,0.47334903,-0.03874409,0.043808967,-0.6470145,0.66072977
1747679577.0596757,0.1466174,0.47334903,-0.03874409,0.043808967,-0.6470145,0.66072977
1747679577.0601943,0.1466174,0.47334903,-0.03874409,0.043808967,-0.6470145,0.66072977
1747679577.0607133,0.1466174,0.47334903,-0.03874409,0.043808967,-0.6470145,0.66072977
1747679577.0612316,0.1466174,0.47334903,-0.03874409,0.043808967,-0.6470145,0.66072977
1747679577.06175,0.1466174,0.47334903,-0.03874409,0.043808967,-0.6470145,0.66072977
1747679577.062269,0.1466174,0.47334903,-0.03874409,0.043808967,-0.6470145,0.66072977
1747679577.0627875,0.1466174,0.47334903,-0.03874409,0.043808967,-0.6470145,0.66072977
1747679577.0633109,0.1466174,0.47334903,-0.03874409,0.043808967,-0.6470145,0.66072977
1747679577.0638626,0.1466174,0.47334903,-0.03874409,0.043808967,-0.6470145,0.66072977
1747679577.0644214,0.1466174,0.47334903,-0.03874409,0.043808967,-0.6470145,0.66072977
1747679577.064969,0.1466174,0.47334903,-0.03874409,0.043808967,-0.6470145,0.66072977
1747679577.0654943,0.1466174,0.47334903,-0.03874409,0.043808967,-0.6470145,0.66072977
1747679577.066014,0.1466174,0.47334903,-0.03874409,0.043808967,-0.6470145,0.66072977
1747679577.0665326,0.1466174,0.47334903,-0.03874409,0.043808967,-0.6470145,0.66072977
1747679577.0670526,0.1466174,0.47334903,-0.03874409,0.043808967,-0.6470145,0.66072977
1747679577.0677469,0.1466174,0.47334903,-0.03874409,0.043808967,-0.6470145,0.66072977
1747679577.0683036,0.1466174,0.47334903,-0.03874409,0.043808967,-0.6470145,0.66072977
1747679577.068846,0.1466174,0.47334903,-0.03874409,0.043808967,-0.6470145,0.66072977
1747679577.0694273,0.1466174,0.47334903,-0.03874409,0.043808967,-0.6470145,0.66072977
1747679577.0699863,0.14808173,0.3947626,-0.05241129,0.011851058,-0.6757766,0.85247725
1747679577.0705135,0.14808173,0.3947626,-0.05241129,0.011851058,-0.6757766,0.85247725
1747679577.071034,0.14808173,0.3947626,-0.05241129,0.011851058,-0.6757766,0.85247725
1747679577.0715532,0.14808173,0.3947626,-0.05241129,0.011851058,-0.6757766,0.85247725
1747679577.0720725,0.14808173,0.3947626,-0.05241129,0.011851058,-0.6757766,0.85247725
1747679577.0725915,0.14808173,0.3947626,-0.05241129,0.011851058,-0.6757766,0.85247725
1747679577.0731106,0.14808173,0.3947626,-0.05241129,0.011851058,-0.6757766,0.85247725
1747679577.0736427,0.14808173,0.3947626,-0.05241129,0.011851058,-0.6757766,0.85247725
1747679577.0741808,0.14808173,0.3947626,-0.05241129,0.011851058,-0.6757766,0.85247725
1747679577.074704,0.14808173,0.3947626,-0.05241129,0.011851058,-0.6757766,0.85247725
1747679577.0752232,0.14808173,0.3947626,-0.05241129,0.011851058,-0.6757766,0.85247725
1747679577.0757418,0.14808173,0.3947626,-0.05241129,0.011851058,-0.6757766,0.85247725
1747679577.0762606,0.14808173,0.3947626,-0.05241129,0.011851058,-0.6757766,0.85247725
1747679577.0767791,0.14808173,0.3947626,-0.05241129,0.011851058,-0.6757766,0.85247725
1747679577.077298,0.14808173,0.3947626,-0.05241129,0.011851058,-0.6757766,0.85247725
1747679577.0778162,0.14808173,0.3947626,-0.05241129,0.011851058,-0.6757766,0.85247725
1747679577.078335,0.14808173,0.3947626,-0.05241129,0.011851058,-0.6757766,0.85247725
1747679577.0788536,0.14808173,0.3947626,-0.05241129,0.011851058,-0.6757766,0.85247725
1747679577.0793765,0.14808173,0.3947626,-0.05241129,0.011851058,-0.6757766,0.85247725
1747679577.0799289,0.14808173,0.3947626,-0.05241129,0.011851058,-0.6757766,0.85247725
1747679577.0804787,0.14808173,0.3947626,-0.05241129,0.011851058,-0.6757766,0.85247725
1747679577.081012,0.14808173,0.3947626,-0.05241129,0.011851058,-0.6757766,0.85247725
1747679577.0815363,0.14808173,0.3947626,-0.05241129,0.011851058,-0.6757766,0.85247725
1747679577.082113,0.14808173,0.3947626,-0.05241129,0.011851058,-0.6757766,0.85247725
1747679577.0826616,0.14808173,0.3947626,-0.05241129,0.011851058,-0.6757766,0.85247725
1747679577.0832384,0.15540345,0.306902,-0.04313712,-0.03502054,-0.6768419,1.0825741
1747679577.0838006,0.15540345,0.306902,-0.04313712,-0.03502054,-0.6768419,1.0825741
1747679577.0843427,0.15540345,0.306902,-0.04313712,-0.03502054,-0.6768419,1.0825741
1747679577.0848672,0.15540345,0.306902,-0.04313712,-0.03502054,-0.6768419,1.0825741
1747679577.085387,0.15540345,0.306902,-0.04313712,-0.03502054,-0.6768419,1.0825741
1747679577.085906,0.15540345,0.306902,-0.04313712,-0.03502054,-0.6768419,1.0825741
1747679577.0864246,0.15540345,0.306902,-0.04313712,-0.03502054,-0.6768419,1.0825741
1747679577.0869431,0.15540345,0.306902,-0.04313712,-0.03502054,-0.6768419,1.0825741
1747679577.087462,0.15540345,0.306902,-0.04313712,-0.03502054,-0.6768419,1.0825741
1747679577.0879803,0.15540345,0.306902,-0.04313712,-0.03502054,-0.6768419,1.0825741
1747679577.0885038,0.15540345,0.306902,-0.04313712,-0.03502054,-0.6768419,1.0825741
1747679577.089046,0.15540345,0.306902,-0.04313712,-0.03502054,-0.6768419,1.0825741
1747679577.0895693,0.15540345,0.306902,-0.04313712,-0.03502054,-0.6768419,1.0825741
1747679577.090092,0.15540345,0.306902,-0.04313712,-0.03502054,-0.6768419,1.0825741
1747679577.090613,0.15540345,0.306902,-0.04313712,-0.03502054,-0.6768419,1.0825741
1747679577.091136,0.18224975,0.22538687,-0.032886714,-0.03502054,-0.6768419,1.0825741
1747679577.0916572,0.18224975,0.22538687,-0.032886714,-0.03502054,-0.6768419,1.0825741
1747679577.0921793,0.18224975,0.22538687,-0.032886714,-0.07869635,-0.66299343,1.2977574
1747679577.092699,0.18224975,0.22538687,-0.032886714,-0.07869635,-0.66299343,1.2977574
1747679577.0932207,0.18224975,0.22538687,-0.032886714,-0.07869635,-0.66299343,1.2977574
1747679577.093741,0.18224975,0.22538687,-0.032886714,-0.07869635,-0.66299343,1.2977574
1747679577.0942667,0.18224975,0.22538687,-0.032886714,-0.07869635,-0.66299343,1.2977574
1747679577.0948188,0.18224975,0.22538687,-0.032886714,-0.07869635,-0.66299343,1.2977574
1747679577.0953653,0.18224975,0.22538687,-0.032886714,-0.07869635,-0.66299343,1.2977574
1747679577.095899,0.18224975,0.22538687,-0.032886714,-0.07869635,-0.66299343,1.2977574
1747679577.0964224,0.18224975,0.22538687,-0.032886714,-0.07869635,-0.66299343,1.2977574
1747679577.0969431,0.18224975,0.22538687,-0.032886714,-0.07869635,-0.66299343,1.2977574
1747679577.0974622,0.18224975,0.22538687,-0.032886714,-0.07869635,-0.66299343,1.2977574
1747679577.0981054,0.18224975,0.22538687,-0.032886714,-0.07869635,-0.66299343,1.2977574
1747679577.098655,0.18224975,0.22538687,-0.032886714,-0.07869635,-0.66299343,1.2977574
1747679577.0991874,0.18224975,0.22538687,-0.032886714,-0.07869635,-0.66299343,1.2977574
1747679577.0997105,0.18224975,0.22538687,-0.032886714,-0.07869635,-0.66299343,1.2977574
1747679577.1002293,0.18224975,0.22538687,-0.032886714,-0.07869635,-0.66299343,1.2977574
1747679577.100748,0.18224975,0.22538687,-0.032886714,-0.07869635,-0.66299343,1.2977574
1747679577.1012669,0.18224975,0.22538687,-0.032886714,-0.07869635,-0.66299343,1.2977574
1747679577.101786,0.18224975,0.22538687,-0.032886714,-0.07869635,-0.66299343,1.2977574
1747679577.1023042,0.18224975,0.22538687,-0.032886714,-0.07869635,-0.66299343,1.2977574
1747679577.102827,0.2481452,0.124347165,-0.028981797,-0.07869635,-0.66299343,1.2977574
1747679577.1033893,0.2481452,0.124347165,-0.028981797,-0.16391744,-0.64594924,1.619467
1747679577.1039348,0.2481452,0.124347165,-0.028981797,-0.16391744,-0.64594924,1.619467
1747679577.104459,0.2481452,0.124347165,-0.028981797,-0.16391744,-0.64594924,1.619467
1747679577.1049778,0.2481452,0.124347165,-0.028981797,-0.16391744,-0.64594924,1.619467
1747679577.105497,0.2481452,0.124347165,-0.028981797,-0.16391744,-0.64594924,1.619467
1747679577.1060157,0.2481452,0.124347165,-0.028981797,-0.16391744,-0.64594924,1.619467
1747679577.1065345,0.2481452,0.124347165,-0.028981797,-0.16391744,-0.64594924,1.619467
1747679577.1070664,0.2481452,0.124347165,-0.028981797,-0.16391744,-0.64594924,1.619467
1747679577.1076038,0.2481452,0.124347165,-0.028981797,-0.16391744,-0.64594924,1.619467
1747679577.1081378,0.2481452,0.124347165,-0.028981797,-0.16391744,-0.64594924,1.619467
1747679577.1086726,0.2481452,0.124347165,-0.028981797,-0.16391744,-0.64594924,1.619467
1747679577.1091938,0.2481452,0.124347165,-0.028981797,-0.16391744,-0.64594924,1.619467
1747679577.1097136,0.2481452,0.124347165,-0.028981797,-0.16391744,-0.64594924,1.619467
1747679577.110239,0.2481452,0.124347165,-0.028981797,-0.16391744,-0.64594924,1.619467
1747679577.110791,0.33795828,0.008664032,-0.02605311,-0.24807326,-0.6470145,1.8069534
1747679577.1113448,0.33795828,0.008664032,-0.02605311,-0.24807326,-0.6470145,1.8069534
1747679577.1118784,0.33795828,0.008664032,-0.02605311,-0.24807326,-0.6470145,1.8069534
1747679577.1123981,0.33795828,0.008664032,-0.02605311,-0.24807326,-0.6470145,1.8069534
1747679577.112958,0.33795828,0.008664032,-0.02605311,-0.24807326,-0.6470145,1.8069534
1747679577.1135135,0.33795828,0.008664032,-0.02605311,-0.24807326,-0.6470145,1.8069534
1747679577.1140597,0.33795828,0.008664032,-0.02605311,-0.24807326,-0.6470145,1.8069534
1747679577.114585,0.33795828,0.008664032,-0.02605311,-0.24807326,-0.6470145,1.8069534
1747679577.1151037,0.33795828,0.008664032,-0.02605311,-0.24807326,-0.6470145,1.8069534
1747679577.115623,0.33795828,0.008664032,-0.02605311,-0.24807326,-0.6470145,1.8069534
1747679577.116142,0.33795828,0.008664032,-0.02605311,-0.24807326,-0.6470145,1.8069534
1747679577.116661,0.33795828,0.008664032,-0.02605311,-0.24807326,-0.6470145,1.8069534
1747679577.1171834,0.33795828,0.008664032,-0.02605311,-0.24807326,-0.6470145,1.8069534
1747679577.1177065,0.44534346,-0.07919658,0.012507934,-0.24807326,-0.6470145,1.8069534
1747679577.1182272,0.44534346,-0.07919658,0.012507934,-0.24807326,-0.6470145,1.8069534
1747679577.1187487,0.44534346,-0.07919658,0.012507934,-0.37483963,-0.6704503,2.0466378
1747679577.1192694,0.44534346,-0.07919658,0.012507934,-0.37483963,-0.6704503,2.0466378
1747679577.1197882,0.44534346,-0.07919658,0.012507934,-0.37483963,-0.6704503,2.0466378
1747679577.120307,0.44534346,-0.07919658,0.012507934,-0.37483963,-0.6704503,2.0466378
1747679577.1208303,0.44534346,-0.07919658,0.012507934,-0.37483963,-0.6704503,2.0466378
1747679577.1213596,0.44534346,-0.07919658,0.012507934,-0.37483963,-0.6704503,2.0466378
1747679577.121881,0.44534346,-0.07919658,0.012507934,-0.37483963,-0.6704503,2.0466378
1747679577.1223998,0.44534346,-0.07919658,0.012507934,-0.37483963,-0.6704503,2.0466378
1747679577.1229181,0.44534346,-0.07919658,0.012507934,-0.37483963,-0.6704503,2.0466378
1747679577.1234365,0.44534346,-0.07919658,0.012507934,-0.37483963,-0.6704503,2.0466378
1747679577.1239696,0.44534346,-0.07919658,0.012507934,-0.37483963,-0.6704503,2.0466378
1747679577.1245077,0.44534346,-0.07919658,0.012507934,-0.37483963,-0.6704503,2.0466378
1747679577.1250312,0.44534346,-0.07919658,0.012507934,-0.37483963,-0.6704503,2.0466378
1747679577.1255498,0.44534346,-0.07919658,0.012507934,-0.37483963,-0.6704503,2.0466378
1747679577.1260731,0.44534346,-0.07919658,0.012507934,-0.37483963,-0.6704503,2.0466378
1747679577.126624,0.44534346,-0.07919658,0.012507934,-0.37483963,-0.6704503,2.0466378
1747679577.1271741,0.44534346,-0.07919658,0.012507934,-0.37483963,-0.6704503,2.0466378
1747679577.1277006,0.44534346,-0.07919658,0.012507934,-0.37483963,-0.6704503,2.0466378
1747679577.1282887,0.44534346,-0.07919658,0.012507934,-0.37483963,-0.6704503,2.0466378
1747679577.1288471,0.5068459,-0.14362769,0.05155709,-0.45153862,-0.6800377,2.2106884
1747679577.1293957,0.5068459,-0.14362769,0.05155709,-0.45153862,-0.6800377,2.2106884
1747679577.129938,0.5068459,-0.14362769,0.05155709,-0.45153862,-0.6800377,2.2106884
1747679577.1304715,0.5068459,-0.14362769,0.05155709,-0.45153862,-0.6800377,2.2106884
1747679577.1309917,0.5068459,-0.14362769,0.05155709,-0.45153862,-0.6800377,2.2106884
1747679577.1315107,0.5068459,-0.14362769,0.05155709,-0.45153862,-0.6800377,2.2106884
1747679577.1320295,0.5068459,-0.14362769,0.05155709,-0.45153862,-0.6800377,2.2106884
1747679577.1325486,0.5068459,-0.14362769,0.05155709,-0.45153862,-0.6800377,2.2106884
1747679577.133067,0.5068459,-0.14362769,0.05155709,-0.45153862,-0.6800377,2.2106884
1747679577.133586,0.5068459,-0.14362769,0.05155709,-0.45153862,-0.6800377,2.2106884
1747679577.1341212,0.5068459,-0.14362769,0.05155709,-0.45153862,-0.6800377,2.2106884
1747679577.1346672,0.5068459,-0.14362769,0.05155709,-0.45153862,-0.6800377,2.2106884
1747679577.1351924,0.5068459,-0.14362769,0.05155709,-0.45153862,-0.6800377,2.2106884
1747679577.1357112,0.5068459,-0.14362769,0.05155709,-0.45153862,-0.6800377,2.2106884
1747679577.1362302,0.5068459,-0.14362769,0.05155709,-0.45153862,-0.6800377,2.2106884
1747679577.1367493,0.5068459,-0.14362769,0.05155709,-0.45153862,-0.6800377,2.2106884
1747679577.137268,0.5068459,-0.14362769,0.05155709,-0.45153862,-0.6800377,2.2106884
1747679577.1377869,0.5068459,-0.14362769,0.05155709,-0.45153862,-0.6800377,2.2106884
1747679577.1383054,0.5068459,-0.14362769,0.05155709,-0.45153862,-0.6800377,2.2106884
1747679577.1388242,0.5068459,-0.14362769,0.05155709,-0.45153862,-0.6800377,2.2106884
1747679577.1393425,0.5068459,-0.14362769,0.05155709,-0.45153862,-0.6800377,2.2106884
1747679577.139861,0.5068459,-0.14362769,0.05155709,-0.45153862,-0.6800377,2.2106884
1747679577.140385,0.5820155,-0.21635675,0.0989042,-0.49201864,-0.6757766,2.3449116
1747679577.1409118,0.5820155,-0.21635675,0.0989042,-0.49201864,-0.6757766,2.3449116
1747679577.1414633,0.5820155,-0.21635675,0.0989042,-0.49201864,-0.6757766,2.3449116
1747679577.1420128,0.5820155,-0.21635675,0.0989042,-0.49201864,-0.6757766,2.3449116
1747679577.1425495,0.5820155,-0.21635675,0.0989042,-0.49201864,-0.6757766,2.3449116
1747679577.143094,0.5820155,-0.21635675,0.0989042,-0.49201864,-0.6757766,2.3449116
1747679577.1436498,0.5820155,-0.21635675,0.0989042,-0.49201864,-0.6757766,2.3449116
1747679577.1442025,0.5820155,-0.21635675,0.0989042,-0.49201864,-0.6757766,2.3449116
1747679577.1447425,0.5820155,-0.21635675,0.0989042,-0.49201864,-0.6757766,2.3449116
1747679577.1452694,0.5820155,-0.21635675,0.0989042,-0.49201864,-0.6757766,2.3449116
1747679577.1457915,0.5820155,-0.21635675,0.0989042,-0.49201864,-0.6757766,2.3449116
1747679577.1463132,0.5820155,-0.21635675,0.0989042,-0.49201864,-0.6757766,2.3449116
1747679577.1468346,0.5820155,-0.21635675,0.0989042,-0.49201864,-0.6757766,2.3449116
1747679577.1473951,0.5820155,-0.21635675,0.0989042,-0.49201864,-0.6757766,2.3449116
1747679577.147943,0.6015401,-0.25979894,0.13014352,-0.49841022,-0.665124,2.442916
1747679577.1484702,0.6015401,-0.25979894,0.13014352,-0.49841022,-0.665124,2.442916
1747679577.148993,0.6015401,-0.25979894,0.13014352,-0.49841022,-0.665124,2.442916
1747679577.1495142,0.6015401,-0.25979894,0.13014352,-0.49841022,-0.665124,2.442916
1747679577.1500356,0.6015401,-0.25979894,0.13014352,-0.49841022,-0.665124,2.442916
1747679577.1505573,0.6015401,-0.25979894,0.13014352,-0.49841022,-0.665124,2.442916
1747679577.1510787,0.6015401,-0.25979894,0.13014352,-0.49841022,-0.665124,2.442916
1747679577.1516001,0.6015401,-0.25979894,0.13014352,-0.49841022,-0.665124,2.442916
1747679577.152121,0.6015401,-0.25979894,0.13014352,-0.49841022,-0.665124,2.442916
1747679577.1526425,0.6015401,-0.25979894,0.13014352,-0.49841022,-0.665124,2.442916
1747679577.1531637,0.6015401,-0.25979894,0.13014352,-0.49841022,-0.665124,2.442916
1747679577.1537,0.6015401,-0.25979894,0.13014352,-0.49841022,-0.665124,2.442916
1747679577.1542408,0.6015401,-0.25979894,0.13014352,-0.49841022,-0.665124,2.442916
1747679577.1547658,0.6015401,-0.25979894,0.13014352,-0.49841022,-0.665124,2.442916
1747679577.1552873,0.6015401,-0.25979894,0.13014352,-0.49841022,-0.665124,2.442916
1747679577.1558087,0.6015401,-0.25979894,0.13014352,-0.49841022,-0.665124,2.442916
1747679577.1563785,0.6015401,-0.25979894,0.13014352,-0.49841022,-0.665124,2.442916
1747679577.156906,0.6015401,-0.25979894,0.13014352,-0.49841022,-0.665124,2.442916
1747679577.157774,0.5771344,-0.31397966,0.15991852,-0.47497442,-0.6534061,2.6101623
1747679577.157991,0.5771344,-0.31397966,0.15991852,-0.47497442,-0.6534061,2.6101623
1747679577.1586602,0.5771344,-0.31397966,0.15991852,-0.47497442,-0.6534061,2.6101623
1747679577.1592166,0.5771344,-0.31397966,0.15991852,-0.47497442,-0.6534061,2.6101623
1747679577.1597905,0.5771344,-0.31397966,0.15991852,-0.47497442,-0.6534061,2.6101623
1747679577.1603541,0.5771344,-0.31397966,0.15991852,-0.47497442,-0.6534061,2.6101623
1747679577.1609051,0.5771344,-0.31397966,0.15991852,-0.47497442,-0.6534061,2.6101623
1747679577.161438,0.5771344,-0.31397966,0.15991852,-0.47497442,-0.6534061,2.6101623
1747679577.161958,0.5771344,-0.31397966,0.15991852,-0.47497442,-0.6534061,2.6101623
1747679577.162477,0.5771344,-0.31397966,0.15991852,-0.47497442,-0.6534061,2.6101623
1747679577.1629958,0.5771344,-0.31397966,0.15991852,-0.47497442,-0.6534061,2.6101623
1747679577.1635146,0.5771344,-0.31397966,0.15991852,-0.47497442,-0.6534061,2.6101623
1747679577.164049,0.5771344,-0.31397966,0.15991852,-0.47497442,-0.6534061,2.6101623
1747679577.1645873,0.5771344,-0.31397966,0.15991852,-0.47497442,-0.6534061,2.6101623
1747679577.1651108,0.5771344,-0.31397966,0.15991852,-0.47497442,-0.6534061,2.6101623
1747679577.1656296,0.5771344,-0.31397966,0.15991852,-0.47497442,-0.6534061,2.6101623
1747679577.1661487,0.5771344,-0.31397966,0.15991852,-0.47497442,-0.6534061,2.6101623
1747679577.1666672,0.5771344,-0.31397966,0.15991852,-0.47497442,-0.6534061,2.6101623
1747679577.167186,0.5771344,-0.31397966,0.15991852,-0.47497442,-0.6534061,2.6101623
1747679577.1677043,0.5771344,-0.31397966,0.15991852,-0.47497442,-0.6534061,2.6101623
1747679577.1682231,0.5771344,-0.31397966,0.15991852,-0.47497442,-0.6534061,2.6101623
1747679577.1687422,0.5771344,-0.31397966,0.15991852,-0.47497442,-0.6534061,2.6101623
1747679577.1692607,0.5771344,-0.31397966,0.15991852,-0.47497442,-0.6534061,2.6101623
1747679577.1697793,0.5771344,-0.31397966,0.15991852,-0.47497442,-0.6534061,2.6101623
1747679577.1703062,0.5649315,-0.33496857,0.16675211,-0.47497442,-0.6534061,2.6101623
1747679577.1708293,0.5649315,-0.33496857,0.16675211,-0.45366916,-0.65766716,2.7230802
1747679577.1713495,0.5649315,-0.33496857,0.16675211,-0.45366916,-0.65766716,2.7230802
1747679577.1718712,0.5649315,-0.33496857,0.16675211,-0.45366916,-0.65766716,2.7230802
1747679577.1723914,0.5649315,-0.33496857,0.16675211,-0.45366916,-0.65766716,2.7230802
1747679577.1729147,0.5649315,-0.33496857,0.16675211,-0.45366916,-0.65766716,2.7230802
1747679577.1734655,0.5649315,-0.33496857,0.16675211,-0.45366916,-0.65766716,2.7230802
1747679577.1740217,0.5649315,-0.33496857,0.16675211,-0.45366916,-0.65766716,2.7230802
1747679577.1745713,0.5649315,-0.33496857,0.16675211,-0.45366916,-0.65766716,2.7230802
1747679577.1751122,0.5649315,-0.33496857,0.16675211,-0.45366916,-0.65766716,2.7230802
1747679577.1756358,0.5649315,-0.33496857,0.16675211,-0.45366916,-0.65766716,2.7230802
1747679577.1761549,0.5649315,-0.33496857,0.16675211,-0.45366916,-0.65766716,2.7230802
1747679577.1766741,0.5649315,-0.33496857,0.16675211,-0.45366916,-0.65766716,2.7230802
1747679577.177193,0.5649315,-0.33496857,0.16675211,-0.45366916,-0.65766716,2.7230802
1747679577.1777117,0.5649315,-0.33496857,0.16675211,-0.45366916,-0.65766716,2.7230802
1747679577.17823,0.5649315,-0.33496857,0.16675211,-0.45366916,-0.65766716,2.7230802
1747679577.1787488,0.5649315,-0.33496857,0.16675211,-0.45366916,-0.65766716,2.7230802
1747679577.1792676,0.5649315,-0.33496857,0.16675211,-0.45366916,-0.65766716,2.7230802
1747679577.1797903,0.56883645,-0.3832919,0.18481235,-0.45366916,-0.65766716,2.7230802
1747679577.1803138,0.56883645,-0.3832919,0.18481235,-0.45366916,-0.65766716,2.7230802
1747679577.1808374,0.56883645,-0.3832919,0.18481235,-0.4078628,-0.66618925,2.9553077
1747679577.1813602,0.56883645,-0.3832919,0.18481235,-0.4078628,-0.66618925,2.9553077
1747679577.1818805,0.56883645,-0.3832919,0.18481235,-0.4078628,-0.66618925,2.9553077
1747679577.1823997,0.56883645,-0.3832919,0.18481235,-0.4078628,-0.66618925,2.9553077
1747679577.1829183,0.56883645,-0.3832919,0.18481235,-0.4078628,-0.66618925,2.9553077
1747679577.1834373,0.56883645,-0.3832919,0.18481235,-0.4078628,-0.66618925,2.9553077
1747679577.1839721,0.56883645,-0.3832919,0.18481235,-0.4078628,-0.66618925,2.9553077
1747679577.1845107,0.56883645,-0.3832919,0.18481235,-0.4078628,-0.66618925,2.9553077
1747679577.1850336,0.56883645,-0.3832919,0.18481235,-0.4078628,-0.66618925,2.9553077
1747679577.1855524,0.56883645,-0.3832919,0.18481235,-0.4078628,-0.66618925,2.9553077
1747679577.1860712,0.56883645,-0.3832919,0.18481235,-0.4078628,-0.66618925,2.9553077
1747679577.1865897,0.56883645,-0.3832919,0.18481235,-0.4078628,-0.66618925,2.9553077
1747679577.1871085,0.56883645,-0.3832919,0.18481235,-0.4078628,-0.66618925,2.9553077
1747679577.1876316,0.56883645,-0.3832919,0.18481235,-0.4078628,-0.66618925,2.9553077
1747679577.1881533,0.56883645,-0.3832919,0.18481235,-0.4078628,-0.66618925,2.9553077
1747679577.1886766,0.56883645,-0.3832919,0.18481235,-0.4078628,-0.66618925,2.9553077
1747679577.1897073,0.56883645,-0.3832919,0.18481235,-0.4078628,-0.66618925,2.9553077
1747679577.1902616,0.56883645,-0.3832919,0.18481235,-0.4078628,-0.66618925,2.9553077
1747679577.1909597,0.56883645,-0.3832919,0.18481235,-0.4078628,-0.66618925,2.9553077
1747679577.1915216,0.58055115,-0.46139023,0.20287259,-0.4078628,-0.66618925,2.9553077
1747679577.192058,0.58055115,-0.46139023,0.20287259,-0.4078628,-0.66618925,2.9553077
1747679577.1925845,0.58055115,-0.46139023,0.20287259,-0.4078628,-0.66618925,2.9553077
1747679577.193114,0.58055115,-0.46139023,0.20287259,-0.3055975,-0.72158295,3.30791
1747679577.1936364,0.58055115,-0.46139023,0.20287259,-0.3055975,-0.72158295,3.30791
1747679577.194169,0.58055115,-0.46139023,0.20287259,-0.3055975,-0.72158295,3.30791
1747679577.194706,0.58055115,-0.46139023,0.20287259,-0.3055975,-0.72158295,3.30791
1747679577.1952293,0.58055115,-0.46139023,0.20287259,-0.3055975,-0.72158295,3.30791
1747679577.1957486,0.58055115,-0.46139023,0.20287259,-0.3055975,-0.72158295,3.30791
1747679577.1962678,0.58055115,-0.46139023,0.20287259,-0.3055975,-0.72158295,3.30791
1747679577.1967866,0.58055115,-0.46139023,0.20287259,-0.3055975,-0.72158295,3.30791
1747679577.1973057,0.58055115,-0.46139023,0.20287259,-0.3055975,-0.72158295,3.30791
1747679577.1978242,0.58055115,-0.46139023,0.20287259,-0.3055975,-0.72158295,3.30791
1747679577.1983428,0.58055115,-0.46139023,0.20287259,-0.3055975,-0.72158295,3.30791
1747679577.1988614,0.58055115,-0.46139023,0.20287259,-0.3055975,-0.72158295,3.30791
1747679577.1993797,0.58055115,-0.46139023,0.20287259,-0.3055975,-0.72158295,3.30791
1747679577.199898,0.58055115,-0.46139023,0.20287259,-0.3055975,-0.72158295,3.30791
1747679577.2004168,0.58055115,-0.46139023,0.20287259,-0.3055975,-0.72158295,3.30791
1747679577.2009354,0.58055115,-0.46139023,0.20287259,-0.3055975,-0.72158295,3.30791
1747679577.201454,0.58055115,-0.46139023,0.20287259,-0.3055975,-0.72158295,3.30791
1747679577.2019722,0.58055115,-0.46139023,0.20287259,-0.3055975,-0.72158295,3.30791
1747679577.2025433,0.63033885,-0.4950701,0.20189635,-0.3055975,-0.72158295,3.30791
1747679577.2031126,0.63033885,-0.4950701,0.20189635,-0.20759325,-0.78656405,3.6818175
1747679577.2036607,0.63033885,-0.4950701,0.20189635,-0.20759325,-0.78656405,3.6818175
1747679577.2042222,0.63033885,-0.4950701,0.20189635,-0.20759325,-0.78656405,3.6818175
1747679577.204913,0.63033885,-0.4950701,0.20189635,-0.20759325,-0.78656405,3.6818175
1747679577.2054603,0.63033885,-0.4950701,0.20189635,-0.20759325,-0.78656405,3.6818175
1747679577.205994,0.63033885,-0.4950701,0.20189635,-0.20759325,-0.78656405,3.6818175
1747679577.206514,0.63033885,-0.4950701,0.20189635,-0.20759325,-0.78656405,3.6818175
1747679577.2070327,0.63033885,-0.4950701,0.20189635,-0.20759325,-0.78656405,3.6818175
1747679577.2075515,0.63033885,-0.4950701,0.20189635,-0.20759325,-0.78656405,3.6818175
1747679577.2080705,0.63033885,-0.4950701,0.20189635,-0.20759325,-0.78656405,3.6818175
1747679577.2085888,0.63033885,-0.4950701,0.20189635,-0.20759325,-0.78656405,3.6818175
1747679577.2091076,0.63033885,-0.4950701,0.20189635,-0.20759325,-0.78656405,3.6818175
1747679577.2096262,0.63033885,-0.4950701,0.20189635,-0.20759325,-0.78656405,3.6818175
1747679577.2101445,0.63033885,-0.4950701,0.20189635,-0.20759325,-0.78656405,3.6818175
1747679577.210663,0.63033885,-0.4950701,0.20189635,-0.20759325,-0.78656405,3.6818175
1747679577.2111819,0.63033885,-0.4950701,0.20189635,-0.20759325,-0.78656405,3.6818175
1747679577.2117002,0.63033885,-0.4950701,0.20189635,-0.20759325,-0.78656405,3.6818175
1747679577.2122185,0.63033885,-0.4950701,0.20189635,-0.20759325,-0.78656405,3.6818175
1747679577.2127419,0.78263056,-0.51605904,0.19066972,-0.20759325,-0.78656405,3.6818175
1747679577.213263,0.78263056,-0.51605904,0.19066972,-0.20759325,-0.78656405,3.6818175
1747679577.213799,0.78263056,-0.51605904,0.19066972,-0.20759325,-0.78656405,3.6818175
1747679577.2143548,0.78263056,-0.51605904,0.19066972,-0.20759325,-0.78656405,3.6818175
1747679577.2148948,0.78263056,-0.51605904,0.19066972,-0.09041425,-0.843023,4.1835566
1747679577.2154193,0.78263056,-0.51605904,0.19066972,-0.09041425,-0.843023,4.1835566
1747679577.2159388,0.78263056,-0.51605904,0.19066972,-0.09041425,-0.843023,4.1835566
1747679577.2164848,0.78263056,-0.51605904,0.19066972,-0.09041425,-0.843023,4.1835566
1747679577.2170482,0.78263056,-0.51605904,0.19066972,-0.09041425,-0.843023,4.1835566
1747679577.2175913,0.78263056,-0.51605904,0.19066972,-0.09041425,-0.843023,4.1835566
1747679577.2181196,0.78263056,-0.51605904,0.19066972,-0.0051931604,-0.8558062,4.5755734
1747679577.218645,0.78263056,-0.51605904,0.19066972,-0.0051931604,-0.8558062,4.5755734
1747679577.2191706,0.78263056,-0.51605904,0.19066972,-0.0051931604,-0.8558062,4.5755734
1747679577.2209973,0.97543585,-0.52289265,0.16382343,-0.0051931604,-0.8558062,4.5755734
1747679577.2215605,0.97543585,-0.52289265,0.16382343,-0.0051931604,-0.8558062,4.5755734
1747679577.2221131,0.97543585,-0.52289265,0.16382343,-0.0051931604,-0.8558062,4.5755734
1747679577.222652,0.97543585,-0.52289265,0.16382343,-0.0051931604,-0.8558062,4.5755734
1747679577.2231932,0.97543585,-0.52289265,0.16382343,-0.0051931604,-0.8558062,4.5755734
1747679577.2238283,0.97543585,-0.52289265,0.16382343,-0.0051931604,-0.8558062,4.5755734
1747679577.2244198,0.97543585,-0.52289265,0.16382343,-0.0051931604,-0.8558062,4.5755734
1747679577.2249837,0.97543585,-0.52289265,0.16382343,-0.0051931604,-0.8558062,4.5755734
1747679577.2255325,0.97543585,-0.52289265,0.16382343,-0.0051931604,-0.8558062,4.5755734
1747679577.2260656,0.97543585,-0.52289265,0.16382343,-0.0051931604,-0.8558062,4.5755734
1747679577.226586,0.97543585,-0.52289265,0.16382343,-0.0051931604,-0.8558062,4.5755734
1747679577.2271078,0.97543585,-0.52289265,0.16382343,-0.0051931604,-0.8558062,4.5755734
1747679577.227633,0.97543585,-0.52289265,0.16382343,-0.0051931604,-0.8558062,4.5755734
1747679577.2281566,0.97543585,-0.52289265,0.16382343,-0.0051931604,-0.8558062,4.5755734
1747679577.22868,1.2434106,-0.51166606,0.122821815,-0.0051931604,-0.8558062,4.5755734
1747679577.2292001,1.2434106,-0.51166606,0.122821815,-0.0051931604,-0.8558062,4.5755734
1747679577.2297206,1.2434106,-0.51166606,0.122821815,0.043808967,-0.838762,4.8940873
1747679577.2302406,1.2434106,-0.51166606,0.122821815,0.043808967,-0.838762,4.8940873
1747679577.2307591,1.2434106,-0.51166606,0.122821815,0.043808967,-0.838762,4.8940873
1747679577.231278,1.2434106,-0.51166606,0.122821815,0.043808967,-0.838762,4.8940873
1747679577.2317963,1.2434106,-0.51166606,0.122821815,0.043808967,-0.838762,4.8940873
1747679577.2323148,1.2434106,-0.51166606,0.122821815,0.043808967,-0.838762,4.8940873
1747679577.2328334,1.2434106,-0.51166606,0.122821815,0.043808967,-0.838762,4.8940873
1747679577.2333522,1.2434106,-0.51166606,0.122821815,0.043808967,-0.838762,4.8940873
1747679577.233886,1.2434106,-0.51166606,0.122821815,0.043808967,-0.838762,4.8940873
1747679577.234425,1.2434106,-0.51166606,0.122821815,0.043808967,-0.838762,4.8940873
1747679577.234962,1.2434106,-0.51166606,0.122821815,0.043808967,-0.838762,4.8940873
1747679577.2355072,1.2434106,-0.51166606,0.122821815,0.043808967,-0.838762,4.8940873
1747679577.236534,1.2434106,-0.51166606,0.122821815,0.043808967,-0.838762,4.8940873
1747679577.2374687,1.2434106,-0.51166606,0.122821815,0.04167844,-0.83343565,5.0869
1747679577.238019,1.508945,-0.4984869,0.09011813,0.04167844,-0.83343565,5.0869
1747679577.238557,1.508945,-0.4984869,0.09011813,0.04167844,-0.83343565,5.0869
1747679577.2390935,1.508945,-0.4984869,0.09011813,0.04167844,-0.83343565,5.0869
1747679577.239629,1.508945,-0.4984869,0.09011813,0.04167844,-0.83343565,5.0869
1747679577.2401633,1.508945,-0.4984869,0.09011813,0.04167844,-0.83343565,5.0869
1747679577.2406983,1.508945,-0.4984869,0.09011813,0.04167844,-0.83343565,5.0869
1747679577.2412324,1.508945,-0.4984869,0.09011813,0.04167844,-0.83343565,5.0869
1747679577.2417665,1.508945,-0.4984869,0.09011813,0.04167844,-0.83343565,5.0869
1747679577.2423093,1.508945,-0.4984869,0.09011813,0.04167844,-0.83343565,5.0869
1747679577.2428482,1.508945,-0.4984869,0.09011813,0.04167844,-0.83343565,5.0869
1747679577.2433863,1.508945,-0.4984869,0.09011813,0.04167844,-0.83343565,5.0869
1747679577.2439303,1.508945,-0.4984869,0.09011813,0.04167844,-0.83343565,5.0869
1747679577.2444937,1.508945,-0.4984869,0.09011813,0.04167844,-0.83343565,5.0869
1747679577.245049,1.508945,-0.4984869,0.09011813,0.04167844,-0.83343565,5.0869
1747679577.245606,1.508945,-0.4984869,0.09011813,0.04167844,-0.83343565,5.0869
1747679577.246147,1.508945,-0.4984869,0.09011813,0.04167844,-0.83343565,5.0869
1747679577.2466698,1.508945,-0.4984869,0.09011813,0.04167844,-0.83343565,5.0869
1747679577.247191,1.508945,-0.4984869,0.09011813,0.04167844,-0.83343565,5.0869
1747679577.2477868,1.508945,-0.4984869,0.09011813,0.04167844,-0.83343565,5.0869
1747679577.24834,1.508945,-0.4984869,0.09011813,0.01824264,-0.80893457,5.1231194
1747679577.2488666,1.508945,-0.4984869,0.09011813,0.01824264,-0.80893457,5.1231194
1747679577.2493927,1.8208503,-0.48677218,0.08230831,0.01824264,-0.80893457,5.1231194
1747679577.2499156,1.8208503,-0.48677218,0.08230831,0.01824264,-0.80893457,5.1231194
1747679577.2505193,1.8208503,-0.48677218,0.08230831,0.01824264,-0.80893457,5.1231194
1747679577.2531679,1.8208503,-0.48677218,0.08230831,0.01824264,-0.80893457,5.1231194
1747679577.2555795,1.8208503,-0.48677218,0.08230831,0.01824264,-0.80893457,5.1231194
1747679577.2561405,1.8208503,-0.48677218,0.08230831,0.01824264,-0.80893457,5.1231194
1747679577.2566698,1.8208503,-0.48677218,0.08230831,0.01824264,-0.80893457,5.1231194
1747679577.2571921,1.8208503,-0.48677218,0.08230831,0.01824264,-0.80893457,5.1231194
1747679577.2584894,1.8208503,-0.48677218,0.08230831,0.011851058,-0.725844,5.115662
1747679577.259014,1.8208503,-0.48677218,0.08230831,0.011851058,-0.725844,5.115662
1747679577.2595406,1.9375095,-0.46968818,0.119893126,0.011851058,-0.725844,5.115662
1747679577.2600608,1.9375095,-0.46968818,0.119893126,0.011851058,-0.725844,5.115662
1747679577.2605793,1.9375095,-0.46968818,0.119893126,0.011851058,-0.725844,5.115662
1747679577.2610981,1.9375095,-0.46968818,0.119893126,0.011851058,-0.725844,5.115662
1747679577.2616174,1.9375095,-0.46968818,0.119893126,0.011851058,-0.725844,5.115662
1747679577.2621362,1.9375095,-0.46968818,0.119893126,0.011851058,-0.725844,5.115662
1747679577.2626553,1.9375095,-0.46968818,0.119893126,0.011851058,-0.725844,5.115662
1747679577.2631736,1.9375095,-0.46968818,0.119893126,0.011851058,-0.725844,5.115662
1747679577.2637076,1.9375095,-0.46968818,0.119893126,0.011851058,-0.725844,5.115662
1747679577.2642472,1.9375095,-0.46968818,0.119893126,0.011851058,-0.725844,5.115662
1747679577.2647703,1.9375095,-0.46968818,0.119893126,0.011851058,-0.725844,5.115662
1747679577.2652938,1.9375095,-0.46968818,0.119893126,0.011851058,-0.725844,5.115662
1747679577.2658427,1.9375095,-0.46968818,0.119893126,0.011851058,-0.725844,5.115662
1747679577.2675364,1.9375095,-0.46968818,0.119893126,0.011851058,-0.725844,5.115662
1747679577.2680907,1.9375095,-0.46968818,0.119893126,0.011851058,-0.725844,5.115662
1747679577.268624,1.9375095,-0.46968818,0.119893126,0.011851058,-0.725844,5.115662
1747679577.2691953,1.9375095,-0.46968818,0.119893126,0.011851058,-0.725844,5.115662
1747679577.269739,1.970213,-0.47212875,0.14527509,0.037417386,-0.63955766,5.173187
1747679577.2702625,1.970213,-0.47212875,0.14527509,0.037417386,-0.63955766,5.173187
1747679577.2707815,1.970213,-0.47212875,0.14527509,0.037417386,-0.63955766,5.173187
1747679577.271302,1.970213,-0.47212875,0.14527509,0.037417386,-0.63955766,5.173187
1747679577.2718215,1.970213,-0.47212875,0.14527509,0.037417386,-0.63955766,5.173187
1747679577.2723403,1.970213,-0.47212875,0.14527509,0.037417386,-0.63955766,5.173187
1747679577.2728586,1.970213,-0.47212875,0.14527509,0.037417386,-0.63955766,5.173187
1747679577.2733772,1.970213,-0.47212875,0.14527509,0.037417386,-0.63955766,5.173187
1747679577.2739103,1.970213,-0.47212875,0.14527509,0.037417386,-0.63955766,5.173187
1747679577.2744484,1.970213,-0.47212875,0.14527509,0.037417386,-0.63955766,5.173187
1747679577.2749717,1.970213,-0.47212875,0.14527509,0.037417386,-0.63955766,5.173187
1747679577.2754908,1.970213,-0.47212875,0.14527509,0.037417386,-0.63955766,5.173187
1747679577.2760096,1.970213,-0.47212875,0.14527509,0.037417386,-0.63955766,5.173187
1747679577.2765281,1.970213,-0.47212875,0.14527509,0.037417386,-0.63955766,5.173187
1747679577.2770464,1.970213,-0.47212875,0.14527509,0.037417386,-0.63955766,5.173187
1747679577.2775652,1.970213,-0.47212875,0.14527509,0.037417386,-0.63955766,5.173187
1747679577.2780836,1.970213,-0.47212875,0.14527509,0.037417386,-0.63955766,5.173187
1747679577.278602,1.970213,-0.47212875,0.14527509,0.037417386,-0.63955766,5.173187
1747679577.2791207,1.970213,-0.47212875,0.14527509,0.037417386,-0.63955766,5.173187
1747679577.2796392,1.970213,-0.47212875,0.14527509,0.037417386,-0.63955766,5.173187
1747679577.2801573,1.970213,-0.47212875,0.14527509,0.037417386,-0.63955766,5.173187
1747679577.2806807,1.9985237,-0.5019038,0.166264,0.10452899,-0.49574706,5.3329763
1747679577.2845027,1.9985237,-0.5019038,0.166264,0.10452899,-0.49574706,5.3329763
1747679577.2850752,1.9985237,-0.5019038,0.166264,0.10452899,-0.49574706,5.3329763
1747679577.285623,1.9985237,-0.5019038,0.166264,0.10452899,-0.49574706,5.3329763
1747679577.2861636,1.9985237,-0.5019038,0.166264,0.10452899,-0.49574706,5.3329763
1747679577.2867057,1.9985237,-0.5019038,0.166264,0.10452899,-0.49574706,5.3329763
1747679577.2872393,1.9985237,-0.5019038,0.166264,0.10452899,-0.49574706,5.3329763
1747679577.2877593,1.9985237,-0.5019038,0.166264,0.10452899,-0.49574706,5.3329763
1747679577.2882786,1.9985237,-0.5019038,0.166264,0.10452899,-0.49574706,5.3329763
1747679577.2887976,1.9985237,-0.5019038,0.166264,0.10452899,-0.49574706,5.3329763
1747679577.2893167,1.9985237,-0.5019038,0.166264,0.10452899,-0.49574706,5.3329763
1747679577.289841,1.9985237,-0.5019038,0.166264,0.1833585,-0.42224386,5.5162015
1747679577.2903655,2.0297632,-0.5355836,0.16772833,0.1833585,-0.42224386,5.5162015
1747679577.2908862,2.0297632,-0.5355836,0.16772833,0.1833585,-0.42224386,5.5162015
1747679577.2914047,2.0297632,-0.5355836,0.16772833,0.1833585,-0.42224386,5.5162015
1747679577.2919235,2.0297632,-0.5355836,0.16772833,0.1833585,-0.42224386,5.5162015
1747679577.2924423,2.0297632,-0.5355836,0.16772833,0.1833585,-0.42224386,5.5162015
1747679577.292961,2.0297632,-0.5355836,0.16772833,0.1833585,-0.42224386,5.5162015
1747679577.2934797,2.0297632,-0.5355836,0.16772833,0.1833585,-0.42224386,5.5162015
1747679577.294015,2.0297632,-0.5355836,0.16772833,0.1833585,-0.42224386,5.5162015
1747679577.2945614,2.0297632,-0.5355836,0.16772833,0.1833585,-0.42224386,5.5162015
1747679577.2950861,2.0297632,-0.5355836,0.16772833,0.1833585,-0.42224386,5.5162015
1747679577.2956054,2.0297632,-0.5355836,0.16772833,0.1833585,-0.42224386,5.5162015
1747679577.2961802,2.0297632,-0.5355836,0.16772833,0.1833585,-0.42224386,5.5162015
1747679577.296746,2.0297632,-0.5355836,0.16772833,0.1833585,-0.42224386,5.5162015
1747679577.297287,2.0297632,-0.5355836,0.16772833,0.1833585,-0.42224386,5.5162015
1747679577.2984567,2.0297632,-0.5355836,0.16772833,0.1833585,-0.42224386,5.5162015
1747679577.2990038,2.0297632,-0.5355836,0.16772833,0.1833585,-0.42224386,5.5162015
1747679577.2995372,2.0297632,-0.5355836,0.16772833,0.1833585,-0.42224386,5.5162015
1747679577.3000572,2.0297632,-0.5355836,0.16772833,0.1833585,-0.42224386,5.5162015
1747679577.300576,2.0297632,-0.5355836,0.16772833,0.1833585,-0.42224386,5.5162015
1747679577.3010995,2.131291,-0.5892762,0.123309925,0.1833585,-0.42224386,5.5162015
1747679577.3016243,2.131291,-0.5892762,0.123309925,0.3506049,-0.48402917,5.881587
1747679577.302145,2.131291,-0.5892762,0.123309925,0.3506049,-0.48402917,5.881587
1747679577.302664,2.131291,-0.5892762,0.123309925,0.3506049,-0.48402917,5.881587
1747679577.3031824,2.131291,-0.5892762,0.123309925,0.3506049,-0.48402917,5.881587
1747679577.303701,2.131291,-0.5892762,0.123309925,0.3506049,-0.48402917,5.881587
1747679577.3042371,2.131291,-0.5892762,0.123309925,0.3506049,-0.48402917,5.881587
1747679577.3047836,2.131291,-0.5892762,0.123309925,0.3506049,-0.48402917,5.881587
1747679577.3053086,2.131291,-0.5892762,0.123309925,0.3506049,-0.48402917,5.881587
1747679577.305828,2.131291,-0.5892762,0.123309925,0.3506049,-0.48402917,5.881587
1747679577.306347,2.131291,-0.5892762,0.123309925,0.3506049,-0.48402917,5.881587
1747679577.3068662,2.131291,-0.5892762,0.123309925,0.3506049,-0.48402917,5.881587
1747679577.3073847,2.131291,-0.5892762,0.123309925,0.3506049,-0.48402917,5.881587
1747679577.3079033,2.131291,-0.5892762,0.123309925,0.3506049,-0.48402917,5.881587
1747679577.3084216,2.131291,-0.5892762,0.123309925,0.3506049,-0.48402917,5.881587
1747679577.3089402,2.131291,-0.5892762,0.123309925,0.3506049,-0.48402917,5.881587
1747679577.3094587,2.131291,-0.5892762,0.123309925,0.3506049,-0.48402917,5.881587
1747679577.309977,2.131291,-0.5892762,0.123309925,0.3506049,-0.48402917,5.881587
1747679577.3104954,2.131291,-0.5892762,0.123309925,0.3506049,-0.48402917,5.881587
1747679577.3110135,2.131291,-0.5892762,0.123309925,0.3506049,-0.48402917,5.881587
1747679577.3117526,2.314822,-0.6088008,0.026663255,0.47204494,-0.6789724,6.2192755
1747679577.3123093,2.314822,-0.6088008,0.026663255,0.47204494,-0.6789724,6.2192755
1747679577.3128572,2.314822,-0.6088008,0.026663255,0.47204494,-0.6789724,6.2192755
1747679577.3133986,2.314822,-0.6088008,0.026663255,0.47204494,-0.6789724,6.2192755
1747679577.3139436,2.314822,-0.6088008,0.026663255,0.47204494,-0.6789724,6.2192755
1747679577.3148913,2.314822,-0.6088008,0.026663255,0.47204494,-0.6789724,6.2192755
1747679577.3154373,2.314822,-0.6088008,0.026663255,0.47204494,-0.6789724,6.2192755
1747679577.3159707,2.314822,-0.6088008,0.026663255,0.47204494,-0.6789724,6.2192755
1747679577.3164911,2.314822,-0.6088008,0.026663255,0.47204494,-0.6789724,6.2192755
1747679577.31701,2.314822,-0.6088008,0.026663255,0.47204494,-0.6789724,6.2192755
1747679577.3175323,2.314822,-0.6088008,0.026663255,0.47204494,-0.6789724,6.2192755
1747679577.3180552,2.5779157,-0.5956217,-0.109520696,0.47204494,-0.6789724,6.2192755
1747679577.318577,2.5779157,-0.5956217,-0.109520696,0.47204494,-0.6789724,6.2192755
1747679577.319101,2.5779157,-0.5956217,-0.109520696,0.5231776,-0.96446306,6.528202
1747679577.3196235,2.5779157,-0.5956217,-0.109520696,0.5231776,-0.96446306,6.528202
1747679577.3201435,2.5779157,-0.5956217,-0.109520696,0.5231776,-0.96446306,6.528202
1747679577.3206618,2.5779157,-0.5956217,-0.109520696,0.5231776,-0.96446306,6.528202
1747679577.3211803,2.5779157,-0.5956217,-0.109520696,0.5231776,-0.96446306,6.528202
1747679577.321699,2.5779157,-0.5956217,-0.109520696,0.5231776,-0.96446306,6.528202
1747679577.322217,2.5779157,-0.5956217,-0.109520696,0.5231776,-0.96446306,6.528202
1747679577.3227355,2.5779157,-0.5956217,-0.109520696,0.5231776,-0.96446306,6.528202
1747679577.323254,2.5779157,-0.5956217,-0.109520696,0.5231776,-0.96446306,6.528202
1747679577.3237903,2.5779157,-0.5956217,-0.109520696,0.5231776,-0.96446306,6.528202
1747679577.324336,2.5779157,-0.5956217,-0.109520696,0.5231776,-0.96446306,6.528202
1747679577.3248613,2.5779157,-0.5956217,-0.109520696,0.5231776,-0.96446306,6.528202
1747679577.3253803,2.5779157,-0.5956217,-0.109520696,0.5231776,-0.96446306,6.528202
1747679577.3258996,2.5779157,-0.5956217,-0.109520696,0.5231776,-0.96446306,6.528202
1747679577.3264182,2.5779157,-0.5956217,-0.109520696,0.5231776,-0.96446306,6.528202
1747679577.3269818,2.5779157,-0.5956217,-0.109520696,0.5231776,-0.96446306,6.528202
1747679577.3275268,2.5779157,-0.5956217,-0.109520696,0.5231776,-0.96446306,6.528202
1747679577.3280566,2.8937259,-0.53363115,-0.31257632,0.5231776,-0.96446306,6.528202
1747679577.3285778,2.8937259,-0.53363115,-0.31257632,0.5231776,-0.96446306,6.528202
1747679577.3291078,2.8937259,-0.53363115,-0.31257632,0.45073968,-1.1423621,6.6762733
1747679577.329972,2.8937259,-0.53363115,-0.31257632,0.45073968,-1.1423621,6.6762733
1747679577.3305185,2.8937259,-0.53363115,-0.31257632,0.45073968,-1.1423621,6.6762733
1747679577.331052,2.8937259,-0.53363115,-0.31257632,0.45073968,-1.1423621,6.6762733
1747679577.3315725,2.8937259,-0.53363115,-0.31257632,0.45073968,-1.1423621,6.6762733
1747679577.3320918,2.8937259,-0.53363115,-0.31257632,0.45073968,-1.1423621,6.6762733
1747679577.3326106,2.8937259,-0.53363115,-0.31257632,0.45073968,-1.1423621,6.6762733
1747679577.3331296,2.8937259,-0.53363115,-0.31257632,0.45073968,-1.1423621,6.6762733
1747679577.3336487,2.8937259,-0.53363115,-0.31257632,0.45073968,-1.1423621,6.6762733
1747679577.3341846,2.8937259,-0.53363115,-0.31257632,0.45073968,-1.1423621,6.6762733
1747679577.3347309,2.8937259,-0.53363115,-0.31257632,0.45073968,-1.1423621,6.6762733
1747679577.3352556,2.8937259,-0.53363115,-0.31257632,0.45073968,-1.1423621,6.6762733
1747679577.3357747,2.8937259,-0.53363115,-0.31257632,0.45073968,-1.1423621,6.6762733
1747679577.3362935,2.8937259,-0.53363115,-0.31257632,0.45073968,-1.1423621,6.6762733
1747679577.3368123,2.8937259,-0.53363115,-0.31257632,0.45073968,-1.1423621,6.6762733
1747679577.3373313,2.8937259,-0.53363115,-0.31257632,0.45073968,-1.1423621,6.6762733
1747679577.337854,3.1631649,-0.45455664,-0.477559,0.45073968,-1.1423621,6.6762733
1747679577.3383768,3.1631649,-0.45455664,-0.477559,0.45073968,-1.1423621,6.6762733
1747679577.3389006,3.1631649,-0.45455664,-0.477559,0.13222586,-1.2883033,6.824345
1747679577.339423,3.1631649,-0.45455664,-0.477559,0.13222586,-1.2883033,6.824345
1747679577.339947,3.1631649,-0.45455664,-0.477559,0.13222586,-1.2883033,6.824345
1747679577.3404706,3.1631649,-0.45455664,-0.477559,0.13222586,-1.2883033,6.824345
1747679577.3409894,3.1631649,-0.45455664,-0.477559,0.13222586,-1.2883033,6.824345
1747679577.3415082,3.1631649,-0.45455664,-0.477559,0.13222586,-1.2883033,6.824345
1747679577.3421602,3.1631649,-0.45455664,-0.477559,0.13222586,-1.2883033,6.824345
1747679577.3427248,3.1631649,-0.45455664,-0.477559,0.13222586,-1.2883033,6.824345
1747679577.343284,3.1631649,-0.45455664,-0.477559,0.13222586,-1.2883033,6.824345
1747679577.3439183,3.1631649,-0.45455664,-0.477559,0.13222586,-1.2883033,6.824345
1747679577.3444808,3.1631649,-0.45455664,-0.477559,0.13222586,-1.2883033,6.824345
1747679577.345447,3.1631649,-0.45455664,-0.477559,0.13222586,-1.2883033,6.824345
1747679577.3459964,3.1631649,-0.45455664,-0.477559,0.13222586,-1.2883033,6.824345
1747679577.3465323,3.1631649,-0.45455664,-0.477559,0.13222586,-1.2883033,6.824345
1747679577.3470552,3.1631649,-0.45455664,-0.477559,0.13222586,-1.2883033,6.824345
1747679577.3475764,3.1631649,-0.45455664,-0.477559,0.13222586,-1.2883033,6.824345
1747679577.3480978,3.1631649,-0.45455664,-0.477559,0.13222586,-1.2883033,6.824345
1747679577.3486195,3.1631649,-0.45455664,-0.477559,0.13222586,-1.2883033,6.824345
1747679577.3492184,3.1631649,-0.45455664,-0.477559,-0.22357221,-1.2488885,6.832867
1747679577.3497717,3.372566,-0.39110175,-0.5942184,-0.22357221,-1.2488885,6.832867
1747679577.350297,3.372566,-0.39110175,-0.5942184,-0.22357221,-1.2488885,6.832867
1747679577.3508189,3.372566,-0.39110175,-0.5942184,-0.22357221,-1.2488885,6.832867
1747679577.3513403,3.372566,-0.39110175,-0.5942184,-0.22357221,-1.2488885,6.832867
1747679577.3518617,3.372566,-0.39110175,-0.5942184,-0.22357221,-1.2488885,6.832867
1747679577.3523831,3.372566,-0.39110175,-0.5942184,-0.22357221,-1.2488885,6.832867
1747679577.3529046,3.372566,-0.39110175,-0.5942184,-0.22357221,-1.2488885,6.832867
1747679577.3534374,3.372566,-0.39110175,-0.5942184,-0.22357221,-1.2488885,6.832867
1747679577.3539777,3.372566,-0.39110175,-0.5942184,-0.22357221,-1.2488885,6.832867
1747679577.3545022,3.372566,-0.39110175,-0.5942184,-0.22357221,-1.2488885,6.832867
1747679577.3550234,3.372566,-0.39110175,-0.5942184,-0.22357221,-1.2488885,6.832867
1747679577.355545,3.372566,-0.39110175,-0.5942184,-0.22357221,-1.2488885,6.832867
1747679577.3560665,3.372566,-0.39110175,-0.5942184,-0.22357221,-1.2488885,6.832867
1747679577.3565881,3.372566,-0.39110175,-0.5942184,-0.22357221,-1.2488885,6.832867
1747679577.3571095,3.372566,-0.39110175,-0.5942184,-0.22357221,-1.2488885,6.832867
1747679577.3576424,3.372566,-0.39110175,-0.5942184,-0.9532778,-0.97298515,6.746581
1747679577.3581877,3.372566,-0.39110175,-0.5942184,-0.9532778,-0.97298515,6.746581
1747679577.3586917,3.372566,-0.39110175,-0.5942184,-0.9532778,-0.97298515,6.746581
1747679577.3592184,3.5141191,-0.32667062,-0.7230806,-0.9532778,-0.97298515,6.746581
1747679577.3597438,3.5141191,-0.32667062,-0.7230806,-0.9532778,-0.97298515,6.746581
1747679577.3605907,3.5141191,-0.32667062,-0.7230806,-0.9532778,-0.97298515,6.746581
1747679577.3611374,3.5141191,-0.32667062,-0.7230806,-0.9532778,-0.97298515,6.746581
1747679577.3616705,3.5141191,-0.32667062,-0.7230806,-0.9532778,-0.97298515,6.746581
1747679577.362191,3.5141191,-0.32667062,-0.7230806,-0.9532778,-0.97298515,6.746581
1747679577.3627095,3.5141191,-0.32667062,-0.7230806,-0.9532778,-0.97298515,6.746581
1747679577.3632283,3.5141191,-0.32667062,-0.7230806,-0.9532778,-0.97298515,6.746581
1747679577.3637645,3.5141191,-0.32667062,-0.7230806,-0.9532778,-0.97298515,6.746581
1747679577.3643107,3.5141191,-0.32667062,-0.7230806,-0.9532778,-0.97298515,6.746581
1747679577.3648357,3.5141191,-0.32667062,-0.7230806,-0.9532778,-0.97298515,6.746581
1747679577.3653548,3.5141191,-0.32667062,-0.7230806,-0.9532778,-0.97298515,6.746581
1747679577.3658736,3.5141191,-0.32667062,-0.7230806,-0.9532778,-0.97298515,6.746581
1747679577.3663924,3.5141191,-0.32667062,-0.7230806,-0.9532778,-0.97298515,6.746581
1747679577.366911,3.5141191,-0.32667062,-0.7230806,-0.9532778,-0.97298515,6.746581
1747679577.3674297,3.5141191,-0.32667062,-0.7230806,-0.9532778,-0.97298515,6.746581
1747679577.3679528,3.5141191,-0.32667062,-0.7230806,-0.9532778,-0.97298515,6.746581
1747679577.3684738,3.5141191,-0.32667062,-0.7230806,-0.9532778,-0.97298515,6.746581
1747679577.3689964,3.513631,-0.25296533,-0.7728683,-1.7128108,-0.64594924,6.6730776
1747679577.3695166,3.513631,-0.25296533,-0.7728683,-1.7128108,-0.64594924,6.6730776
1747679577.3700373,3.513631,-0.25296533,-0.7728683,-1.7128108,-0.64594924,6.6730776
1747679577.370557,3.513631,-0.25296533,-0.7728683,-1.7128108,-0.64594924,6.6730776
1747679577.371076,3.513631,-0.25296533,-0.7728683,-1.7128108,-0.64594924,6.6730776
1747679577.371595,3.513631,-0.25296533,-0.7728683,-1.7128108,-0.64594924,6.6730776
1747679577.3721135,3.513631,-0.25296533,-0.7728683,-1.7128108,-0.64594924,6.6730776
1747679577.3727896,3.513631,-0.25296533,-0.7728683,-1.7128108,-0.64594924,6.6730776
1747679577.373346,3.513631,-0.25296533,-0.7728683,-1.7128108,-0.64594924,6.6730776
1747679577.3738916,3.513631,-0.25296533,-0.7728683,-1.7128108,-0.64594924,6.6730776
1747679577.3744302,3.513631,-0.25296533,-0.7728683,-1.7128108,-0.64594924,6.6730776
1747679577.3750188,3.513631,-0.25296533,-0.7728683,-1.7128108,-0.64594924,6.6730776
1747679577.3755388,3.513631,-0.25296533,-0.7728683,-1.7128108,-0.64594924,6.6730776
1747679577.3760629,3.513631,-0.25296533,-0.7728683,-1.7128108,-0.64594924,6.6730776
1747679577.3770223,3.513631,-0.25296533,-0.7728683,-1.7128108,-0.64594924,6.6730776
1747679577.377568,3.513631,-0.25296533,-0.7728683,-1.7128108,-0.64594924,6.6730776
1747679577.3781013,3.513631,-0.25296533,-0.7728683,-1.7128108,-0.64594924,6.6730776
1747679577.378621,3.513631,-0.25296533,-0.7728683,-1.7128108,-0.64594924,6.6730776
1747679577.3791404,3.513631,-0.25296533,-0.7728683,-1.7128108,-0.64594924,6.6730776
1747679577.379716,3.513631,-0.25296533,-0.7728683,-1.7128108,-0.64594924,6.6730776
1747679577.3802652,3.513631,-0.25296533,-0.7728683,-1.7128108,-0.64594924,6.6730776
1747679577.3807933,3.461403,-0.11141214,-0.7611535,-2.2156153,-0.5032039,6.636859
1747679577.3813136,3.461403,-0.11141214,-0.7611535,-2.2156153,-0.5032039,6.636859
1747679577.3818321,3.461403,-0.11141214,-0.7611535,-2.2156153,-0.5032039,6.636859
1747679577.3823512,3.461403,-0.11141214,-0.7611535,-2.2156153,-0.5032039,6.636859
1747679577.3828697,3.461403,-0.11141214,-0.7611535,-2.2156153,-0.5032039,6.636859
1747679577.3833885,3.461403,-0.11141214,-0.7611535,-2.2156153,-0.5032039,6.636859
1747679577.383907,3.461403,-0.11141214,-0.7611535,-2.2156153,-0.5032039,6.636859
1747679577.38444,3.461403,-0.11141214,-0.7611535,-2.2156153,-0.5032039,6.636859
1747679577.3849773,3.461403,-0.11141214,-0.7611535,-2.2156153,-0.5032039,6.636859
1747679577.3855007,3.461403,-0.11141214,-0.7611535,-2.2156153,-0.5032039,6.636859
1747679577.38602,3.461403,-0.11141214,-0.7611535,-2.2156153,-0.5032039,6.636859
1747679577.3865383,3.461403,-0.11141214,-0.7611535,-2.2156153,-0.5032039,6.636859
1747679577.3870568,3.461403,-0.11141214,-0.7611535,-2.2156153,-0.5032039,6.636859
1747679577.3875759,3.461403,-0.11141214,-0.7611535,-2.2156153,-0.5032039,6.636859
1747679577.3881013,3.461403,-0.11141214,-0.7611535,-2.2156153,-0.5032039,6.636859
1747679577.3886275,3.461403,-0.11141214,-0.7611535,-2.2156153,-0.5032039,6.636859
1747679577.3891516,3.461403,-0.11141214,-0.7611535,-3.3714263,-0.39667755,6.5516376
1747679577.3896744,3.418937,0.05503491,-0.5917778,-3.3714263,-0.39667755,6.5516376
1747679577.3901947,3.418937,0.05503491,-0.5917778,-3.3714263,-0.39667755,6.5516376
1747679577.3907163,3.418937,0.05503491,-0.5917778,-3.3714263,-0.39667755,6.5516376
1747679577.3912406,3.418937,0.05503491,-0.5917778,-3.3714263,-0.39667755,6.5516376
1747679577.3920927,3.418937,0.05503491,-0.5917778,-3.3714263,-0.39667755,6.5516376
1747679577.392639,3.418937,0.05503491,-0.5917778,-3.3714263,-0.39667755,6.5516376
1747679577.393172,3.418937,0.05503491,-0.5917778,-3.3714263,-0.39667755,6.5516376
1747679577.3937094,3.418937,0.05503491,-0.5917778,-3.3714263,-0.39667755,6.5516376
1747679577.3942556,3.418937,0.05503491,-0.5917778,-3.3714263,-0.39667755,6.5516376
1747679577.3947809,3.418937,0.05503491,-0.5917778,-3.3714263,-0.39667755,6.5516376
1747679577.3953004,3.418937,0.05503491,-0.5917778,-3.3714263,-0.39667755,6.5516376
1747679577.3958192,3.418937,0.05503491,-0.5917778,-3.3714263,-0.39667755,6.5516376
1747679577.3963382,3.418937,0.05503491,-0.5917778,-3.3714263,-0.39667755,6.5516376
1747679577.3968568,3.418937,0.05503491,-0.5917778,-3.3714263,-0.39667755,6.5516376
1747679577.3973756,3.418937,0.05503491,-0.5917778,-3.3714263,-0.39667755,6.5516376
1747679577.397894,3.418937,0.05503491,-0.5917778,-3.3714263,-0.39667755,6.5516376
1747679577.3984125,3.418937,0.05503491,-0.5917778,-3.3714263,-0.39667755,6.5516376
1747679577.3989313,3.418937,0.05503491,-0.5917778,-3.3714263,-0.39667755,6.5516376
1747679577.3994496,3.418937,0.05503491,-0.5917778,-3.3714263,-0.39667755,6.5516376
1747679577.3999681,3.418937,0.05503491,-0.5917778,-3.3714263,-0.39667755,6.5516376
1747679577.400487,3.418937,0.05503491,-0.5917778,-3.3714263,-0.39667755,6.5516376
1747679577.4010136,3.4008768,0.14826478,-0.39360332,-3.9189718,-0.37963334,6.4419155
1747679577.4015374,3.4008768,0.14826478,-0.39360332,-3.9189718,-0.37963334,6.4419155
1747679577.402057,3.4008768,0.14826478,-0.39360332,-3.9189718,-0.37963334,6.4419155
1747679577.4025776,3.4008768,0.14826478,-0.39360332,-3.9189718,-0.37963334,6.4419155
1747679577.4031634,3.4008768,0.14826478,-0.39360332,-3.9189718,-0.37963334,6.4419155
1747679577.4037266,3.4008768,0.14826478,-0.39360332,-3.9189718,-0.37963334,6.4419155
1747679577.4042716,3.4008768,0.14826478,-0.39360332,-3.9189718,-0.37963334,6.4419155
1747679577.4048097,3.4008768,0.14826478,-0.39360332,-3.9189718,-0.37963334,6.4419155
1747679577.4053433,3.4008768,0.14826478,-0.39360332,-3.9189718,-0.37963334,6.4419155
1747679577.4058635,3.4008768,0.14826478,-0.39360332,-3.9189718,-0.37963334,6.4419155
1747679577.4063826,3.4008768,0.14826478,-0.39360332,-3.9189718,-0.37963334,6.4419155
1747679577.4069016,3.4008768,0.14826478,-0.39360332,-3.9189718,-0.37963334,6.4419155
1747679577.407425,3.4008768,0.14826478,-0.39360332,-3.9189718,-0.37963334,6.4419155
1747679577.408345,3.4008768,0.14826478,-0.39360332,-3.9189718,-0.37963334,6.4419155
1747679577.4088912,3.4008768,0.14826478,-0.39360332,-3.9189718,-0.37963334,6.4419155
1747679577.4094238,3.4008768,0.14826478,-0.39360332,-3.9189718,-0.37963334,6.4419155
1747679577.409944,3.4008768,0.14826478,-0.39360332,-3.9189718,-0.37963334,6.4419155
1747679577.4104636,3.4008768,0.14826478,-0.39360332,-3.9189718,-0.37963334,6.4419155
1747679577.4109824,3.4008768,0.14826478,-0.39360332,-3.9189718,-0.37963334,6.4419155
1747679577.4115062,3.3657324,0.27761513,-0.08267439,-4.4175153,-0.39667755,6.252299
1747679577.4120288,3.3657324,0.27761513,-0.08267439,-4.4175153,-0.39667755,6.252299
1747679577.4125483,3.3657324,0.27761513,-0.08267439,-4.4175153,-0.39667755,6.252299
1747679577.4130669,3.3657324,0.27761513,-0.08267439,-4.4175153,-0.39667755,6.252299
1747679577.4136033,3.3657324,0.27761513,-0.08267439,-4.4175153,-0.39667755,6.252299
1747679577.4141493,3.3657324,0.27761513,-0.08267439,-4.4175153,-0.39667755,6.252299
1747679577.4146743,3.3657324,0.27761513,-0.08267439,-4.4175153,-0.39667755,6.252299
1747679577.4151933,3.3657324,0.27761513,-0.08267439,-4.4175153,-0.39667755,6.252299
1747679577.415712,3.3657324,0.27761513,-0.08267439,-4.4175153,-0.39667755,6.252299
1747679577.416231,3.3657324,0.27761513,-0.08267439,-4.4175153,-0.39667755,6.252299
1747679577.4167497,3.3657324,0.27761513,-0.08267439,-4.4175153,-0.39667755,6.252299
1747679577.4172683,3.3657324,0.27761513,-0.08267439,-4.4175153,-0.39667755,6.252299
1747679577.4177866,3.3657324,0.27761513,-0.08267439,-4.4175153,-0.39667755,6.252299
1747679577.4183185,3.3657324,0.27761513,-0.08267439,-4.4175153,-0.39667755,6.252299
1747679577.4188547,3.3657324,0.27761513,-0.08267439,-4.4175153,-0.39667755,6.252299
1747679577.4193797,3.3657324,0.27761513,-0.08267439,-4.4175153,-0.39667755,6.252299
1747679577.419899,3.3657324,0.27761513,-0.08267439,-4.4175153,-0.39667755,6.252299
1747679577.4204178,3.3657324,0.27761513,-0.08267439,-4.4175153,-0.39667755,6.252299
1747679577.4209363,3.3657324,0.27761513,-0.08267439,-4.4175153,-0.39667755,6.252299
1747679577.421455,3.3657324,0.27761513,-0.08267439,-4.4175153,-0.39667755,6.252299
1747679577.4219732,3.3657324,0.27761513,-0.08267439,-4.4175153,-0.39667755,6.252299
1747679577.422497,3.3657324,0.27761513,-0.08267439,-4.4175153,-0.39667755,6.252299
1747679577.4233556,3.3657324,0.27761513,-0.08267439,-4.4175153,-0.39667755,6.252299
1747679577.4239109,3.317897,0.44552648,0.2804828,-4.4175153,-0.39667755,6.252299
1747679577.424457,3.317897,0.44552648,0.2804828,-4.4175153,-0.39667755,6.252299
1747679577.424982,3.317897,0.44552648,0.2804828,-4.4175153,-0.39667755,6.252299
1747679577.425501,3.317897,0.44552648,0.2804828,-4.4175153,-0.39667755,6.252299
1747679577.4260201,3.317897,0.44552648,0.2804828,-4.4175153,-0.39667755,6.252299
1747679577.426539,3.317897,0.44552648,0.2804828,-4.4175153,-0.39667755,6.252299
1747679577.427058,3.317897,0.44552648,0.2804828,-4.4175153,-0.39667755,6.252299
1747679577.427576,3.317897,0.44552648,0.2804828,-4.4175153,-0.39667755,6.252299
1747679577.4280977,3.21881,0.64223665,0.66951007,-4.4175153,-0.39667755,6.252299
1747679577.4286232,3.21881,0.64223665,0.66951007,-4.4175153,-0.39667755,6.252299
1747679577.4291508,3.21881,0.64223665,0.66951007,-4.6273723,-0.26671538,5.5279193
1747679577.4296734,3.21881,0.64223665,0.66951007,-4.6273723,-0.26671538,5.5279193
1747679577.4301934,3.21881,0.64223665,0.66951007,-4.6273723,-0.26671538,5.5279193
1747679577.4307125,3.21881,0.64223665,0.66951007,-4.6273723,-0.26671538,5.5279193
1747679577.431231,3.21881,0.64223665,0.66951007,-4.6273723,-0.26671538,5.5279193
1747679577.431749,3.21881,0.64223665,0.66951007,-4.6273723,-0.26671538,5.5279193
1747679577.4322677,3.21881,0.64223665,0.66951007,-4.6273723,-0.26671538,5.5279193
1747679577.4327862,3.21881,0.64223665,0.66951007,-4.6273723,-0.26671538,5.5279193
1747679577.4333045,3.21881,0.64223665,0.66951007,-4.6273723,-0.26671538,5.5279193
1747679577.4339733,3.21881,0.64223665,0.66951007,-4.6273723,-0.26671538,5.5279193
1747679577.4345276,3.21881,0.64223665,0.66951007,-4.6273723,-0.26671538,5.5279193
1747679577.43507,3.21881,0.64223665,0.66951007,-4.6273723,-0.26671538,5.5279193
1747679577.4356093,3.21881,0.64223665,0.66951007,-4.6273723,-0.26671538,5.5279193
1747679577.4361427,3.21881,0.64223665,0.66951007,-4.6273723,-0.26671538,5.5279193
1747679577.4366627,3.21881,0.64223665,0.66951007,-4.6273723,-0.26671538,5.5279193
1747679577.4372294,3.21881,0.64223665,0.66951007,-4.6273723,-0.26671538,5.5279193
1747679577.4377558,3.21881,0.64223665,0.66951007,-4.6273723,-0.26671538,5.5279193
1747679577.4387865,3.21881,0.64223665,0.66951007,-4.4185805,-0.24221432,5.1050096
1747679577.439331,3.21881,0.64223665,0.66951007,-4.4185805,-0.24221432,5.1050096
1747679577.4398644,3.21881,0.64223665,0.66951007,-4.4185805,-0.24221432,5.1050096
1747679577.4403849,3.21881,0.64223665,0.66951007,-4.4185805,-0.24221432,5.1050096
1747679577.4409041,3.21881,0.64223665,0.66951007,-4.4185805,-0.24221432,5.1050096
1747679577.4414234,3.21881,0.64223665,0.66951007,-4.4185805,-0.24221432,5.1050096
1747679577.4419422,3.21881,0.64223665,0.66951007,-4.4185805,-0.24221432,5.1050096
1747679577.4424615,3.21881,0.64223665,0.66951007,-4.4185805,-0.24221432,5.1050096
1747679577.4429832,3.21881,0.64223665,0.66951007,-4.4185805,-0.24221432,5.1050096
1747679577.4435048,3.21881,0.64223665,0.66951007,-4.4185805,-0.24221432,5.1050096
1747679577.4440413,3.21881,0.64223665,0.66951007,-4.4185805,-0.24221432,5.1050096
1747679577.4445903,3.21881,0.64223665,0.66951007,-4.4185805,-0.24221432,5.1050096
1747679577.4451172,3.21881,0.64223665,0.66951007,-4.4185805,-0.24221432,5.1050096
1747679577.445639,3.21881,0.64223665,0.66951007,-4.4185805,-0.24221432,5.1050096
1747679577.4461603,3.21881,0.64223665,0.66951007,-4.4185805,-0.24221432,5.1050096
1747679577.4466817,3.21881,0.64223665,0.66951007,-4.4185805,-0.24221432,5.1050096
1747679577.4472034,3.21881,0.64223665,0.66951007,-4.4185805,-0.24221432,5.1050096
1747679577.447725,3.21881,0.64223665,0.66951007,-4.4185805,-0.24221432,5.1050096
1747679577.4482462,3.21881,0.64223665,0.66951007,-4.4185805,-0.24221432,5.1050096
1747679577.4487677,3.21881,0.64223665,0.66951007,-4.4185805,-0.24221432,5.1050096
1747679577.4493425,3.21881,0.64223665,0.66951007,-4.4185805,-0.24221432,5.1050096
1747679577.4498794,3.21881,0.64223665,0.66951007,-4.4185805,-0.24221432,5.1050096
1747679577.4504046,3.21881,0.64223665,0.66951007,-4.4185805,-0.24221432,5.1050096
1747679577.450926,3.21881,0.64223665,0.66951007,-4.4185805,-0.24221432,5.1050096
1747679577.4514477,3.21881,0.64223665,0.66951007,-4.4185805,-0.24221432,5.1050096
1747679577.4519734,2.7209332,1.0268708,1.0507275,-4.4185805,-0.24221432,5.1050096
1747679577.4524963,2.7209332,1.0268708,1.0507275,-4.4185805,-0.24221432,5.1050096
1747679577.453018,2.7209332,1.0268708,1.0507275,-4.4185805,-0.24221432,5.1050096
1747679577.4535391,2.7209332,1.0268708,1.0507275,-4.4185805,-0.24221432,5.1050096
1747679577.454066,2.7209332,1.0268708,1.0507275,-4.4185805,-0.24221432,5.1050096
1747679577.4549227,2.7209332,1.0268708,1.0507275,-4.4185805,-0.24221432,5.1050096
1747679577.4554722,2.7209332,1.0268708,1.0507275,-4.4185805,-0.24221432,5.1050096
1747679577.456001,2.7209332,1.0268708,1.0507275,-4.4185805,-0.24221432,5.1050096
1747679577.4565227,2.7209332,1.0268708,1.0507275,-4.4185805,-0.24221432,5.1050096
1747679577.4570441,2.7209332,1.0268708,1.0507275,-4.4185805,-0.24221432,5.1050096
1747679577.4575658,2.7209332,1.0268708,1.0507275,-4.4185805,-0.24221432,5.1050096
1747679577.4580948,2.7209332,1.0268708,1.0507275,-4.4185805,-0.24221432,5.1050096
1747679577.458603,2.7209332,1.0268708,1.0507275,-4.4185805,-0.24221432,5.1050096
1747679577.4591267,2.7209332,1.0268708,1.0507275,-4.4185805,-0.24221432,5.1050096
1747679577.45965,2.3543594,1.1630548,1.1200397,-3.5429337,-0.41904807,3.8916743
1747679577.4601703,2.3543594,1.1630548,1.1200397,-3.5429337,-0.41904807,3.8916743
1747679577.460691,2.3543594,1.1630548,1.1200397,-3.5429337,-0.41904807,3.8916743
1747679577.461211,2.3543594,1.1630548,1.1200397,-3.5429337,-0.41904807,3.8916743
