timestamp,acc_x,acc_y,acc_z,gyro_x,gyro_y,gyro_z
1747672431.314983,-0.39323723,0.8511496,-0.12953338,-0.5997434,-0.15819165,-0.08269109
1747672431.3162937,-0.39323723,0.8511496,-0.12953338,-0.5997434,-0.15819165,-0.08269109
1747672431.3170145,-0.39323723,0.8511496,-0.12953338,-0.5997434,-0.15819165,-0.08269109
1747672431.3177652,-0.39323723,0.8511496,-0.12953338,-0.5997434,-0.15819165,-0.08269109
1747672431.318479,-0.39323723,0.8511496,-0.12953338,-0.5997434,-0.15819165,-0.08269109
1747672431.3191867,-0.39323723,0.8511496,-0.12953338,-0.5997434,-0.15819165,-0.08269109
1747672431.3200467,-0.39323723,0.8511496,-0.12953338,-0.5997434,-0.15819165,-0.08269109
1747672431.321537,-0.39323723,0.8511496,-0.12953338,-0.5997434,-0.15819165,-0.08269109
1747672431.3222964,-0.39323723,0.8511496,-0.12953338,-0.5997434,-0.15819165,-0.08269109
1747672431.3230648,-0.306841,0.82186276,-0.1466174,-0.52304447,-0.16564849,-0.050733183
1747672431.323789,-0.306841,0.82186276,-0.1466174,-0.52304447,-0.16564849,-0.050733183
1747672431.3245378,-0.306841,0.82186276,-0.1466174,-0.52304447,-0.16564849,-0.050733183
1747672431.3252504,-0.306841,0.82186276,-0.1466174,-0.52304447,-0.16564849,-0.050733183
1747672431.3259592,-0.306841,0.82186276,-0.1466174,-0.52304447,-0.16564849,-0.050733183
1747672431.3266723,-0.306841,0.82186276,-0.1466174,-0.52304447,-0.16564849,-0.050733183
1747672431.3275387,-0.306841,0.82186276,-0.1466174,-0.52304447,-0.16564849,-0.050733183
1747672431.3285778,-0.306841,0.82186276,-0.1466174,-0.52304447,-0.16564849,-0.050733183
1747672431.3293076,-0.306841,0.82186276,-0.1466174,-0.52304447,-0.16564849,-0.050733183
1747672431.3308144,-0.306841,0.82186276,-0.1466174,-0.52304447,-0.16564849,-0.050733183
1747672431.399664,-0.29170942,0.54803056,-0.075352676,-0.3749728,0.17843166,-0.5013397
1747672431.411689,-0.6246035,0.3820716,-0.19689319,-0.13635375,0.03142528,-0.43635863
1747672431.4135923,-0.6246035,0.3820716,-0.19689319,-0.13635375,0.03142528,-0.43635863
1747672431.4146495,-0.6246035,0.3820716,-0.19689319,-0.13635375,0.03142528,-0.43635863
1747672431.4156048,-0.6246035,0.3820716,-0.19689319,-0.13635375,0.03142528,-0.43635863
1747672431.4163465,-0.6246035,0.3820716,-0.19689319,-0.13635375,0.03142528,-0.43635863
1747672431.4171617,-0.6246035,0.3820716,-0.19689319,-0.1640506,-0.692954,0.07922898
1747672431.4180315,-0.93113935,0.3278909,-0.37407872,-0.1640506,-0.692954,0.07922898
1747672431.4190044,-0.93113935,0.3278909,-0.37407872,-0.1640506,-0.692954,0.07922898
1747672431.4197335,-0.93113935,0.3278909,-0.37407872,-0.1640506,-0.692954,0.07922898
1747672431.4204922,-0.93113935,0.3278909,-0.37407872,-0.1640506,-0.692954,0.07922898
1747672431.4212103,-0.93113935,0.3278909,-0.37407872,-0.1640506,-0.692954,0.07922898
1747672431.4219234,-0.93113935,0.3278909,-0.37407872,-0.1640506,-0.692954,0.07922898
1747672431.4226415,-0.93113935,0.3278909,-0.37407872,-0.1640506,-0.692954,0.07922898
1747672431.4686637,-0.49769372,-0.18218873,-0.31696934,-1.4583459,0.6109287,1.5610107
1747672431.469662,-0.49769372,-0.18218873,-0.31696934,-1.4583459,0.6109287,1.5610107
1747672431.470661,-0.49769372,-0.18218873,-0.31696934,-1.4583459,0.6109287,1.5610107
1747672431.4721482,-0.49769372,-0.18218873,-0.31696934,-1.4583459,0.6109287,1.5610107
1747672431.4726508,-0.49769372,-0.18218873,-0.31696934,-1.4583459,0.6109287,1.5610107
1747672431.5068643,-0.23606437,-0.6190512,-0.0626617,-0.9896299,-1.3363732,2.576207
1747672431.5086558,-0.23606437,-0.6190512,-0.0626617,-0.9896299,-1.3363732,2.576207
1747672431.5100434,-0.23606437,-0.6190512,-0.0626617,-0.9896299,-1.3363732,2.576207
1747672431.5106466,-0.23606437,-0.6190512,-0.0626617,-0.9896299,-1.3363732,2.576207
1747672431.5116434,-0.23606437,-0.6190512,-0.0626617,-0.9896299,-1.3363732,2.576207
1747672431.5126479,-0.23606437,-0.6190512,-0.0626617,-0.9896299,-1.3363732,2.576207
1747672431.5136483,-0.23606437,-0.6190512,-0.0626617,-0.9896299,-1.3363732,2.576207
1747672431.5146513,-0.23606437,-0.6190512,-0.0626617,-0.9896299,-1.3363732,2.576207
1747672431.5156484,-0.20092013,-0.70837617,-0.09146046,-0.9246488,-1.6815187,2.8574367
1747672431.5166533,-0.20092013,-0.70837617,-0.09146046,-0.9246488,-1.6815187,2.8574367
1747672431.5176668,-0.20092013,-0.70837617,-0.09146046,-0.9246488,-1.6815187,2.8574367
1747672431.5186625,-0.20092013,-0.70837617,-0.09146046,-0.9246488,-1.6815187,2.8574367
1747672431.552927,0.06803096,-0.9241227,-0.19542885,-1.1046784,-1.9670093,4.128296
1747672431.5545151,0.06803096,-0.9241227,-0.19542885,-1.1046784,-1.9670093,4.128296
1747672431.5553098,0.21837021,-0.99050635,-0.3316128,-1.482847,-1.7560871,4.532031
1747672431.5560796,0.21837021,-0.99050635,-0.3316128,-1.482847,-1.7560871,4.532031
1747672431.5567975,0.21837021,-0.99050635,-0.3316128,-1.482847,-1.7560871,4.532031
1747672431.5578017,0.21837021,-0.99050635,-0.3316128,-1.482847,-1.7560871,4.532031
1747672431.558804,0.21837021,-0.99050635,-0.3316128,-1.482847,-1.7560871,4.532031
1747672431.5598087,0.21837021,-0.99050635,-0.3316128,-1.482847,-1.7560871,4.532031
1747672431.5608008,0.21837021,-0.99050635,-0.3316128,-1.482847,-1.7560871,4.532031
1747672431.5618052,0.21837021,-0.99050635,-0.3316128,-1.482847,-1.7560871,4.532031
1747672431.5628061,0.21837021,-0.99050635,-0.3316128,-1.482847,-1.7560871,4.532031
1747672431.5638034,0.21837021,-0.99050635,-0.3316128,-1.482847,-1.7560871,4.532031
1747672431.5648713,0.21837021,-0.99050635,-0.3316128,-2.1220052,-1.4823143,4.895286
1747672431.5658138,0.5825036,-1.0705571,-0.40531808,-2.1220052,-1.4823143,4.895286
1747672431.601292,1.3176041,-1.1081419,0.60263836,-3.9627807,-1.0668615,4.733366
1747672431.6043782,1.3176041,-1.1081419,0.60263836,-3.9627807,-1.0668615,4.733366
1747672431.6052282,1.3176041,-1.1081419,0.60263836,-3.9627807,-1.0668615,4.733366
1747672431.6059744,1.3176041,-1.1081419,0.60263836,-3.9627807,-1.0668615,4.733366
1747672431.6066854,1.3176041,-1.1081419,0.60263836,-3.9627807,-1.0668615,4.733366
1747672431.6073868,1.3176041,-1.1081419,0.60263836,-3.9627807,-1.0668615,4.733366
1747672431.6081128,1.3176041,-1.1081419,0.60263836,-3.9627807,-1.0668615,4.733366
1747672431.6088123,1.3176041,-1.1081419,0.60263836,-3.988347,-1.1659311,4.757867
1747672431.6095018,1.1843488,-1.0861768,1.2713553,-3.988347,-1.1659311,4.757867
1747672431.6101937,1.1843488,-1.0861768,1.2713553,-3.988347,-1.1659311,4.757867
1747672431.6113849,1.1843488,-1.0861768,1.2713553,-3.988347,-1.1659311,4.757867
1747672431.6121202,1.1843488,-1.0861768,1.2713553,-3.988347,-1.1659311,4.757867
1747672431.6447592,1.3337119,-1.1764779,2.0923638,-1.8088176,-1.670866,5.530183
1747672431.6458178,1.3337119,-1.1764779,2.0923638,-0.96299833,-1.9584872,5.7347136
1747672431.6465743,1.4552523,-1.113023,1.799007,-0.96299833,-1.9584872,5.7347136
1747672431.6473274,1.4552523,-1.113023,1.799007,-0.96299833,-1.9584872,5.7347136
1747672431.648104,1.4552523,-1.113023,1.799007,-0.96299833,-1.9584872,5.7347136
1747672431.6488194,1.4552523,-1.113023,1.799007,-0.96299833,-1.9584872,5.7347136
1747672431.6495185,1.4552523,-1.113023,1.799007,-0.96299833,-1.9584872,5.7347136
1747672431.6502006,1.4552523,-1.113023,1.799007,-0.96299833,-1.9584872,5.7347136
1747672431.650898,1.4552523,-1.113023,1.799007,-0.96299833,-1.9584872,5.7347136
1747672431.6516027,1.4552523,-1.113023,1.799007,-0.96299833,-1.9584872,5.7347136
1747672431.6522977,1.4552523,-1.113023,1.799007,-0.96299833,-1.9584872,5.7347136
1747672431.6530166,1.6656297,-0.9900182,1.1883757,-0.96299833,-1.9584872,5.7347136
1747672431.6537719,1.6656297,-0.9900182,1.1883757,-0.5773729,-2.1097546,5.906221
1747672431.6545014,1.6656297,-0.9900182,1.1883757,-0.5773729,-2.1097546,5.906221
1747672431.6552005,1.6656297,-0.9900182,1.1883757,-0.5773729,-2.1097546,5.906221
1747672431.6558864,1.6656297,-0.9900182,1.1883757,-0.5773729,-2.1097546,5.906221
1747672431.6565812,1.6656297,-0.9900182,1.1883757,-0.5773729,-2.1097546,5.906221
1747672431.6572988,1.6656297,-0.9900182,1.1883757,-0.5773729,-2.1097546,5.906221
1747672431.6580193,1.6656297,-0.9900182,1.1883757,-0.5773729,-2.1097546,5.906221
1747672431.6587634,1.6656297,-0.9900182,1.1883757,-0.5773729,-2.1097546,5.906221
1747672431.6829522,2.0570977,-0.86896586,0.6231392,-2.0133483,-1.024251,5.825261
1747672431.6843228,2.5330093,-0.7313175,0.36443847,-2.0133483,-1.024251,5.825261
1747672431.6852405,2.5330093,-0.7313175,0.36443847,-2.0133483,-1.024251,5.825261
1747672431.6859848,2.5330093,-0.7313175,0.36443847,-2.0133483,-1.024251,5.825261
1747672431.6867418,2.5330093,-0.7313175,0.36443847,-2.6844645,-0.44048652,5.6697326
1747672431.6874607,2.775114,-0.6810417,0.46206135,-2.6844645,-0.44048652,5.6697326
1747672431.68816,2.775114,-0.6810417,0.46206135,-2.6844645,-0.44048652,5.6697326
1747672431.6888514,2.775114,-0.6810417,0.46206135,-2.6844645,-0.44048652,5.6697326
1747672431.6896052,2.775114,-0.6810417,0.46206135,-2.6844645,-0.44048652,5.6697326
1747672431.6904047,2.775114,-0.6810417,0.46206135,-2.6844645,-0.44048652,5.6697326
1747672431.7143164,3.0635896,-0.6654221,0.87549436,-3.664507,0.50440234,5.2691936
1747672431.715131,3.0635896,-0.6654221,0.87549436,-3.664507,0.50440234,5.2691936
1747672431.7159157,3.0635896,-0.6654221,0.87549436,-3.664507,0.50440234,5.2691936
1747672431.7166326,3.0635896,-0.6654221,0.87549436,-3.664507,0.50440234,5.2691936
1747672431.7174504,3.1285088,-0.6473618,1.5564141,-4.3089914,1.1893668,4.6481447
1747672431.718179,3.1285088,-0.6473618,1.5564141,-4.3089914,1.1893668,4.6481447
1747672431.7188766,3.1285088,-0.6473618,1.5564141,-4.3089914,1.1893668,4.6481447
1747672431.7195935,3.1285088,-0.6473618,1.5564141,-4.3089914,1.1893668,4.6481447
1747672431.720393,2.9391205,-0.6024553,2.1079836,-4.2035303,1.1254511,4.06438
1747672431.7211335,2.9391205,-0.6024553,2.1079836,-4.2035303,1.1254511,4.06438
1747672431.7454321,2.5618079,-0.4906771,2.2797997,-3.7465322,0.72704244,3.7373443
1747672431.7463288,2.5618079,-0.4906771,2.2797997,-3.3119047,0.22849905,3.635079
1747672431.7470949,2.5720584,-0.41062632,2.1797361,-2.7686203,-0.34035173,3.5392053
1747672431.747841,2.5720584,-0.41062632,2.1797361,-2.7686203,-0.34035173,3.5392053
1747672431.7485948,2.5720584,-0.41062632,2.1797361,-2.7686203,-0.34035173,3.5392053
1747672431.749315,2.5720584,-0.41062632,2.1797361,-2.7686203,-0.34035173,3.5392053
1747672431.7500098,2.5720584,-0.41062632,2.1797361,-2.7686203,-0.34035173,3.5392053
1747672431.7506962,2.5720584,-0.41062632,2.1797361,-2.7686203,-0.34035173,3.5392053
1747672431.7514634,2.5720584,-0.41062632,2.1797361,-2.7686203,-0.34035173,3.5392053
1747672431.752218,2.5720584,-0.41062632,2.1797361,-2.7686203,-0.34035173,3.5392053
1747672431.7770758,2.9723122,-0.20708257,1.3909433,-2.4703465,-0.7046719,3.137601
1747672431.7779026,2.9645023,-0.025503982,1.2410922,-2.7121613,-0.4053328,2.9788766
1747672431.7786846,2.9645023,-0.025503982,1.2410922,-2.7121613,-0.4053328,2.9788766
1747672431.7794192,2.9645023,-0.025503982,1.2410922,-2.7121613,-0.4053328,2.9788766
1747672431.7801523,2.9645023,-0.025503982,1.2410922,-2.7121613,-0.4053328,2.9788766
1747672431.7808695,2.9645023,-0.025503982,1.2410922,-2.7121613,-0.4053328,2.9788766
1747672431.7815654,2.9645023,-0.025503982,1.2410922,-2.7121613,-0.4053328,2.9788766
1747672431.782269,2.9645023,-0.025503982,1.2410922,-2.7121613,-0.4053328,2.9788766
1747672431.7830505,2.9645023,-0.025503982,1.2410922,-2.7121613,-0.4053328,2.9788766
1747672431.7837963,2.9645023,-0.025503982,1.2410922,-2.7121613,-0.4053328,2.9788766
1747672431.80831,3.1084962,0.1692537,1.1727561,-3.046654,-0.05592634,2.5016384
1747672431.809397,3.4667723,0.3786548,1.0595136,-3.046654,-0.05592634,2.5016384
1747672431.810148,3.598075,0.4294187,1.0180237,-3.071155,-0.22530326,2.0765984
1747672431.8109004,3.598075,0.4294187,1.0180237,-3.071155,-0.22530326,2.0765984
1747672431.8116271,3.598075,0.4294187,1.0180237,-3.071155,-0.22530326,2.0765984
1747672431.8123243,3.598075,0.4294187,1.0180237,-3.071155,-0.22530326,2.0765984
1747672431.8130062,3.598075,0.4294187,1.0180237,-3.071155,-0.22530326,2.0765984
1747672431.8136985,3.598075,0.4294187,1.0180237,-3.071155,-0.22530326,2.0765984
1747672431.8144822,3.598075,0.4294187,1.0180237,-3.071155,-0.22530326,2.0765984
1747672431.8152523,3.598075,0.4294187,1.0180237,-3.071155,-0.22530326,2.0765984
1747672431.8397214,3.4731176,0.4108704,1.010702,-3.0391972,-0.63862556,1.4640718
1747672431.8408365,2.588166,0.21416025,0.9077099,-2.9486496,-1.5611439,0.7588672
1747672431.8416498,2.588166,0.21416025,0.9077099,-2.9486496,-1.5611439,0.7588672
1747672431.842475,2.588166,0.21416025,0.9077099,-2.9486496,-1.5611439,0.7588672
1747672431.8432572,2.588166,0.21416025,0.9077099,-2.9486496,-1.5611439,0.7588672
1747672431.8439953,2.1649709,0.30299708,0.5845781,-3.224553,-1.4982933,0.8313051
1747672431.8447273,2.1649709,0.30299708,0.5845781,-3.224553,-1.4982933,0.8313051
1747672431.845481,2.1649709,0.30299708,0.5845781,-3.224553,-1.4982933,0.8313051
1747672431.8462799,2.1649709,0.30299708,0.5845781,-3.224553,-1.4982933,0.8313051
1747672431.847048,2.1649709,0.30299708,0.5845781,-3.224553,-1.4982933,0.8313051
1747672431.8548715,2.1649709,0.30299708,0.5845781,-3.224553,-1.4982933,0.8313051
1747672431.870127,2.1073732,0.14728855,0.39421347,-4.581699,0.045273706,1.25528
1747672431.8769858,2.1073732,0.14728855,0.39421347,-4.581699,0.045273706,1.25528
1747672431.8778276,2.0043812,0.06040417,0.90966237,-4.9353666,-0.09427583,1.331979
1747672431.8786175,2.0043812,0.06040417,0.90966237,-4.9353666,-0.09427583,1.331979
1747672431.8793728,2.0043812,0.06040417,0.90966237,-4.9353666,-0.09427583,1.331979
1747672431.8801525,2.0043812,0.06040417,0.90966237,-4.9353666,-0.09427583,1.331979
1747672431.8808553,2.0043812,0.06040417,0.90966237,-4.9353666,-0.09427583,1.331979
1747672431.881529,2.0043812,0.06040417,0.90966237,-4.9353666,-0.09427583,1.331979
1747672431.8821979,2.0043812,0.06040417,0.90966237,-4.9353666,-0.09427583,1.331979
1747672431.88288,2.0043812,0.06040417,0.90966237,-4.9353666,-0.09427583,1.331979
1747672431.8836343,2.0043812,0.06040417,0.90966237,-4.9353666,-0.09427583,1.331979
1747672431.8843474,2.0043812,0.06040417,0.90966237,-4.9353666,-0.09427583,1.331979
1747672431.8850539,2.0043812,0.06040417,0.90966237,-4.9353666,-0.09427583,1.331979
1747672431.8857896,2.0043812,0.06040417,0.90966237,-4.9353666,-0.09427583,1.331979
1747672431.886521,1.866733,0.15509838,1.3567753,-4.7734466,-0.69614977,1.4395707
1747672431.8872094,1.866733,0.15509838,1.3567753,-4.7734466,-0.69614977,1.4395707
1747672431.8878822,1.866733,0.15509838,1.3567753,-4.7734466,-0.69614977,1.4395707
1747672431.8885634,1.866733,0.15509838,1.3567753,-4.7734466,-0.69614977,1.4395707
1747672431.8893085,1.866733,0.15509838,1.3567753,-4.7734466,-0.69614977,1.4395707
1747672431.8900182,1.866733,0.15509838,1.3567753,-4.7734466,-0.69614977,1.4395707
1747672431.8907812,1.866733,0.15509838,1.3567753,-4.7734466,-0.69614977,1.4395707
1747672431.8914573,1.866733,0.15509838,1.3567753,-4.7734466,-0.69614977,1.4395707
1747672431.8921292,1.866733,0.15509838,1.3567753,-4.7734466,-0.69614977,1.4395707
1747672431.8928695,1.866733,0.15509838,1.3567753,-4.7734466,-0.69614977,1.4395707
1747672431.8936465,1.866733,0.15509838,1.3567753,-4.7734466,-0.69614977,1.4395707
1747672431.8944468,1.866733,0.15509838,1.3567753,-4.7734466,-0.69614977,1.4395707
1747672431.9250858,1.9048058,0.596842,2.0108488,-2.4501064,-2.1566262,1.8486319
1747672431.9259515,1.9048058,0.596842,2.0108488,-2.4501064,-2.1566262,1.8486319
1747672431.9267206,1.9048058,0.596842,2.0108488,-2.4501064,-2.1566262,1.8486319
1747672431.927486,1.9048058,0.596842,2.0108488,-2.4501064,-2.1566262,1.8486319
1747672431.928251,1.9048058,0.596842,2.0108488,-2.4501064,-2.1566262,1.8486319
1747672431.9289997,1.8467201,0.7730513,1.8219483,-1.7843165,-1.9893799,1.8028256
1747672431.92976,1.8467201,0.7730513,1.8219483,-1.7843165,-1.9893799,1.8028256
1747672431.930505,1.8467201,0.7730513,1.8219483,-1.7843165,-1.9893799,1.8028256
1747672431.931246,1.8467201,0.7730513,1.8219483,-1.7843165,-1.9893799,1.8028256
1747672431.9319916,1.8467201,0.7730513,1.8219483,-1.7843165,-1.9893799,1.8028256
1747672431.932729,1.8467201,0.7730513,1.8219483,-1.7843165,-1.9893799,1.8028256
1747672431.9334643,1.8467201,0.7730513,1.8219483,-1.7843165,-1.9893799,1.8028256
1747672431.9342065,1.8467201,0.7730513,1.8219483,-1.7843165,-1.9893799,1.8028256
1747672431.935121,1.8467201,0.7730513,1.8219483,-1.7843165,-1.9893799,1.8028256
1747672431.935881,1.7051669,1.014668,1.4353616,-1.7843165,-1.9893799,1.8028256
1747672431.9366393,1.7051669,1.014668,1.4353616,-1.7843165,-1.9893799,1.8028256
1747672431.9373891,1.7051669,1.014668,1.4353616,-1.4040174,-1.7859145,1.7836508
1747672431.9381232,1.7051669,1.014668,1.4353616,-1.4040174,-1.7859145,1.7836508
1747672431.938856,1.7051669,1.014668,1.4353616,-1.4040174,-1.7859145,1.7836508
1747672431.939648,1.7051669,1.014668,1.4353616,-1.4040174,-1.7859145,1.7836508
1747672431.940439,1.7051669,1.014668,1.4353616,-1.4040174,-1.7859145,1.7836508
1747672431.9412086,1.7051669,1.014668,1.4353616,-1.4040174,-1.7859145,1.7836508
1747672431.9421082,1.7051669,1.014668,1.4353616,-1.4040174,-1.7859145,1.7836508
1747672431.9429216,1.7051669,1.014668,1.4353616,-1.4040174,-1.7859145,1.7836508
1747672431.9436834,1.7051669,1.014668,1.4353616,-1.4040174,-1.7859145,1.7836508
1747672431.94444,1.6602604,1.2689756,0.9828796,-1.4040174,-1.7859145,1.7836508
1747672431.9452279,1.6602604,1.2689756,0.9828796,-1.4476932,-1.5462302,1.699495
1747672431.9459803,1.6602604,1.2689756,0.9828796,-1.4476932,-1.5462302,1.699495
1747672431.9467099,1.6602604,1.2689756,0.9828796,-1.4476932,-1.5462302,1.699495
1747672431.9474647,1.6602604,1.2689756,0.9828796,-1.4476932,-1.5462302,1.699495
1747672431.948224,1.6602604,1.2689756,0.9828796,-1.4476932,-1.5462302,1.699495
1747672431.9489493,1.6602604,1.2689756,0.9828796,-1.4476932,-1.5462302,1.699495
1747672431.949665,1.6602604,1.2689756,0.9828796,-1.4476932,-1.5462302,1.699495
1747672431.950379,1.6602604,1.2689756,0.9828796,-1.4476932,-1.5462302,1.699495
1747672431.951097,1.6602604,1.2689756,0.9828796,-1.4476932,-1.5462302,1.699495
1747672431.9518154,1.6602604,1.2689756,0.9828796,-1.4476932,-1.5462302,1.699495
1747672431.9525354,1.6602604,1.2689756,0.9828796,-1.4476932,-1.5462302,1.699495
1747672431.9532738,1.6256043,1.3700153,0.8310759,-1.6831166,-1.3491564,1.5599455
1747672431.9540098,1.6256043,1.3700153,0.8310759,-1.6831166,-1.3491564,1.5599455
1747672431.9548163,1.6256043,1.3700153,0.8310759,-1.6831166,-1.3491564,1.5599455
1747672431.9555793,1.6256043,1.3700153,0.8310759,-1.6831166,-1.3491564,1.5599455
1747672431.956359,1.6256043,1.3700153,0.8310759,-1.6831166,-1.3491564,1.5599455
1747672431.9571054,1.6256043,1.3700153,0.8310759,-1.6831166,-1.3491564,1.5599455
1747672431.9578435,1.6256043,1.3700153,0.8310759,-1.6831166,-1.3491564,1.5599455
1747672431.9586065,1.6256043,1.3700153,0.8310759,-1.6831166,-1.3491564,1.5599455
1747672431.9593334,1.6256043,1.3700153,0.8310759,-1.6831166,-1.3491564,1.5599455
1747672431.9600513,1.6256043,1.3700153,0.8310759,-1.6831166,-1.3491564,1.5599455
1747672431.9729238,1.5289576,1.4388394,0.80813456,-2.0346537,-1.0359689,1.3042822
1747672431.989323,1.1116197,1.504735,1.0038685,-2.3286662,-0.6503435,0.9953557
1747672431.9901052,1.1116197,1.504735,1.0038685,-2.3286662,-0.6503435,0.9953557
1747672431.9909246,1.1116197,1.504735,1.0038685,-2.3286662,-0.6503435,0.9953557
1747672431.9916918,1.1116197,1.504735,1.0038685,-2.3286662,-0.6503435,0.9953557
1747672431.9924424,1.1116197,1.504735,1.0038685,-2.3286662,-0.6503435,0.9953557
1747672431.9931822,1.1116197,1.504735,1.0038685,-2.3286662,-0.6503435,0.9953557
1747672431.9939177,1.1116197,1.504735,1.0038685,-2.3286662,-0.6503435,0.9953557
1747672431.994634,1.1116197,1.504735,1.0038685,-2.416018,-0.11345058,0.36365438
1747672431.9953692,1.1116197,1.504735,1.0038685,-2.416018,-0.11345058,0.36365438
1747672431.996071,1.1116197,1.504735,1.0038685,-2.416018,-0.11345058,0.36365438
1747672431.9967706,1.1116197,1.504735,1.0038685,-2.416018,-0.11345058,0.36365438
1747672431.997467,1.1116197,1.504735,1.0038685,-2.416018,-0.11345058,0.36365438
1747672431.998166,1.1116197,1.504735,1.0038685,-2.416018,-0.11345058,0.36365438
1747672431.9988604,1.1116197,1.504735,1.0038685,-2.416018,-0.11345058,0.36365438
1747672431.9995565,1.1116197,1.504735,1.0038685,-2.416018,-0.11345058,0.36365438
1747672432.0002582,1.1116197,1.504735,1.0038685,-2.416018,-0.11345058,0.36365438
1747672432.0009992,1.1116197,1.504735,1.0038685,-2.416018,-0.11345058,0.36365438
1747672432.001767,1.1116197,1.504735,1.0038685,-2.416018,-0.11345058,0.36365438
1747672432.002513,1.1116197,1.504735,1.0038685,-2.416018,-0.11345058,0.36365438
1747672432.0032732,1.1116197,1.504735,1.0038685,-2.416018,-0.11345058,0.36365438
1747672432.0040588,1.1116197,1.504735,1.0038685,-2.1592894,0.04420844,0.02277001
1747672432.0048075,0.63522,1.5525701,1.2196151,-2.1592894,0.04420844,0.02277001
1747672432.0055318,0.63522,1.5525701,1.2196151,-2.1592894,0.04420844,0.02277001
1747672432.0063357,0.63522,1.5525701,1.2196151,-2.1592894,0.04420844,0.02277001
1747672432.0070825,0.63522,1.5525701,1.2196151,-2.1592894,0.04420844,0.02277001
1747672432.0077972,0.63522,1.5525701,1.2196151,-2.1592894,0.04420844,0.02277001
1747672432.0101018,0.63522,1.5525701,1.2196151,-2.1592894,0.04420844,0.02277001
1747672432.0386481,0.32185048,1.5633087,1.1673869,-1.5467628,-0.002663159,-0.45233756
1747672432.0394368,0.22373948,1.5364624,1.1014913,-1.1323752,-0.120907426,-0.70587033
1747672432.0401938,0.22373948,1.5364624,1.1014913,-1.1323752,-0.120907426,-0.70587033
1747672432.0409532,0.22373948,1.5364624,1.1014913,-1.1323752,-0.120907426,-0.70587033
1747672432.0416858,0.22373948,1.5364624,1.1014913,-1.1323752,-0.120907426,-0.70587033
1747672432.0423837,0.22373948,1.5364624,1.1014913,-1.1323752,-0.120907426,-0.70587033
1747672432.0430763,0.22373948,1.5364624,1.1014913,-1.1323752,-0.120907426,-0.70587033
1747672432.0437846,0.22373948,1.5364624,1.1014913,-1.1323752,-0.120907426,-0.70587033
1747672432.0454628,0.22373948,1.5364624,1.1014913,-1.1323752,-0.120907426,-0.70587033
1747672432.0463042,0.13831945,1.4842342,0.9335799,-1.1323752,-0.120907426,-0.70587033
1747672432.047168,0.13831945,1.4842342,0.9335799,-0.74035823,-0.17630114,-0.9849694
1747672432.0525224,0.13831945,1.4842342,0.9335799,-0.74035823,-0.17630114,-0.9849694
1747672432.0534668,0.13831945,1.4842342,0.9335799,-0.74035823,-0.17630114,-0.9849694
1747672432.0544035,0.13831945,1.4842342,0.9335799,-0.74035823,-0.17630114,-0.9849694
1747672432.0552278,0.034839172,1.4300535,0.737358,-0.44101915,-0.15712638,-1.2960263
1747672432.0560477,0.034839172,1.4300535,0.737358,-0.44101915,-0.15712638,-1.2960263
1747672432.0570815,0.034839172,1.4300535,0.737358,-0.44101915,-0.15712638,-1.2960263
1747672432.059079,0.034839172,1.4300535,0.737358,-0.44101915,-0.15712638,-1.2960263
1747672432.0628595,0.034839172,1.4300535,0.737358,-0.44101915,-0.15712638,-1.2960263
1747672432.0675573,0.034839172,1.4300535,0.737358,-0.44101915,-0.15712638,-1.2960263
1747672432.0696187,0.034839172,1.4300535,0.737358,-0.44101915,-0.15712638,-1.2960263
1747672432.072148,0.034839172,1.4300535,0.737358,-0.44101915,-0.15712638,-1.2960263
1747672432.0733852,0.034839172,1.4300535,0.737358,-0.44101915,-0.15712638,-1.2960263
1747672432.075597,0.034839172,1.4300535,0.737358,-0.44101915,-0.15712638,-1.2960263
1747672432.0763958,-0.3824987,1.1855081,0.6319252,0.08628636,0.20719378,-1.9682077
1747672432.0771375,-0.3824987,1.1855081,0.6319252,0.08628636,0.20719378,-1.9682077
1747672432.0778835,-0.3824987,1.1855081,0.6319252,0.08628636,0.20719378,-1.9682077
1747672432.0786195,-0.3824987,1.1855081,0.6319252,0.08628636,0.20719378,-1.9682077
1747672432.079416,-0.3824987,1.1855081,0.6319252,0.08628636,0.20719378,-1.9682077
1747672432.080163,-0.3824987,1.1855081,0.6319252,0.08628636,0.20719378,-1.9682077
1747672432.0808845,-0.3824987,1.1855081,0.6319252,0.08628636,0.20719378,-1.9682077
1747672432.0826838,-0.3824987,1.1855081,0.6319252,0.08628636,0.20719378,-1.9682077
1747672432.0849917,-0.3824987,1.1855081,0.6319252,0.08628636,0.20719378,-1.9682077
1747672432.086491,-0.5367429,1.0800754,0.78421694,0.3866907,0.16138744,-2.15889
1747672432.0882957,-0.5367429,1.0800754,0.78421694,0.3866907,0.16138744,-2.15889
1747672432.0904932,-0.5367429,1.0800754,0.78421694,0.3866907,0.16138744,-2.15889
1747672432.093031,-0.5367429,1.0800754,0.78421694,0.3866907,0.16138744,-2.15889
1747672432.103553,-0.5367429,1.0800754,0.78421694,0.3866907,0.16138744,-2.15889
1747672432.105397,-0.7207621,0.9585348,0.916496,0.77444667,-0.0005326318,-2.3176143
1747672432.106234,-0.8330284,0.76963454,1.0697639,1.4711291,-0.18375798,-2.458229
1747672432.107036,-0.8330284,0.76963454,1.0697639,1.4711291,-0.18375798,-2.458229
1747672432.110546,-0.8330284,0.76963454,1.0697639,1.4711291,-0.18375798,-2.458229
1747672432.1113877,-0.8330284,0.76963454,1.0697639,1.4711291,-0.18375798,-2.458229
1747672432.1121318,-0.8330284,0.76963454,1.0697639,1.4711291,-0.18375798,-2.458229
1747672432.1128883,-0.8330284,0.76963454,1.0697639,1.4711291,-0.18375798,-2.458229
1747672432.1136672,-0.8330284,0.76963454,1.0697639,1.4711291,-0.18375798,-2.458229
1747672432.114468,-0.8330284,0.76963454,1.0697639,1.4711291,-0.18375798,-2.458229
1747672432.1152248,-0.8330284,0.76963454,1.0697639,1.4711291,-0.18375798,-2.458229
1747672432.1159503,-0.8330284,0.76963454,1.0697639,1.4711291,-0.18375798,-2.458229
1747672432.1166544,-0.8330284,0.76963454,1.0697639,1.4711291,-0.18375798,-2.458229
1747672432.1173813,-0.8071583,0.7320497,1.0726926,1.8461019,-0.095341094,-2.5051007
1747672432.118105,-0.8071583,0.7320497,1.0726926,1.8461019,-0.095341094,-2.5051007
1747672432.1199803,-0.8071583,0.7320497,1.0726926,1.8461019,-0.095341094,-2.5051007
1747672432.1208596,-0.8071583,0.7320497,1.0726926,1.8461019,-0.095341094,-2.5051007
1747672432.1217048,-0.8071583,0.7320497,1.0726926,1.8461019,-0.095341094,-2.5051007
1747672432.1233895,-0.8071583,0.7320497,1.0726926,1.8461019,-0.095341094,-2.5051007
1747672432.1359231,-0.8071583,0.7320497,1.0726926,1.8461019,-0.095341094,-2.5051007
1747672432.1372602,-0.8071583,0.7320497,1.0726926,1.8461019,-0.095341094,-2.5051007
1747672432.1391494,-0.6075195,0.72765666,0.8447432,2.3158832,0.8399604,-2.5988438
1747672432.1427789,-0.23020701,0.80380255,0.54504085,2.3158832,0.8399604,-2.5988438
1747672432.1461427,-0.23020701,0.80380255,0.54504085,2.3158832,0.8399604,-2.5988438
1747672432.1488445,-0.23020701,0.80380255,0.54504085,2.3158832,0.8399604,-2.5988438
1747672432.150021,-0.23020701,0.80380255,0.54504085,2.3158832,0.8399604,-2.5988438
1747672432.1511014,0.24228783,0.9297361,0.30928156,2.2722073,1.2149332,-2.8033745
1747672432.1518724,0.24228783,0.9297361,0.30928156,2.2722073,1.2149332,-2.8033745
1747672432.1526935,0.24228783,0.9297361,0.30928156,2.2722073,1.2149332,-2.8033745
1747672432.1534507,0.6952581,1.0175967,0.08182019,2.024001,1.5600786,-3.161303
1747672432.1542084,0.6952581,1.0175967,0.08182019,2.024001,1.5600786,-3.161303
1747672432.1550047,0.6952581,1.0175967,0.08182019,2.024001,1.5600786,-3.161303
1747672432.1557896,0.6952581,1.0175967,0.08182019,2.024001,1.5600786,-3.161303
1747672432.1565378,0.6952581,1.0175967,0.08182019,2.024001,1.5600786,-3.161303
1747672432.157265,0.6952581,1.0175967,0.08182019,2.024001,1.5600786,-3.161303
1747672432.1580038,0.6952581,1.0175967,0.08182019,2.024001,1.5600786,-3.161303
1747672432.1587572,0.6952581,1.0175967,0.08182019,2.024001,1.5600786,-3.161303
1747672432.159507,0.6952581,1.0175967,0.08182019,2.024001,1.5600786,-3.161303
1747672432.1667223,0.6952581,1.0175967,0.08182019,2.024001,1.5600786,-3.161303
1747672432.1684935,1.0584152,1.1137552,-0.016290821,1.5701987,1.759283,-3.625758
1747672432.169249,1.0584152,1.1137552,-0.016290821,1.5701987,1.759283,-3.625758
1747672432.1703148,1.0584152,1.1137552,-0.016290821,1.5701987,1.759283,-3.625758
1747672432.1712596,1.0584152,1.1137552,-0.016290821,1.5701987,1.759283,-3.625758
1747672432.1722677,1.0584152,1.1137552,-0.016290821,1.5701987,1.759283,-3.625758
1747672432.1734982,1.0584152,1.1137552,-0.016290821,1.5701987,1.759283,-3.625758
1747672432.1746027,1.0584152,1.1137552,-0.016290821,1.5701987,1.759283,-3.625758
1747672432.1793852,1.2224218,1.2240691,-0.05094695,0.94169307,1.8881798,-4.1243014
1747672432.1802518,1.2224218,1.2240691,-0.05094695,0.94169307,1.8881798,-4.1243014
1747672432.1811082,1.2224218,1.2240691,-0.05094695,0.94169307,1.8881798,-4.1243014
1747672432.1818867,1.2224218,1.2240691,-0.05094695,0.94169307,1.8881798,-4.1243014
1747672432.1826715,1.2224218,1.2240691,-0.05094695,0.94169307,1.8881798,-4.1243014
1747672432.1835053,1.2224218,1.2240691,-0.05094695,0.94169307,1.8881798,-4.1243014
1747672432.1843257,1.3171159,1.1894131,0.14918,0.94169307,1.8881798,-4.1243014
1747672432.1852775,1.3171159,1.1894131,0.14918,0.015978955,2.406963,-4.599409
1747672432.1860826,1.3171159,1.1894131,0.14918,0.015978955,2.406963,-4.599409
1747672432.1868808,1.3171159,1.1894131,0.14918,0.015978955,2.406963,-4.599409
1747672432.1878908,1.3171159,1.1894131,0.14918,0.015978955,2.406963,-4.599409
1747672432.1891403,1.3171159,1.1894131,0.14918,0.015978955,2.406963,-4.599409
1747672432.1899347,1.3171159,1.1894131,0.14918,0.015978955,2.406963,-4.599409
1747672432.1907165,1.3171159,1.1894131,0.14918,0.015978955,2.406963,-4.599409
1747672432.1915805,1.3171159,1.1894131,0.14918,0.015978955,2.406963,-4.599409
1747672432.1923525,1.3171159,1.1894131,0.14918,0.015978955,2.406963,-4.599409
1747672432.1930926,1.3171159,1.1894131,0.14918,0.015978955,2.406963,-4.599409
1747672432.19382,1.3171159,1.1894131,0.14918,0.015978955,2.406963,-4.599409
1747672432.194579,1.3171159,1.1894131,0.14918,0.015978955,2.406963,-4.599409
1747672432.195319,1.3229734,1.0922782,0.5723753,-0.43569282,2.9609003,-4.8614635
1747672432.1960607,1.3229734,1.0922782,0.5723753,-0.43569282,2.9609003,-4.8614635
1747672432.196771,1.3229734,1.0922782,0.5723753,-0.43569282,2.9609003,-4.8614635
1747672432.1974766,1.3229734,1.0922782,0.5723753,-0.43569282,2.9609003,-4.8614635
1747672432.198183,1.3229734,1.0922782,0.5723753,-0.43569282,2.9609003,-4.8614635
1747672432.1988952,1.3229734,1.0922782,0.5723753,-0.43569282,2.9609003,-4.8614635
1747672432.199658,1.3229734,1.0922782,0.5723753,-0.43569282,2.9609003,-4.8614635
1747672432.200394,1.3229734,1.0922782,0.5723753,-0.43569282,2.9609003,-4.8614635
1747672432.2011552,1.3229734,1.0922782,0.5723753,-0.43569282,2.9609003,-4.8614635
1747672432.201889,1.3229734,1.0922782,0.5723753,-0.43569282,2.9609003,-4.8614635
1747672432.2026446,1.3229734,1.0922782,0.5723753,-0.43569282,2.9609003,-4.8614635
1747672432.2033753,1.3229734,1.0922782,0.5723753,-0.43569282,2.9609003,-4.8614635
1747672432.2042456,1.3229734,1.0922782,0.5723753,-0.43569282,2.9609003,-4.8614635
1747672432.2049973,1.3229734,1.0922782,0.5723753,-0.43569282,2.9609003,-4.8614635
1747672432.2057748,1.3229734,1.0922782,0.5723753,-0.43569282,2.9609003,-4.8614635
1747672432.206531,1.3229734,1.0922782,0.5723753,-0.43569282,2.9609003,-4.8614635
1747672432.2072744,1.3229734,1.0922782,0.5723753,-0.43569282,2.9609003,-4.8614635
1747672432.210064,1.2160763,0.9619516,1.3909433,-0.448476,3.5329468,-5.0819736
1747672432.2108555,1.2160763,0.9619516,1.3909433,-0.448476,3.5329468,-5.0819736
1747672432.2117207,1.2160763,0.9619516,1.3909433,-0.448476,3.5329468,-5.0819736
1747672432.2125456,1.2160763,0.9619516,1.3909433,-0.448476,3.5329468,-5.0819736
1747672432.2133932,1.2160763,0.9619516,1.3909433,-0.448476,3.5329468,-5.0819736
1747672432.2141957,1.2160763,0.9619516,1.3909433,-0.448476,3.5329468,-5.0819736
1747672432.2150471,1.2160763,0.9619516,1.3909433,-0.448476,3.5329468,-5.0819736
1747672432.2160265,1.2160763,0.9619516,1.3909433,-0.448476,3.5329468,-5.0819736
1747672432.2168427,1.2160763,0.9619516,1.3909433,-0.448476,3.5329468,-5.0819736
1747672432.2176507,1.0960001,0.8921513,2.122627,-0.448476,3.5329468,-5.0819736
1747672432.2185056,1.0960001,0.8921513,2.122627,-0.448476,3.5329468,-5.0819736
1747672432.2193012,1.0960001,0.8921513,2.122627,-0.448476,3.5329468,-5.0819736
1747672432.224306,1.0960001,0.8921513,2.122627,-0.448476,3.5329468,-5.0819736
1747672432.2265851,1.0960001,0.8921513,2.122627,0.08841688,3.6309512,-5.1277795
1747672432.2276032,1.001794,0.9277836,2.4281864,1.2261184,3.3443952,-5.030841
1747672432.2284184,1.001794,0.9277836,2.4281864,1.2261184,3.3443952,-5.030841
1747672432.2291906,1.001794,0.9277836,2.4281864,1.2261184,3.3443952,-5.030841
1747672432.2299843,1.001794,0.9277836,2.4281864,1.2261184,3.3443952,-5.030841
1747672432.2307804,1.001794,0.9277836,2.4281864,1.2261184,3.3443952,-5.030841
1747672432.232707,1.001794,0.9277836,2.4281864,1.2261184,3.3443952,-5.030841
1747672432.234396,1.001794,0.9277836,2.4281864,1.2261184,3.3443952,-5.030841
1747672432.2354078,1.001794,0.9277836,2.4281864,1.2261184,3.3443952,-5.030841
1747672432.2361977,1.001794,0.9277836,2.4281864,1.2261184,3.3443952,-5.030841
1747672432.2370012,1.001794,0.9277836,2.4281864,1.2261184,3.3443952,-5.030841
1747672432.2379177,1.001794,0.9277836,2.4281864,1.2261184,3.3443952,-5.030841
1747672432.239521,1.0423075,1.2206523,2.247096,2.630136,2.5763402,-4.616453
1747672432.2402966,1.0423075,1.2206523,2.247096,2.630136,2.5763402,-4.616453
1747672432.2410362,1.0423075,1.2206523,2.247096,2.630136,2.5763402,-4.616453
1747672432.2417817,1.0423075,1.2206523,2.247096,2.630136,2.5763402,-4.616453
1747672432.242518,1.0423075,1.2206523,2.247096,2.630136,2.5763402,-4.616453
1747672432.243263,1.0423075,1.2206523,2.247096,2.630136,2.5763402,-4.616453
1747672432.2440014,1.0423075,1.2206523,2.247096,2.630136,2.5763402,-4.616453
1747672432.244735,1.0423075,1.2206523,2.247096,2.630136,2.5763402,-4.616453
1747672432.2454333,1.0423075,1.2206523,2.247096,2.630136,2.5763402,-4.616453
1747672432.2461538,1.0423075,1.2206523,2.247096,2.630136,2.5763402,-4.616453
1747672432.24687,1.0423075,1.2206523,2.247096,2.630136,2.5763402,-4.616453
1747672432.24761,1.0423075,1.2206523,2.247096,2.630136,2.5763402,-4.616453
1747672432.2483447,1.7090718,1.7019331,1.5666645,2.630136,2.5763402,-4.616453
1747672432.2491045,1.7090718,1.7019331,1.5666645,2.981673,1.6154723,-4.1679773
1747672432.2498171,1.7090718,1.7019331,1.5666645,2.981673,1.6154723,-4.1679773
1747672432.2505407,1.7090718,1.7019331,1.5666645,2.981673,1.6154723,-4.1679773
1747672432.2512617,1.7090718,1.7019331,1.5666645,2.981673,1.6154723,-4.1679773
1747672432.2519698,1.7090718,1.7019331,1.5666645,2.981673,1.6154723,-4.1679773
1747672432.252733,1.7090718,1.7019331,1.5666645,2.981673,1.6154723,-4.1679773
1747672432.2548058,1.7090718,1.7019331,1.5666645,2.981673,1.6154723,-4.1679773
1747672432.255682,1.7090718,1.7019331,1.5666645,2.981673,1.6154723,-4.1679773
1747672432.2566924,1.7090718,1.7019331,1.5666645,2.981673,1.6154723,-4.1679773
1747672432.257722,1.7090718,1.7019331,1.5666645,2.981673,1.6154723,-4.1679773
1747672432.2585998,1.7090718,1.7019331,1.5666645,2.981673,1.6154723,-4.1679773
1747672432.2594013,1.7090718,1.7019331,1.5666645,2.981673,1.6154723,-4.1679773
1747672432.2601964,3.0596848,2.4018893,1.3147974,2.2690115,1.0018804,-3.929358
1747672432.260993,3.0596848,2.4018893,1.3147974,2.2690115,1.0018804,-3.929358
1747672432.261936,3.0596848,2.4018893,1.3147974,2.2690115,1.0018804,-3.929358
1747672432.2632582,3.0596848,2.4018893,1.3147974,2.2690115,1.0018804,-3.929358
1747672432.264227,3.0596848,2.4018893,1.3147974,1.1281142,1.7219987,-4.159455
1747672432.265216,4.6026144,2.7806664,1.8346393,1.1281142,1.7219987,-4.159455
1747672432.2660112,4.6026144,2.7806664,1.8346393,1.1281142,1.7219987,-4.159455
1747672432.2691536,4.6026144,2.7806664,1.8346393,1.1281142,1.7219987,-4.159455
1747672432.2698092,4.6026144,2.7806664,1.8346393,1.1281142,1.7219987,-4.159455
1747672432.2708082,4.6026144,2.7806664,1.8346393,1.1281142,1.7219987,-4.159455
1747672432.2718046,4.6026144,2.7806664,1.8346393,1.1281142,1.7219987,-4.159455
1747672432.272805,4.6026144,2.7806664,1.8346393,1.1281142,1.7219987,-4.159455
1747672432.2737973,4.6026144,2.7806664,1.8346393,1.1281142,1.7219987,-4.159455
1747672432.2749078,4.6026144,2.7806664,1.8346393,1.1281142,1.7219987,-4.159455
1747672432.2758052,5.6335125,2.677674,3.0261269,0.38562545,3.388071,-4.802874
1747672432.276802,5.6335125,2.677674,3.0261269,0.38562545,3.388071,-4.802874
1747672432.2781096,5.6335125,2.677674,3.0261269,0.38562545,3.388071,-4.802874
1747672432.2788374,5.6335125,2.677674,3.0261269,0.38562545,3.388071,-4.802874
1747672432.2798073,5.6335125,2.677674,3.0261269,0.38562545,3.388071,-4.802874
1747672432.2817743,5.6335125,2.677674,3.0261269,0.38562545,3.388071,-4.802874
1747672432.2830026,5.6335125,2.677674,3.0261269,0.38562545,3.388071,-4.802874
1747672432.283884,5.6335125,2.677674,3.0261269,0.38562545,3.388071,-4.802874
1747672432.2847073,5.644739,2.3750432,4.428968,0.74248874,4.9859667,-5.444163
1747672432.285471,5.644739,2.3750432,4.428968,0.74248874,4.9859667,-5.444163
1747672432.2862043,5.644739,2.3750432,4.428968,0.74248874,4.9859667,-5.444163
1747672432.286926,5.644739,2.3750432,4.428968,0.74248874,4.9859667,-5.444163
1747672432.2877276,5.644739,2.3750432,4.428968,0.74248874,4.9859667,-5.444163
1747672432.2884638,5.644739,2.3750432,4.428968,0.74248874,4.9859667,-5.444163
1747672432.2892084,5.644739,2.3750432,4.428968,0.74248874,4.9859667,-5.444163
1747672432.289896,5.644739,2.3750432,4.428968,0.74248874,4.9859667,-5.444163
1747672432.2905765,5.644739,2.3750432,4.428968,0.74248874,4.9859667,-5.444163
1747672432.291262,5.644739,2.3750432,4.428968,0.74248874,4.9859667,-5.444163
1747672432.2920043,5.644739,2.3750432,4.428968,0.74248874,4.9859667,-5.444163
1747672432.2927272,5.644739,2.3750432,4.428968,0.74248874,4.9859667,-5.444163
1747672432.2934394,5.644739,2.3750432,4.428968,0.74248874,4.9859667,-5.444163
1747672432.2942033,5.1937213,2.0240889,5.275358,0.74248874,4.9859667,-5.444163
1747672432.2949135,5.1937213,2.0240889,5.275358,2.4863253,5.6964974,-5.733915
1747672432.2956429,5.1937213,2.0240889,5.275358,2.4863253,5.6964974,-5.733915
1747672432.2963614,5.1937213,2.0240889,5.275358,2.4863253,5.6964974,-5.733915
1747672432.2970757,5.1937213,2.0240889,5.275358,2.4863253,5.6964974,-5.733915
1747672432.297793,5.1937213,2.0240889,5.275358,2.4863253,5.6964974,-5.733915
1747672432.2985015,5.1937213,2.0240889,5.275358,2.4863253,5.6964974,-5.733915
1747672432.2992523,5.1937213,2.0240889,5.275358,2.4863253,5.6964974,-5.733915
1747672432.2999861,5.1937213,2.0240889,5.275358,2.4863253,5.6964974,-5.733915
1747672432.3007433,5.1937213,2.0240889,5.275358,2.4863253,5.6964974,-5.733915
1747672432.3019783,5.1937213,2.0240889,5.275358,2.4863253,5.6964974,-5.733915
1747672432.3031917,5.1937213,2.0240889,5.275358,2.4863253,5.6964974,-5.733915
1747672432.3039858,5.1937213,2.0240889,5.275358,2.4863253,5.6964974,-5.733915
1747672432.3047838,5.1937213,2.0240889,5.275358,2.4863253,5.6964974,-5.733915
1747672432.3056476,5.1937213,2.0240889,5.275358,2.4863253,5.6964974,-5.733915
1747672432.3064299,5.1937213,2.0240889,5.275358,2.4863253,5.6964974,-5.733915
1747672432.3073351,4.788586,1.3329186,4.5773544,5.3444276,4.797415,-5.895835
1747672432.308508,4.788586,1.3329186,4.5773544,5.3444276,4.797415,-5.895835
1747672432.3124473,4.788586,1.3329186,4.5773544,5.3444276,4.797415,-5.895835
1747672432.3178482,4.788586,1.3329186,4.5773544,5.3444276,4.797415,-5.895835
1747672432.3189743,4.788586,1.3329186,4.5773544,5.3444276,4.797415,-5.895835
1747672432.3201714,4.788586,1.3329186,4.5773544,5.3444276,4.797415,-5.895835
1747672432.321186,4.788586,1.3329186,4.5773544,5.3444276,4.797415,-5.895835
1747672432.3233047,4.788586,1.3329186,4.5773544,5.3444276,4.797415,-5.895835
1747672432.324325,4.788586,1.3329186,4.5773544,5.3444276,4.797415,-5.895835
1747672432.3255153,4.425917,1.0883733,3.2892203,7.29386,2.3728747,-6.1728034
1747672432.3268633,3.7674508,0.98733366,1.4744109,7.29386,2.3728747,-6.1728034
1747672432.3287828,3.7674508,0.98733366,1.4744109,7.29386,2.3728747,-6.1728034
1747672432.3305485,3.7674508,0.98733366,1.4744109,7.29386,2.3728747,-6.1728034
1747672432.3325963,3.7674508,0.98733366,1.4744109,7.29386,2.3728747,-6.1728034
1747672432.3334203,3.7674508,0.98733366,1.4744109,7.29386,2.3728747,-6.1728034
1747672432.3341637,3.7674508,0.98733366,1.4744109,7.29386,2.3728747,-6.1728034
1747672432.3349202,3.7674508,0.98733366,1.4744109,7.29386,2.3728747,-6.1728034
1747672432.335732,3.1470573,1.1108266,0.28829262,6.715422,1.6698008,-6.053494
1747672432.3364706,3.1470573,1.1108266,0.28829262,6.715422,1.6698008,-6.053494
1747672432.3371997,3.1470573,1.1108266,0.28829262,6.715422,1.6698008,-6.053494
1747672432.3379884,3.1470573,1.1108266,0.28829262,6.715422,1.6698008,-6.053494
1747672432.3387485,3.1470573,1.1108266,0.28829262,6.715422,1.6698008,-6.053494
1747672432.33952,3.1470573,1.1108266,0.28829262,6.715422,1.6698008,-6.053494
1747672432.3403096,3.1470573,1.1108266,0.28829262,6.715422,1.6698008,-6.053494
1747672432.3411164,3.1470573,1.1108266,0.28829262,6.715422,1.6698008,-6.053494
1747672432.3418694,3.1470573,1.1108266,0.28829262,6.715422,1.6698008,-6.053494
1747672432.3425858,3.1470573,1.1108266,0.28829262,6.715422,1.6698008,-6.053494
1747672432.343334,3.1470573,1.1108266,0.28829262,6.715422,1.6698008,-6.053494
1747672432.3440669,3.1470573,1.1108266,0.28829262,6.715422,1.6698008,-6.053494
1747672432.344775,3.1470573,1.1108266,0.28829262,6.715422,1.6698008,-6.053494
1747672432.3455327,3.1470573,1.1108266,0.28829262,6.715422,1.6698008,-6.053494
1747672432.3462703,3.1470573,1.1108266,0.28829262,6.715422,1.6698008,-6.053494
1747672432.3478608,2.4485655,1.2611657,-0.50050044,4.7585325,1.666605,-5.3994217
1747672432.3492947,2.4485655,1.2611657,-0.50050044,4.7585325,1.666605,-5.3994217
1747672432.3501606,2.4485655,1.2611657,-0.50050044,4.7585325,1.666605,-5.3994217
1747672432.3509552,2.4485655,1.2611657,-0.50050044,4.7585325,1.666605,-5.3994217
1747672432.351764,2.4485655,1.2611657,-0.50050044,4.7585325,1.666605,-5.3994217
1747672432.3525844,2.4485655,1.2611657,-0.50050044,4.7585325,1.666605,-5.3994217
1747672432.3533819,2.4485655,1.2611657,-0.50050044,4.7585325,1.666605,-5.3994217
1747672432.3541884,2.4485655,1.2611657,-0.50050044,4.7585325,1.666605,-5.3994217
1747672432.3553512,2.4485655,1.2611657,-0.50050044,4.7585325,1.666605,-5.3994217
1747672432.3561454,2.4485655,1.2611657,-0.50050044,4.7585325,1.666605,-5.3994217
1747672432.357001,2.4485655,1.2611657,-0.50050044,4.7585325,1.666605,-5.3994217
1747672432.3578942,2.4485655,1.2611657,-0.50050044,4.7585325,1.666605,-5.3994217
1747672432.3587854,2.4485655,1.2611657,-0.50050044,4.7585325,1.666605,-5.3994217
1747672432.3596673,2.4485655,1.2611657,-0.50050044,4.7585325,1.666605,-5.3994217
1747672432.360485,2.318239,1.214795,-0.16858254,2.9997823,2.21202,-4.6089964
1747672432.3618186,2.318239,1.214795,-0.16858254,2.9997823,2.21202,-4.6089964
1747672432.3627312,2.318239,1.214795,-0.16858254,2.9997823,2.21202,-4.6089964
1747672432.3636687,2.318239,1.214795,-0.16858254,2.9997823,2.21202,-4.6089964
1747672432.3647218,2.318239,1.214795,-0.16858254,2.9997823,2.21202,-4.6089964
1747672432.365566,2.318239,1.214795,-0.16858254,2.9997823,2.21202,-4.6089964
1747672432.3663764,2.318239,1.214795,-0.16858254,2.9997823,2.21202,-4.6089964
1747672432.3671875,2.318239,1.214795,-0.16858254,2.9997823,2.21202,-4.6089964
1747672432.3680694,2.318239,1.214795,-0.16858254,2.9997823,2.21202,-4.6089964
1747672432.3689575,2.318239,1.214795,-0.16858254,2.9997823,2.21202,-4.6089964
1747672432.370073,2.716052,0.96732086,0.6514498,1.8386451,2.9044414,-4.050798
1747672432.3714676,2.716052,0.96732086,0.6514498,1.8386451,2.9044414,-4.050798
1747672432.3727882,2.716052,0.96732086,0.6514498,1.8386451,2.9044414,-4.050798
1747672432.373598,2.716052,0.96732086,0.6514498,1.8386451,2.9044414,-4.050798
1747672432.3745,3.184154,0.5441256,1.3850859,1.487108,3.3507867,-4.025232
1747672432.3754723,3.184154,0.5441256,1.3850859,1.487108,3.3507867,-4.025232
1747672432.376522,3.184154,0.5441256,1.3850859,1.487108,3.3507867,-4.025232
1747672432.3773139,3.184154,0.5441256,1.3850859,1.487108,3.3507867,-4.025232
1747672432.3781161,3.184154,0.5441256,1.3850859,1.487108,3.3507867,-4.025232
1747672432.378925,3.184154,0.5441256,1.3850859,1.487108,3.3507867,-4.025232
1747672432.3797216,3.184154,0.5441256,1.3850859,1.487108,3.3507867,-4.025232
1747672432.3805408,3.184154,0.5441256,1.3850859,1.487108,3.3507867,-4.025232
1747672432.381287,3.184154,0.5441256,1.3850859,1.487108,3.3507867,-4.025232
1747672432.3820355,3.184154,0.5441256,1.3850859,1.487108,3.3507867,-4.025232
1747672432.3827932,3.2285724,0.06577343,1.6091304,1.487108,3.3507867,-4.025232
1747672432.3837316,3.2285724,0.06577343,1.6091304,1.487108,3.3507867,-4.025232
1747672432.3854136,3.2285724,0.06577343,1.6091304,1.7789903,3.4274857,-4.3725076
1747672432.389632,3.2285724,0.06577343,1.6091304,1.7789903,3.4274857,-4.3725076
1747672432.3904483,3.2285724,0.06577343,1.6091304,1.7789903,3.4274857,-4.3725076
1747672432.3912625,3.2285724,0.06577343,1.6091304,1.7789903,3.4274857,-4.3725076
1747672432.3920448,3.2285724,0.06577343,1.6091304,1.7789903,3.4274857,-4.3725076
1747672432.3928263,3.2285724,0.06577343,1.6091304,1.7789903,3.4274857,-4.3725076
1747672432.3936226,3.2285724,0.06577343,1.6091304,1.7789903,3.4274857,-4.3725076
1747672432.3944218,3.2285724,0.06577343,1.6091304,1.7789903,3.4274857,-4.3725076
1747672432.395198,2.7272787,-0.30470547,1.1625057,1.7789903,3.4274857,-4.3725076
1747672432.4257834,0.38823408,-0.75767577,1.1019795,2.3819294,3.3081763,-4.9211187
1747672432.4270885,0.38823408,-0.75767577,1.1019795,2.3819294,3.3081763,-4.9211187
1747672432.4281073,-0.36297414,-0.88653797,1.1454217,3.7433364,3.124951,-3.261438
1747672432.4288843,-0.36297414,-0.88653797,1.1454217,3.7433364,3.124951,-3.261438
1747672432.429693,-0.36297414,-0.88653797,1.1454217,3.7433364,3.124951,-3.261438
1747672432.4304738,-0.36297414,-0.88653797,1.1454217,3.7433364,3.124951,-3.261438
1747672432.4312024,-0.36297414,-0.88653797,1.1454217,3.7433364,3.124951,-3.261438
1747672432.4319482,-0.36297414,-0.88653797,1.1454217,3.7433364,3.124951,-3.261438
1747672432.4327078,-0.36297414,-0.88653797,1.1454217,3.7433364,3.124951,-3.261438
1747672432.4334443,-0.36297414,-0.88653797,1.1454217,3.7433364,3.124951,-3.261438
1747672432.4342027,-0.36297414,-0.88653797,1.1454217,3.7433364,3.124951,-3.261438
1747672432.4349463,-0.36297414,-0.88653797,1.1454217,3.7433364,3.124951,-3.261438
1747672432.4357033,-0.36297414,-0.88653797,1.1454217,3.7433364,3.124951,-3.261438
1747672432.4364254,-0.36297414,-0.88653797,1.1454217,3.7433364,3.124951,-3.261438
1747672432.4371407,-0.36297414,-0.88653797,1.1454217,3.7433364,3.124951,-3.261438
1747672432.4378598,-0.36297414,-0.88653797,1.1454217,3.7433364,3.124951,-3.261438
1747672432.4385996,-0.36297414,-0.88653797,1.1454217,3.7433364,3.124951,-3.261438
1747672432.439426,-0.36297414,-0.88653797,1.1454217,3.7433364,3.124951,-3.261438
1747672432.4402013,-0.36297414,-0.88653797,1.1454217,3.7433364,3.124951,-3.261438
1747672432.4409943,-0.36297414,-0.88653797,1.1454217,3.7433364,3.124951,-3.261438
1747672432.4472284,-0.38298684,-0.9597551,0.5972691,4.64668,2.3675485,-2.1823258
1747672432.4484043,-0.3917729,-0.9753748,-0.00067115744,5.074916,1.4407691,-1.6006918
1747672432.4514437,-0.3917729,-0.9753748,-0.00067115744,5.074916,1.4407691,-1.6006918
1747672432.453806,-0.3917729,-0.9753748,-0.00067115744,5.074916,1.4407691,-1.6006918
1747672432.457301,-0.3917729,-0.9753748,-0.00067115744,5.074916,1.4407691,-1.6006918
1747672432.4581678,-0.6158175,-0.9509691,-0.9427321,4.95028,0.2125201,-0.955142
1747672432.459006,-0.6158175,-0.9509691,-0.9427321,4.95028,0.2125201,-0.955142
1747672432.4599526,-0.6158175,-0.9509691,-0.9427321,4.95028,0.2125201,-0.955142
1747672432.460829,-0.6158175,-0.9509691,-0.9427321,4.95028,0.2125201,-0.955142
1747672432.4620667,-0.6158175,-0.9509691,-0.9427321,4.95028,0.2125201,-0.955142
1747672432.46309,-0.6158175,-0.9509691,-0.9427321,4.95028,0.2125201,-0.955142
1747672432.4641876,-0.6158175,-0.9509691,-0.9427321,4.95028,0.2125201,-0.955142
1747672432.4652731,-0.6158175,-0.9509691,-0.9427321,4.95028,0.2125201,-0.955142
1747672432.466386,-0.6158175,-0.9509691,-0.9427321,4.95028,0.2125201,-0.955142
1747672432.4675312,-0.6158175,-0.9509691,-0.9427321,4.95028,0.2125201,-0.955142
1747672432.469834,-0.6158175,-0.9509691,-0.9427321,4.95028,0.2125201,-0.955142
1747672432.4706094,-0.6158175,-0.9509691,-0.9427321,4.95028,0.2125201,-0.955142
1747672432.4717073,-0.6158175,-0.9509691,-0.9427321,4.95028,0.2125201,-0.955142
1747672432.4727485,-0.5982453,-0.89678836,-1.3961905,4.1396146,-0.23062958,-0.43635863
1747672432.4735193,-0.5982453,-0.89678836,-1.3961905,4.1396146,-0.23062958,-0.43635863
1747672432.474493,-0.13746524,-0.8748232,-1.513338,2.9688897,-0.07936214,-0.19560903
1747672432.475435,-0.13746524,-0.8748232,-1.513338,2.9688897,-0.07936214,-0.19560903
1747672432.4764063,-0.13746524,-0.8748232,-1.513338,2.9688897,-0.07936214,-0.19560903
1747672432.4773486,-0.13746524,-0.8748232,-1.513338,2.9688897,-0.07936214,-0.19560903
1747672432.478215,-0.13746524,-0.8748232,-1.513338,2.9688897,-0.07936214,-0.19560903
1747672432.4790215,-0.13746524,-0.8748232,-1.513338,2.9688897,-0.07936214,-0.19560903
1747672432.4797835,-0.13746524,-0.8748232,-1.513338,2.9688897,-0.07936214,-0.19560903
1747672432.480551,-0.13746524,-0.8748232,-1.513338,2.9688897,-0.07936214,-0.19560903
1747672432.4813464,-0.13746524,-0.8748232,-1.513338,2.9688897,-0.07936214,-0.19560903
1747672432.482067,-0.13746524,-0.8748232,-1.513338,2.9688897,-0.07936214,-0.19560903
1747672432.4828207,-0.13746524,-0.8748232,-1.513338,2.9688897,-0.07936214,-0.19560903
1747672432.483612,-0.13746524,-0.8748232,-1.513338,2.9688897,-0.07936214,-0.19560903
1747672432.484363,0.5327159,-0.8753113,-1.2809955,1.676725,0.23489064,-0.32344067
1747672432.4851062,0.5327159,-0.8753113,-1.2809955,1.676725,0.23489064,-0.32344067
1747672432.485846,0.5327159,-0.8753113,-1.2809955,1.676725,0.23489064,-0.32344067
1747672432.486595,0.5327159,-0.8753113,-1.2809955,1.676725,0.23489064,-0.32344067
1747672432.487365,0.5327159,-0.8753113,-1.2809955,1.676725,0.23489064,-0.32344067
1747672432.4881694,0.5327159,-0.8753113,-1.2809955,1.676725,0.23489064,-0.32344067
1747672432.4889436,0.5327159,-0.8753113,-1.2809955,1.676725,0.23489064,-0.32344067
1747672432.489709,0.5327159,-0.8753113,-1.2809955,1.676725,0.23489064,-0.32344067
1747672432.4904804,0.5327159,-0.8753113,-1.2809955,1.676725,0.23489064,-0.32344067
1747672432.4912763,0.5327159,-0.8753113,-1.2809955,1.676725,0.23489064,-0.32344067
1747672432.492128,0.5327159,-0.8753113,-1.2809955,1.676725,0.23489064,-0.32344067
1747672432.492962,0.5327159,-0.8753113,-1.2809955,1.676725,0.23489064,-0.32344067
1747672432.4938374,0.5327159,-0.8753113,-1.2809955,1.676725,0.23489064,-0.32344067
1747672432.494693,0.5327159,-0.8753113,-1.2809955,1.676725,0.23489064,-0.32344067
1747672432.4970136,0.78507113,-0.950481,-0.68061465,0.62211394,0.2125201,-0.7719167
1747672432.506486,0.78507113,-0.950481,-0.68061465,0.62211394,0.2125201,-0.7719167
1747672432.507328,0.78507113,-0.950481,-0.68061465,0.62211394,0.2125201,-0.7719167
1747672432.5081534,0.60398066,-1.1188804,-0.04850638,-0.27483803,0.30732855,-0.898683
1747672432.509206,0.60398066,-1.1188804,-0.04850638,-0.27483803,0.30732855,-0.898683
1747672432.5133517,0.60398066,-1.1188804,-0.04850638,-0.27483803,0.30732855,-0.898683
1747672432.5142813,0.60398066,-1.1188804,-0.04850638,-0.27483803,0.30732855,-0.898683
1747672432.5150986,0.60398066,-1.1188804,-0.04850638,-0.27483803,0.30732855,-0.898683
1747672432.5165117,0.43802178,-1.2106459,0.78031206,-0.5081307,0.8239814,-0.75061136
1747672432.5180438,0.43802178,-1.2106459,0.78031206,-0.5081307,0.8239814,-0.75061136
1747672432.519182,0.43802178,-1.2106459,0.78031206,-0.5081307,0.8239814,-0.75061136
1747672432.5202632,0.43802178,-1.2106459,0.78031206,-0.5081307,0.8239814,-0.75061136
1747672432.5213425,0.43802178,-1.2106459,0.78031206,-0.5081307,0.8239814,-0.75061136
1747672432.5229597,0.43802178,-1.2106459,0.78031206,-0.5081307,0.8239814,-0.75061136
1747672432.5239704,0.43802178,-1.2106459,0.78031206,-0.5081307,0.8239814,-0.75061136
1747672432.5288968,0.3228267,-1.2980185,1.5778911,-0.16511586,1.5952322,-0.41611862
1747672432.5296943,0.3228267,-1.2980185,1.5778911,-0.16511586,1.5952322,-0.41611862
1747672432.5305045,0.3228267,-1.2980185,1.5778911,-0.16511586,1.5952322,-0.41611862
1747672432.5312333,0.3228267,-1.2980185,1.5778911,-0.16511586,1.5952322,-0.41611862
1747672432.5320308,0.3228267,-1.2980185,1.5778911,-0.16511586,1.5952322,-0.41611862
1747672432.532829,0.3228267,-1.2980185,1.5778911,-0.16511586,1.5952322,-0.41611862
1747672432.533575,0.3228267,-1.2980185,1.5778911,-0.16511586,1.5952322,-0.41611862
1747672432.5343049,0.3228267,-1.2980185,1.5778911,-0.16511586,1.5952322,-0.41611862
1747672432.5350761,0.3228267,-1.2980185,1.5778911,-0.16511586,1.5952322,-0.41611862
1747672432.53582,0.3228267,-1.2980185,1.5778911,-0.16511586,1.5952322,-0.41611862
1747672432.53657,0.31013575,-1.4146777,1.9615492,0.83410144,1.9361167,-0.054994237
1747672432.5373888,0.31013575,-1.4146777,1.9615492,0.83410144,1.9361167,-0.054994237
1747672432.5394764,0.31013575,-1.4146777,1.9615492,0.83410144,1.9361167,-0.054994237
1747672432.5410798,0.31013575,-1.4146777,1.9615492,0.83410144,1.9361167,-0.054994237
1747672432.542243,0.31013575,-1.4146777,1.9615492,0.83410144,1.9361167,-0.054994237
1747672432.5440695,0.31013575,-1.4146777,1.9615492,0.83410144,1.9361167,-0.054994237
1747672432.5451589,0.31013575,-1.4146777,1.9615492,0.83410144,1.9361167,-0.054994237
1747672432.546003,0.31013575,-1.4146777,1.9615492,0.83410144,1.9361167,-0.054994237
1747672432.5472202,0.31013575,-1.4146777,1.9615492,0.83410144,1.9361167,-0.054994237
1747672432.5491853,0.31013575,-1.4146777,1.9615492,0.83410144,1.9361167,-0.054994237
1747672432.5500224,0.31013575,-1.4146777,1.9615492,0.83410144,1.9361167,-0.054994237
1747672432.5508375,0.34479186,-1.5371946,1.8395205,1.830123,1.6857797,0.20919114
1747672432.551689,0.34479186,-1.5371946,1.8395205,1.830123,1.6857797,0.20919114
1747672432.552719,0.34479186,-1.5371946,1.8395205,1.830123,1.6857797,0.20919114
1747672432.553535,0.34479186,-1.5371946,1.8395205,1.830123,1.6857797,0.20919114
1747672432.5544853,0.34479186,-1.5371946,1.8395205,1.830123,1.6857797,0.20919114
1747672432.5554729,0.34479186,-1.5371946,1.8395205,1.830123,1.6857797,0.20919114
1747672432.5563226,0.34479186,-1.5371946,1.8395205,1.830123,1.6857797,0.20919114
1747672432.557364,0.34479186,-1.5371946,1.8395205,1.830123,1.6857797,0.20919114
1747672432.558589,0.34479186,-1.5371946,1.8395205,1.830123,1.6857797,0.20919114
1747672432.5595753,0.43899798,-1.6597114,1.1844709,2.8389275,0.9571394,0.45207125
1747672432.5605578,0.43899798,-1.6597114,1.1844709,2.8389275,0.9571394,0.45207125
1747672432.5623736,0.43899798,-1.6597114,1.1844709,2.8389275,0.9571394,0.45207125
1747672432.5632203,0.43899798,-1.6597114,1.1844709,2.8389275,0.9571394,0.45207125
1747672432.564285,0.43899798,-1.6597114,1.1844709,2.8389275,0.9571394,0.45207125
1747672432.5653772,0.43899798,-1.6597114,1.1844709,2.8389275,0.9571394,0.45207125
1747672432.5666785,0.43899798,-1.6597114,1.1844709,2.8389275,0.9571394,0.45207125
1747672432.5677812,0.43899798,-1.6597114,1.1844709,2.8389275,0.9571394,0.45207125
1747672432.5685835,0.43899798,-1.6597114,1.1844709,2.8389275,0.9571394,0.45207125
1747672432.569396,0.43899798,-1.6597114,1.1844709,2.8389275,0.9571394,0.45207125
1747672432.5702434,0.4673086,-1.8090744,0.15406114,3.2714245,0.21571589,0.6139913
1747672432.571252,0.4673086,-1.8090744,0.15406114,3.2714245,0.21571589,0.6139913
1747672432.5721946,0.4673086,-1.8090744,0.15406114,3.2714245,0.21571589,0.6139913
1747672432.572992,0.4673086,-1.8090744,0.15406114,2.913496,-0.14753902,0.7066693
1747672432.5737495,0.40727055,-1.8134674,-0.6322913,2.913496,-0.14753902,0.7066693
1747672432.5745034,0.40727055,-1.8134674,-0.6322913,2.913496,-0.14753902,0.7066693
1747672432.5752463,0.40727055,-1.8134674,-0.6322913,2.913496,-0.14753902,0.7066693
1747672432.5759897,0.40727055,-1.8134674,-0.6322913,2.913496,-0.14753902,0.7066693
1747672432.576726,0.40727055,-1.8134674,-0.6322913,2.913496,-0.14753902,0.7066693
1747672432.577496,0.40727055,-1.8134674,-0.6322913,2.913496,-0.14753902,0.7066693
1747672432.578215,0.40727055,-1.8134674,-0.6322913,2.913496,-0.14753902,0.7066693
1747672432.5789149,0.40727055,-1.8134674,-0.6322913,2.913496,-0.14753902,0.7066693
1747672432.5796144,0.40727055,-1.8134674,-0.6322913,2.913496,-0.14753902,0.7066693
1747672432.5803869,0.40727055,-1.8134674,-0.6322913,2.913496,-0.14753902,0.7066693
1747672432.581141,0.40727055,-1.8134674,-0.6322913,2.913496,-0.14753902,0.7066693
1747672432.5825624,0.40727055,-1.8134674,-0.6322913,2.913496,-0.14753902,0.7066693
1747672432.584275,0.28963494,-1.7539175,-1.0896546,2.0879169,-0.34567806,0.818522
1747672432.5851152,0.28963494,-1.7539175,-1.0896546,2.0879169,-0.34567806,0.818522
1747672432.5861459,0.28963494,-1.7539175,-1.0896546,2.0879169,-0.34567806,0.818522
1747672432.58697,0.28963494,-1.7539175,-1.0896546,2.0879169,-0.34567806,0.818522
1747672432.5881696,0.28963494,-1.7539175,-1.0896546,2.0879169,-0.34567806,0.818522
1747672432.5890994,0.28963494,-1.7539175,-1.0896546,2.0879169,-0.34567806,0.818522
1747672432.590063,0.28963494,-1.7539175,-1.0896546,2.0879169,-0.34567806,0.818522
1747672432.590994,0.28963494,-1.7539175,-1.0896546,2.0879169,-0.34567806,0.818522
1747672432.5920708,0.28963494,-1.7539175,-1.0896546,2.0879169,-0.34567806,0.818522
1747672432.5931485,0.2378948,-1.6260314,-1.2273029,1.0471542,-0.3882886,0.94741887
1747672432.5939848,0.2378948,-1.6260314,-1.2273029,1.0471542,-0.3882886,0.94741887
1747672432.5979679,0.2378948,-1.6260314,-1.2273029,1.0471542,-0.3882886,0.94741887
1747672432.5987616,0.2378948,-1.6260314,-1.2273029,1.0471542,-0.3882886,0.94741887
1747672432.5995846,0.2378948,-1.6260314,-1.2273029,1.0471542,-0.3882886,0.94741887
1747672432.6004393,0.2378948,-1.6260314,-1.2273029,1.0471542,-0.3882886,0.94741887
1747672432.601758,0.2378948,-1.6260314,-1.2273029,1.0471542,-0.3882886,0.94741887
1747672432.6026313,0.2378948,-1.6260314,-1.2273029,1.0471542,-0.3882886,0.94741887
1747672432.6035943,0.2378948,-1.6260314,-1.2273029,1.0471542,-0.3882886,0.94741887
1747672432.6046097,0.22862063,-1.5186461,-1.0779399,-0.0117179,-0.13795164,1.0518147
1747672432.6054037,0.22862063,-1.5186461,-1.0779399,-0.0117179,-0.13795164,1.0518147
1747672432.6062438,0.22862063,-1.5186461,-1.0779399,-0.0117179,-0.13795164,1.0518147
1747672432.607267,0.22862063,-1.5186461,-1.0779399,-0.0117179,-0.13795164,1.0518147
1747672432.609167,0.22862063,-1.5186461,-1.0779399,-0.0117179,-0.13795164,1.0518147
1747672432.610162,0.22862063,-1.5186461,-1.0779399,-0.0117179,-0.13795164,1.0518147
1747672432.61099,0.22862063,-1.5186461,-1.0779399,-0.0117179,-0.13795164,1.0518147
1747672432.6120276,0.22862063,-1.5186461,-1.0779399,-0.0117179,-0.13795164,1.0518147
1747672432.6129472,0.22862063,-1.5186461,-1.0779399,-0.0117179,-0.13795164,1.0518147
1747672432.613821,0.22862063,-1.5186461,-1.0779399,-0.0117179,-0.13795164,1.0518147
1747672432.6145947,0.22862063,-1.5186461,-1.0779399,-0.0117179,-0.13795164,1.0518147
1747672432.615333,0.22862063,-1.5186461,-1.0779399,-0.8980172,0.21465063,1.1860379
1747672432.6160693,0.22862063,-1.5186461,-1.0779399,-0.8980172,0.21465063,1.1860379
1747672432.6168578,0.22862063,-1.5186461,-1.0779399,-0.8980172,0.21465063,1.1860379
1747672432.617612,0.10854446,-1.389784,-0.7260093,-0.8980172,0.21465063,1.1860379
1747672432.618333,0.10854446,-1.389784,-0.7260093,-0.8980172,0.21465063,1.1860379
1747672432.6190262,0.10854446,-1.389784,-0.7260093,-0.8980172,0.21465063,1.1860379
1747672432.6197248,0.10854446,-1.389784,-0.7260093,-0.8980172,0.21465063,1.1860379
1747672432.620426,0.10854446,-1.389784,-0.7260093,-0.8980172,0.21465063,1.1860379
1747672432.621223,0.10854446,-1.389784,-0.7260093,-0.8980172,0.21465063,1.1860379
1747672432.6219525,0.10854446,-1.389784,-0.7260093,-0.8980172,0.21465063,1.1860379
1747672432.6226985,0.10854446,-1.389784,-0.7260093,-0.8980172,0.21465063,1.1860379
1747672432.6234372,0.10854446,-1.389784,-0.7260093,-0.8980172,0.21465063,1.1860379
1747672432.6241357,0.10854446,-1.389784,-0.7260093,-0.8980172,0.21465063,1.1860379
1747672432.6248772,0.10854446,-1.389784,-0.7260093,-0.8980172,0.21465063,1.1860379
1747672432.625586,0.10854446,-1.389784,-0.7260093,-0.8980172,0.21465063,1.1860379
1747672432.6263137,0.10854446,-1.389784,-0.7260093,-0.8980172,0.21465063,1.1860379
1747672432.6270442,0.10854446,-1.389784,-0.7260093,-0.8980172,0.21465063,1.1860379
1747672432.627794,0.10854446,-1.389784,-0.7260093,-0.8980172,0.21465063,1.1860379
1747672432.6292725,0.10854446,-1.389784,-0.7260093,-0.8980172,0.21465063,1.1860379
1747672432.6304538,0.07193588,-1.232123,-0.23350178,-0.8980172,0.21465063,1.1860379
1747672432.6360042,0.07193588,-1.232123,-0.23350178,-0.8980172,0.21465063,1.1860379
1747672432.6371374,0.07193588,-1.232123,-0.23350178,-0.8980172,0.21465063,1.1860379
1747672432.6381803,0.07193588,-1.232123,-0.23350178,-0.8980172,0.21465063,1.1860379
1747672432.639198,0.15296288,-1.0866649,0.3483307,-1.6341144,0.4053328,1.6760591
1747672432.6401246,0.15296288,-1.0866649,0.3483307,-1.6341144,0.4053328,1.6760591
1747672432.6409183,0.15296288,-1.0866649,0.3483307,-1.6341144,0.4053328,1.6760591
1747672432.6417513,0.15296288,-1.0866649,0.3483307,-1.6341144,0.4053328,1.6760591
1747672432.6429052,0.15296288,-1.0866649,0.3483307,-1.6341144,0.4053328,1.6760591
1747672432.6445122,0.15296288,-1.0866649,0.3483307,-1.6341144,0.4053328,1.6760591
1747672432.6456275,0.15296288,-1.0866649,0.3483307,-1.6341144,0.4053328,1.6760591
1747672432.6471024,0.27938455,-0.9880658,0.78177637,-1.4679333,0.39468017,1.857154
1747672432.6479697,0.27938455,-0.9880658,0.78177637,-1.4679333,0.39468017,1.857154
1747672432.6487627,0.27938455,-0.9880658,0.78177637,-1.4679333,0.39468017,1.857154
1747672432.6496358,0.27938455,-0.9880658,0.78177637,-1.4679333,0.39468017,1.857154
1747672432.6504238,0.27938455,-0.9880658,0.78177637,-1.4679333,0.39468017,1.857154
1747672432.6512196,0.27938455,-0.9880658,0.78177637,-1.4679333,0.39468017,1.857154
1747672432.6519969,0.27938455,-0.9880658,0.78177637,-1.4679333,0.39468017,1.857154
1747672432.652802,0.27938455,-0.9880658,0.78177637,-1.4679333,0.39468017,1.857154
1747672432.6536071,0.27938455,-0.9880658,0.78177637,-1.4679333,0.39468017,1.857154
1747672432.6545362,0.27938455,-0.9880658,0.78177637,-1.4679333,0.39468017,1.857154
1747672432.655448,0.27938455,-0.9880658,0.78177637,-1.4679333,0.39468017,1.857154
1747672432.6567028,0.27938455,-0.9880658,0.78177637,-0.9608678,0.34141698,2.0201395
1747672432.6575656,0.27938455,-0.9880658,0.78177637,-0.9608678,0.34141698,2.0201395
1747672432.658378,0.42093772,-0.8919072,1.1229683,-0.9608678,0.34141698,2.0201395
1747672432.659667,0.42093772,-0.8919072,1.1229683,-0.9608678,0.34141698,2.0201395
1747672432.660575,0.42093772,-0.8919072,1.1229683,-0.9608678,0.34141698,2.0201395
1747672432.6614022,0.42093772,-0.8919072,1.1229683,-0.9608678,0.34141698,2.0201395
1747672432.6621618,0.42093772,-0.8919072,1.1229683,-0.9608678,0.34141698,2.0201395
1747672432.6629062,0.42093772,-0.8919072,1.1229683,-0.9608678,0.34141698,2.0201395
1747672432.6639764,0.42093772,-0.8919072,1.1229683,-0.9608678,0.34141698,2.0201395
1747672432.6647983,0.42093772,-0.8919072,1.1229683,-0.9608678,0.34141698,2.0201395
1747672432.6655827,0.42093772,-0.8919072,1.1229683,-0.9608678,0.34141698,2.0201395
1747672432.6663392,0.42093772,-0.8919072,1.1229683,-0.9608678,0.34141698,2.0201395
1747672432.667083,0.4638918,-0.8260118,1.1205279,-0.3462107,0.22636852,2.1746025
1747672432.6677883,0.4638918,-0.8260118,1.1205279,-0.3462107,0.22636852,2.1746025
1747672432.6684813,0.4638918,-0.8260118,1.1205279,-0.3462107,0.22636852,2.1746025
1747672432.6691701,0.4638918,-0.8260118,1.1205279,-0.3462107,0.22636852,2.1746025
1747672432.669862,0.4638918,-0.8260118,1.1205279,-0.3462107,0.22636852,2.1746025
1747672432.6708677,0.4638918,-0.8260118,1.1205279,-0.3462107,0.22636852,2.1746025
1747672432.6715918,0.4638918,-0.8260118,1.1205279,-0.3462107,0.22636852,2.1746025
1747672432.67232,0.4638918,-0.8260118,1.1205279,-0.3462107,0.22636852,2.1746025
1747672432.6730218,0.4638918,-0.8260118,1.1205279,-0.3462107,0.22636852,2.1746025
1747672432.6737854,0.4638918,-0.8260118,1.1205279,-0.3462107,0.22636852,2.1746025
1747672432.6745417,0.4638918,-0.8260118,1.1205279,-0.3462107,0.22636852,2.1746025
1747672432.6759226,0.4638918,-0.8260118,1.1205279,-0.3462107,0.22636852,2.1746025
1747672432.6790495,0.4638918,-0.8260118,1.1205279,-0.3462107,0.22636852,2.1746025
1747672432.681014,0.5468713,-0.775736,0.869637,0.24074958,0.07190529,2.4483752
1747672432.6820517,0.5468713,-0.775736,0.869637,0.24074958,0.07190529,2.4483752
1747672432.682871,0.5468713,-0.775736,0.869637,0.24074958,0.07190529,2.4483752
1747672432.6836662,0.5468713,-0.775736,0.869637,0.24074958,0.07190529,2.4483752
1747672432.6844728,0.5468713,-0.775736,0.869637,0.24074958,0.07190529,2.4483752
1747672432.685277,0.5468713,-0.775736,0.869637,0.24074958,0.07190529,2.4483752
1747672432.6860805,0.5468713,-0.775736,0.869637,0.24074958,0.07190529,2.4483752
1747672432.6871367,0.5468713,-0.775736,0.869637,0.24074958,0.07190529,2.4483752
1747672432.6879487,0.5468713,-0.775736,0.869637,0.24074958,0.07190529,2.4483752
1747672432.6887553,0.5468713,-0.775736,0.869637,0.24074958,0.07190529,2.4483752
1747672432.6895747,0.6752454,-0.7420561,0.5162421,0.24074958,0.07190529,2.4483752
1747672432.6907167,0.6752454,-0.7420561,0.5162421,0.5411539,-0.17843166,2.7168217
1747672432.6927185,0.6752454,-0.7420561,0.5162421,0.5411539,-0.17843166,2.7168217
1747672432.6937346,0.6752454,-0.7420561,0.5162421,0.5411539,-0.17843166,2.7168217
1747672432.6947696,0.6752454,-0.7420561,0.5162421,0.5411539,-0.17843166,2.7168217
1747672432.6959033,0.81777483,-0.7430323,0.21751602,0.51984864,-0.29028434,2.8553061
1747672432.696874,0.81777483,-0.7430323,0.21751602,0.51984864,-0.29028434,2.8553061
1747672432.6976774,0.81777483,-0.7430323,0.21751602,0.51984864,-0.29028434,2.8553061
1747672432.6984735,0.81777483,-0.7430323,0.21751602,0.51984864,-0.29028434,2.8553061
1747672432.6992726,0.81777483,-0.7430323,0.21751602,0.51984864,-0.29028434,2.8553061
1747672432.700055,0.81777483,-0.7430323,0.21751602,0.51984864,-0.29028434,2.8553061
1747672432.7008345,0.81777483,-0.7430323,0.21751602,0.51984864,-0.29028434,2.8553061
1747672432.7016268,0.81777483,-0.7430323,0.21751602,0.51984864,-0.29028434,2.8553061
1747672432.7024162,0.81777483,-0.7430323,0.21751602,0.51984864,-0.29028434,2.8553061
1747672432.703518,0.81777483,-0.7430323,0.21751602,0.51984864,-0.29028434,2.8553061
1747672432.7043214,0.81777483,-0.7430323,0.21751602,0.51984864,-0.29028434,2.8553061
1747672432.705733,0.8773248,-0.70154256,-0.15296288,0.19174746,-0.23808642,2.9863334
1747672432.7065244,0.8773248,-0.70154256,-0.15296288,0.19174746,-0.23808642,2.9863334
1747672432.7076695,0.8773248,-0.70154256,-0.15296288,0.19174746,-0.23808642,2.9863334
1747672432.7084723,0.8773248,-0.70154256,-0.15296288,0.19174746,-0.23808642,2.9863334
1747672432.7092373,0.8773248,-0.70154256,-0.15296288,0.19174746,-0.23808642,2.9863334
1747672432.7099786,0.8773248,-0.70154256,-0.15296288,0.19174746,-0.23808642,2.9863334
1747672432.7107143,0.8773248,-0.70154256,-0.15296288,0.19174746,-0.23808642,2.9863334
1747672432.7114437,0.8773248,-0.70154256,-0.15296288,0.19174746,-0.23808642,2.9863334
1747672432.7121696,0.8773248,-0.70154256,-0.15296288,0.19174746,-0.23808642,2.9863334
1747672432.7129087,0.8773248,-0.70154256,-0.15296288,0.19174746,-0.23808642,2.9863334
1747672432.7136323,0.8773248,-0.70154256,-0.15296288,0.19174746,-0.23808642,2.9863334
1747672432.7143998,0.8773248,-0.70154256,-0.15296288,0.19174746,-0.23808642,2.9863334
1747672432.7151244,0.8773248,-0.70154256,-0.15296288,0.19174746,-0.23808642,2.9863334
1747672432.7158217,0.8773248,-0.70154256,-0.15296288,0.19174746,-0.23808642,2.9863334
1747672432.7165105,0.8773248,-0.70154256,-0.15296288,0.19174746,-0.23808642,2.9863334
1747672432.7172012,0.8773248,-0.70154256,-0.15296288,0.19174746,-0.23808642,2.9863334
1747672432.7179253,0.8773248,-0.70154256,-0.15296288,0.19174746,-0.23808642,2.9863334
1747672432.7186654,0.8773248,-0.70154256,-0.15296288,0.19174746,-0.23808642,2.9863334
1747672432.7193751,0.8773248,-0.70154256,-0.15296288,0.19174746,-0.23808642,2.9863334
1747672432.7200863,0.8773248,-0.70154256,-0.15296288,0.19174746,-0.23808642,2.9863334
1747672432.7208583,0.8773248,-0.70154256,-0.15296288,0.19174746,-0.23808642,2.9863334
1747672432.7216027,0.86707443,-0.6888516,-0.49757174,-0.47404233,0.05805687,3.1397314
1747672432.7223165,0.86707443,-0.6888516,-0.49757174,-0.47404233,0.05805687,3.1397314
1747672432.7256472,0.86707443,-0.6888516,-0.49757174,-0.47404233,0.05805687,3.1397314
1747672432.726454,0.86707443,-0.6888516,-0.49757174,-0.47404233,0.05805687,3.1397314
1747672432.7273011,0.86707443,-0.6888516,-0.49757174,-0.47404233,0.05805687,3.1397314
1747672432.728298,0.9427321,-0.61758685,-0.68256706,-1.4146701,0.4255728,3.27502
1747672432.729141,0.9427321,-0.61758685,-0.68256706,-1.4146701,0.4255728,3.27502
1747672432.730047,0.9427321,-0.61758685,-0.68256706,-1.4146701,0.4255728,3.27502
1747672432.730844,0.9427321,-0.61758685,-0.68256706,-1.4146701,0.4255728,3.27502
1747672432.7319908,0.9427321,-0.61758685,-0.68256706,-1.4146701,0.4255728,3.27502
1747672432.7327912,0.9427321,-0.61758685,-0.68256706,-1.4146701,0.4255728,3.27502
1747672432.7338786,0.9427321,-0.61758685,-0.68256706,-1.4146701,0.4255728,3.27502
1747672432.7349591,1.014973,-0.60587215,-0.6884245,-1.4146701,0.4255728,3.27502
1747672432.735822,1.014973,-0.60587215,-0.6884245,-2.4735422,0.59175396,3.3549147
1747672432.7370358,1.014973,-0.60587215,-0.6884245,-2.4735422,0.59175396,3.3549147
1747672432.7399886,1.014973,-0.60587215,-0.6884245,-2.4735422,0.59175396,3.3549147
1747672432.7408051,1.014973,-0.60587215,-0.6884245,-2.4735422,0.59175396,3.3549147
1747672432.741599,1.014973,-0.60587215,-0.6884245,-2.4735422,0.59175396,3.3549147
1747672432.742387,1.014973,-0.60587215,-0.6884245,-2.4735422,0.59175396,3.3549147
1747672432.743193,1.014973,-0.60587215,-0.6884245,-2.4735422,0.59175396,3.3549147
1747672432.743985,1.014973,-0.60587215,-0.6884245,-2.4735422,0.59175396,3.3549147
1747672432.744786,1.0408431,-0.6800655,-0.4463197,-2.4735422,0.59175396,3.3549147
1747672432.745576,1.0408431,-0.6800655,-0.4463197,-3.4844773,0.5683181,3.4475927
1747672432.7464287,1.0408431,-0.6800655,-0.4463197,-3.4844773,0.5683181,3.4475927
1747672432.747242,1.0408431,-0.6800655,-0.4463197,-3.4844773,0.5683181,3.4475927
1747672432.7481756,1.0408431,-0.6800655,-0.4463197,-3.4844773,0.5683181,3.4475927
1747672432.749032,1.0408431,-0.6800655,-0.4463197,-3.4844773,0.5683181,3.4475927
1747672432.7509813,1.0408431,-0.6800655,-0.4463197,-3.4844773,0.5683181,3.4475927
1747672432.75179,1.0408431,-0.6800655,-0.4463197,-3.4844773,0.5683181,3.4475927
1747672432.7525961,1.0408431,-0.6800655,-0.4463197,-3.4844773,0.5683181,3.4475927
1747672432.753871,1.0408431,-0.6800655,-0.4463197,-3.4844773,0.5683181,3.4475927
1747672432.755212,1.0408431,-0.6800655,-0.4463197,-3.4844773,0.5683181,3.4475927
1747672432.7560568,1.0408431,-0.6800655,-0.4463197,-3.4844773,0.5683181,3.4475927
1747672432.756808,1.0408431,-0.6800655,-0.4463197,-3.4844773,0.5683181,3.4475927
1747672432.7576053,1.0408431,-0.6800655,-0.4463197,-3.4844773,0.5683181,3.4475927
1747672432.758387,1.0896546,-0.7059356,-0.16126083,-3.9649112,0.39468017,3.550923
1747672432.7591386,1.0896546,-0.7059356,-0.16126083,-3.9649112,0.39468017,3.550923
1747672432.7598917,1.0896546,-0.7059356,-0.16126083,-3.9649112,0.39468017,3.550923
1747672432.760643,1.0896546,-0.7059356,-0.16126083,-3.9649112,0.39468017,3.550923
1747672432.7613385,1.0896546,-0.7059356,-0.16126083,-3.9649112,0.39468017,3.550923
1747672432.7620585,1.0896546,-0.7059356,-0.16126083,-3.9649112,0.39468017,3.550923
1747672432.762757,1.0896546,-0.7059356,-0.16126083,-3.9649112,0.39468017,3.550923
1747672432.7634563,1.0896546,-0.7059356,-0.16126083,-3.9649112,0.39468017,3.550923
1747672432.7641835,1.0896546,-0.7059356,-0.16126083,-3.9649112,0.39468017,3.550923
1747672432.7649212,1.0896546,-0.7059356,-0.16126083,-3.9649112,0.39468017,3.550923
1747672432.765656,1.0896546,-0.7059356,-0.16126083,-3.9649112,0.39468017,3.550923
1747672432.7663617,1.0896546,-0.7059356,-0.16126083,-3.9649112,0.39468017,3.550923
1747672432.7671266,1.2326721,-0.6732319,0.59482855,-4.371842,0.035686333,3.8715675
1747672432.7678776,1.2326721,-0.6732319,0.59482855,-4.371842,0.035686333,3.8715675
1747672432.7693725,1.2326721,-0.6732319,0.59482855,-4.371842,0.035686333,3.8715675
1747672432.770753,1.2326721,-0.6732319,0.59482855,-4.371842,0.035686333,3.8715675
1747672432.7716491,1.2326721,-0.6732319,0.59482855,-4.371842,0.035686333,3.8715675
1747672432.7726488,1.2326721,-0.6732319,0.59482855,-4.371842,0.035686333,3.8715675
1747672432.7736504,1.2326721,-0.6732319,0.59482855,-4.371842,0.035686333,3.8715675
1747672432.774671,1.2326721,-0.6732319,0.59482855,-4.371842,0.035686333,3.8715675
1747672432.7759893,1.2326721,-0.6732319,0.59482855,-4.371842,0.035686333,3.8715675
1747672432.776832,1.2326721,-0.6732319,0.59482855,-4.371842,0.035686333,3.8715675
1747672432.7776468,1.4083934,-0.65663606,0.96091443,-4.1800947,-0.08362319,4.358393
1747672432.7785215,1.4083934,-0.65663606,0.96091443,-4.1800947,-0.08362319,4.358393
1747672432.7793148,1.4083934,-0.65663606,0.96091443,-4.1800947,-0.08362319,4.358393
1747672432.7800975,1.4083934,-0.65663606,0.96091443,-4.1800947,-0.08362319,4.358393
1747672432.7808826,1.4083934,-0.65663606,0.96091443,-4.1800947,-0.08362319,4.358393
1747672432.7816703,1.4083934,-0.65663606,0.96091443,-4.1800947,-0.08362319,4.358393
1747672432.7827077,1.4083934,-0.65663606,0.96091443,-4.1800947,-0.08362319,4.358393
1747672432.7841415,1.4083934,-0.65663606,0.96091443,-4.1800947,-0.08362319,4.358393
1747672432.7868464,1.4083934,-0.65663606,0.96091443,-4.1800947,-0.08362319,4.358393
1747672432.7880995,1.4083934,-0.65663606,0.96091443,-4.1800947,-0.08362319,4.358393
1747672432.7891307,1.5777692,-0.62490857,0.7851932,-3.984086,-0.20080219,4.83137
1747672432.7899942,1.5777692,-0.62490857,0.7851932,-3.984086,-0.20080219,4.83137
1747672432.7907977,1.5777692,-0.62490857,0.7851932,-3.984086,-0.20080219,4.83137
1747672432.7915869,1.5777692,-0.62490857,0.7851932,-3.984086,-0.20080219,4.83137
1747672432.7924094,1.5777692,-0.62490857,0.7851932,-3.984086,-0.20080219,4.83137
1747672432.7932057,1.5777692,-0.62490857,0.7851932,-3.984086,-0.20080219,4.83137
1747672432.7939878,1.5777692,-0.62490857,0.7851932,-3.984086,-0.20080219,4.83137
1747672432.7948189,1.5777692,-0.62490857,0.7851932,-3.984086,-0.20080219,4.83137
1747672432.7956076,1.5777692,-0.62490857,0.7851932,-3.984086,-0.20080219,4.83137
1747672432.796466,1.5777692,-0.62490857,0.7851932,-3.984086,-0.20080219,4.83137
1747672432.7972498,1.5777692,-0.62490857,0.7851932,-3.984086,-0.20080219,4.83137
1747672432.7980433,1.7979088,-0.44479433,0.45522776,-4.0213704,-0.7344993,5.332044
1747672432.799085,1.7979088,-0.44479433,0.45522776,-4.0213704,-0.7344993,5.332044
1747672432.8002172,1.7979088,-0.44479433,0.45522776,-4.0213704,-0.7344993,5.332044
1747672432.801009,1.7979088,-0.44479433,0.45522776,-4.0213704,-0.7344993,5.332044
1747672432.8018258,1.7979088,-0.44479433,0.45522776,-4.0213704,-0.7344993,5.332044
1747672432.8025606,1.7979088,-0.44479433,0.45522776,-4.0213704,-0.7344993,5.332044
1747672432.8033097,1.7979088,-0.44479433,0.45522776,-4.0213704,-0.7344993,5.332044
1747672432.8040519,2.3426445,-0.3652317,0.19164595,-4.347341,-1.727325,5.849762
1747672432.804805,2.3426445,-0.3652317,0.19164595,-4.347341,-1.727325,5.849762
1747672432.8055475,2.3426445,-0.3652317,0.19164595,-4.347341,-1.727325,5.849762
1747672432.8062387,2.3426445,-0.3652317,0.19164595,-4.347341,-1.727325,5.849762
1747672432.8069353,2.3426445,-0.3652317,0.19164595,-4.347341,-1.727325,5.849762
1747672432.8076549,2.3426445,-0.3652317,0.19164595,-4.347341,-1.727325,5.849762
1747672432.808353,2.3426445,-0.3652317,0.19164595,-4.347341,-1.727325,5.849762
1747672432.8091304,2.3426445,-0.3652317,0.19164595,-4.347341,-1.727325,5.849762
1747672432.8098555,2.3426445,-0.3652317,0.19164595,-4.347341,-1.727325,5.849762
1747672432.8105946,2.3426445,-0.3652317,0.19164595,-4.347341,-1.727325,5.849762
1747672432.8113117,2.3426445,-0.3652317,0.19164595,-4.347341,-1.727325,5.849762
1747672432.811999,2.3426445,-0.3652317,0.19164595,-4.347341,-1.727325,5.849762
1747672432.812695,2.3426445,-0.3652317,0.19164595,-4.347341,-1.727325,5.849762
1747672432.81339,2.3426445,-0.3652317,0.19164595,-4.347341,-1.727325,5.849762
1747672432.81416,2.3426445,-0.3652317,0.19164595,-4.347341,-1.727325,5.849762
1747672432.8149073,3.201238,-0.396471,0.20092013,-4.84908,-2.640256,6.221539
1747672432.8165028,3.201238,-0.396471,0.20092013,-4.84908,-2.640256,6.221539
1747672432.8183694,3.201238,-0.396471,0.20092013,-4.84908,-2.640256,6.221539
1747672432.819311,3.201238,-0.396471,0.20092013,-4.84908,-2.640256,6.221539
1747672432.8201,3.201238,-0.396471,0.20092013,-4.84908,-2.640256,6.221539
1747672432.820939,3.201238,-0.396471,0.20092013,-4.84908,-2.640256,6.221539
1747672432.8217583,3.201238,-0.396471,0.20092013,-4.84908,-2.640256,6.221539
1747672432.822565,3.201238,-0.396471,0.20092013,-4.84908,-2.640256,6.221539
1747672432.823384,3.201238,-0.396471,0.20092013,-4.84908,-2.640256,6.221539
1747672432.8242044,3.201238,-0.396471,0.20092013,-5.434975,-3.0130982,6.557097
1747672432.8250926,3.977828,-0.2925026,0.33710408,-5.434975,-3.0130982,6.557097
1747672432.8259404,3.977828,-0.2925026,0.33710408,-5.434975,-3.0130982,6.557097
1747672432.8267493,3.977828,-0.2925026,0.33710408,-5.434975,-3.0130982,6.557097
1747672432.82761,3.977828,-0.2925026,0.33710408,-5.434975,-3.0130982,6.557097
1747672432.8284066,3.977828,-0.2925026,0.33710408,-5.434975,-3.0130982,6.557097
1747672432.8296444,3.977828,-0.2925026,0.33710408,-5.434975,-3.0130982,6.557097
1747672432.8305163,3.977828,-0.2925026,0.33710408,-5.434975,-3.0130982,6.557097
1747672432.8314204,3.977828,-0.2925026,0.33710408,-5.434975,-3.0130982,6.557097
1747672432.8322423,3.977828,-0.2925026,0.33710408,-5.434975,-3.0130982,6.557097
1747672432.833042,3.977828,-0.2925026,0.33710408,-5.434975,-3.0130982,6.557097
1747672432.833988,3.977828,-0.2925026,0.33710408,-5.434975,-3.0130982,6.557097
1747672432.8347816,4.740263,-0.23441698,0.59629285,-6.028327,-2.9779446,6.83087
1747672432.835601,4.740263,-0.23441698,0.59629285,-6.028327,-2.9779446,6.83087
1747672432.8364556,4.740263,-0.23441698,0.59629285,-6.028327,-2.9779446,6.83087
1747672432.8375363,4.740263,-0.23441698,0.59629285,-6.028327,-2.9779446,6.83087
1747672432.8383448,4.740263,-0.23441698,0.59629285,-6.028327,-2.9779446,6.83087
1747672432.839138,4.740263,-0.23441698,0.59629285,-6.028327,-2.9779446,6.83087
1747672432.8399708,4.740263,-0.23441698,0.59629285,-6.028327,-2.9779446,6.83087
1747672432.8408017,4.740263,-0.23441698,0.59629285,-6.028327,-2.9779446,6.83087
1747672432.8416102,4.740263,-0.23441698,0.59629285,-6.028327,-2.9779446,6.83087
1747672432.8424385,4.740263,-0.23441698,0.59629285,-6.028327,-2.9779446,6.83087
1747672432.8433394,4.740263,-0.23441698,0.59629285,-6.028327,-2.9779446,6.83087
1747672432.844808,4.740263,-0.23441698,0.59629285,-6.028327,-2.9779446,6.83087
1747672432.8458414,5.4265523,-0.2646801,0.87598246,-6.6610937,-2.559296,6.9895945
1747672432.8484726,5.4265523,-0.2646801,0.87598246,-6.6610937,-2.559296,6.9895945
1747672432.8492663,5.4265523,-0.2646801,0.87598246,-6.6610937,-2.559296,6.9895945
1747672432.8500712,5.4265523,-0.2646801,0.87598246,-6.6610937,-2.559296,6.9895945
1747672432.8508503,5.4265523,-0.2646801,0.87598246,-6.6610937,-2.559296,6.9895945
1747672432.851618,5.4265523,-0.2646801,0.87598246,-6.6610937,-2.559296,6.9895945
1747672432.8524048,5.4265523,-0.2646801,0.87598246,-6.6610937,-2.559296,6.9895945
1747672432.8531613,5.4265523,-0.2646801,0.87598246,-6.6610937,-2.559296,6.9895945
1747672432.8538911,5.4265523,-0.2646801,0.87598246,-6.6610937,-2.559296,6.9895945
1747672432.854638,5.976657,-0.26614442,1.2820938,-6.6610937,-2.559296,6.9895945
1747672432.8553572,5.976657,-0.26614442,1.2820938,-6.6610937,-2.559296,6.9895945
1747672432.856092,5.976657,-0.26614442,1.2820938,-6.6610937,-2.559296,6.9895945
1747672432.85683,5.976657,-0.26614442,1.2820938,-6.6610937,-2.559296,6.9895945
1747672432.8576393,5.976657,-0.26614442,1.2820938,-6.6610937,-2.559296,6.9895945
1747672432.858403,5.976657,-0.26614442,1.2820938,-6.6610937,-2.559296,6.9895945
1747672432.8591483,5.976657,-0.26614442,1.2820938,-6.6610937,-2.559296,6.9895945
1747672432.8598733,5.976657,-0.26614442,1.2820938,-6.6610937,-2.559296,6.9895945
1747672432.8606498,5.976657,-0.26614442,1.2820938,-6.6610937,-2.559296,6.9895945
1747672432.8614008,5.976657,-0.26614442,1.2820938,-6.6610937,-2.559296,6.9895945
1747672432.862161,5.976657,-0.26614442,1.2820938,-6.6610937,-2.559296,6.9895945
1747672432.8645446,5.976657,-0.26614442,1.2820938,-6.6610937,-2.559296,6.9895945
1747672432.8653738,5.976657,-0.26614442,1.2820938,-6.6610937,-2.559296,6.9895945
1747672432.8661845,5.976657,-0.26614442,1.2820938,-6.6610937,-2.559296,6.9895945
1747672432.8670132,5.976657,-0.26614442,1.2820938,-6.6610937,-2.559296,6.9895945
1747672432.8681161,5.976657,-0.26614442,1.2820938,-6.6610937,-2.559296,6.9895945
1747672432.8690526,5.976657,-0.26614442,1.2820938,-6.6610937,-2.559296,6.9895945
1747672432.8699212,6.105031,-0.20171331,1.7472668,-7.740206,-1.2671311,6.479333
1747672432.871265,6.105031,-0.20171331,1.7472668,-7.740206,-1.2671311,6.479333
1747672432.8724678,6.105031,-0.20171331,1.7472668,-7.740206,-1.2671311,6.479333
1747672432.873649,6.105031,-0.20171331,1.7472668,-7.740206,-1.2671311,6.479333
1747672432.8797357,6.105031,-0.20171331,1.7472668,-7.740206,-1.2671311,6.479333
1747672432.8805923,6.105031,-0.20171331,1.7472668,-7.740206,-1.2671311,6.479333
1747672432.8814228,5.8141146,-0.027456442,2.3544812,-7.8488626,-1.1382343,5.877459
1747672432.8822405,5.8141146,-0.027456442,2.3544812,-7.8488626,-1.1382343,5.877459
1747672432.8830326,5.8141146,-0.027456442,2.3544812,-7.8488626,-1.1382343,5.877459
1747672432.8839893,5.8141146,-0.027456442,2.3544812,-7.8488626,-1.1382343,5.877459
1747672432.884902,5.8141146,-0.027456442,2.3544812,-7.8488626,-1.1382343,5.877459
1747672432.8857543,5.8141146,-0.027456442,2.3544812,-7.8488626,-1.1382343,5.877459
1747672432.8865778,5.8141146,-0.027456442,2.3544812,-7.8488626,-1.1382343,5.877459
1747672432.8883886,5.8141146,-0.027456442,2.3544812,-7.8488626,-1.1382343,5.877459
1747672432.8891957,5.8141146,-0.027456442,2.3544812,-7.8488626,-1.1382343,5.877459
1747672432.8900049,5.08536,0.2873774,2.80013,-7.4888034,-1.6442344,5.433244
1747672432.891844,5.08536,0.2873774,2.80013,-7.4888034,-1.6442344,5.433244
1747672432.8931415,5.08536,0.2873774,2.80013,-7.4888034,-1.6442344,5.433244
1747672432.893941,5.08536,0.2873774,2.80013,-7.4888034,-1.6442344,5.433244
1747672432.8950276,5.08536,0.2873774,2.80013,-7.4888034,-1.6442344,5.433244
1747672432.8959436,5.08536,0.2873774,2.80013,-7.4888034,-1.6442344,5.433244
1747672432.8967772,5.08536,0.2873774,2.80013,-7.4888034,-1.6442344,5.433244
1747672432.8975213,5.08536,0.2873774,2.80013,-7.4888034,-1.6442344,5.433244
1747672432.898277,5.08536,0.2873774,2.80013,-7.4888034,-1.6442344,5.433244
1747672432.8990648,4.306817,0.56365025,3.0720096,-6.608896,-2.7318685,5.374655
1747672432.8998125,4.306817,0.56365025,3.0720096,-6.608896,-2.7318685,5.374655
1747672432.9005363,4.306817,0.56365025,3.0720096,-6.608896,-2.7318685,5.374655
1747672432.9012387,4.306817,0.56365025,3.0720096,-6.608896,-2.7318685,5.374655
1747672432.901959,4.306817,0.56365025,3.0720096,-6.608896,-2.7318685,5.374655
1747672432.9027116,4.306817,0.56365025,3.0720096,-6.608896,-2.7318685,5.374655
1747672432.9034648,4.306817,0.56365025,3.0720096,-6.608896,-2.7318685,5.374655
1747672432.9042253,4.306817,0.56365025,3.0720096,-6.608896,-2.7318685,5.374655
1747672432.9050453,4.126215,0.8174698,3.1291192,-6.608896,-2.7318685,5.374655
1747672432.9058611,4.126215,0.8174698,3.1291192,-6.608896,-2.7318685,5.374655
1747672432.9066055,4.126215,0.8174698,3.1291192,-6.608896,-2.7318685,5.374655
1747672432.9073756,4.126215,0.8174698,3.1291192,-6.608896,-2.7318685,5.374655
1747672432.9082363,4.126215,0.8174698,3.1291192,-6.608896,-2.7318685,5.374655
1747672432.9090195,4.126215,0.8174698,3.1291192,-6.608896,-2.7318685,5.374655
1747672432.9111981,4.126215,0.8174698,3.1291192,-6.608896,-2.7318685,5.374655
1747672432.9120524,4.126215,0.8174698,3.1291192,-6.608896,-2.7318685,5.374655
1747672432.913145,4.126215,0.8174698,3.1291192,-6.608896,-2.7318685,5.374655
1747672432.9143932,4.126215,0.8174698,3.1291192,-6.608896,-2.7318685,5.374655
1747672432.9147828,4.126215,0.8174698,3.1291192,-4.917257,-4.243478,5.696364
1747672432.9153817,4.3980947,1.1181483,2.96316,-4.917257,-4.243478,5.696364
1747672432.916464,4.3980947,1.1181483,2.96316,-4.917257,-4.243478,5.696364
1747672432.9175725,4.3980947,1.1181483,2.96316,-4.917257,-4.243478,5.696364
1747672432.918641,4.3980947,1.1181483,2.96316,-4.917257,-4.243478,5.696364
1747672432.9197934,4.3980947,1.1181483,2.96316,-4.917257,-4.243478,5.696364
1747672432.9202828,4.3980947,1.1181483,2.96316,-4.917257,-4.243478,5.696364
1747672432.921408,4.3980947,1.1181483,2.96316,-4.917257,-4.243478,5.696364
1747672432.923719,4.3980947,1.1181483,2.96316,-4.917257,-4.243478,5.696364
1747672432.924296,4.3980947,1.1181483,2.96316,-4.917257,-4.243478,5.696364
1747672432.9253771,4.3980947,1.1181483,2.96316,-4.917257,-4.243478,5.696364
1747672432.9273353,4.3980947,1.1181483,2.96316,-4.917257,-4.243478,5.696364
1747672432.9286306,4.6953564,1.4388394,2.583895,-4.468781,-4.322307,5.4513535
1747672432.9291794,4.6953564,1.4388394,2.583895,-4.468781,-4.322307,5.4513535
1747672432.929722,4.6953564,1.4388394,2.583895,-4.468781,-4.322307,5.4513535
1747672432.93028,4.6953564,1.4388394,2.583895,-4.468781,-4.322307,5.4513535
1747672432.9319272,4.6953564,1.4388394,2.583895,-4.468781,-4.322307,5.4513535
1747672432.9324691,4.6953564,1.4388394,2.583895,-4.468781,-4.322307,5.4513535
1747672432.9333482,4.6953564,1.4388394,2.583895,-4.468781,-4.322307,5.4513535
1747672432.934556,4.6953564,1.4388394,2.583895,-4.468781,-4.322307,5.4513535
1747672432.9354105,4.6953564,1.4388394,2.583895,-4.468781,-4.322307,5.4513535
1747672432.9367366,4.6953564,1.4388394,2.583895,-4.468781,-4.322307,5.4513535
1747672432.9393563,4.6953564,1.4388394,2.583895,-4.468781,-4.322307,5.4513535
1747672432.9401855,4.6953564,1.4388394,2.583895,-4.468781,-4.322307,5.4513535
1747672432.940587,4.6953564,1.4388394,2.583895,-4.468781,-4.322307,5.4513535
1747672432.9411108,4.4405603,1.7136478,2.3413022,-4.477303,-3.74813,5.016726
1747672432.9416494,4.4405603,1.7136478,2.3413022,-4.477303,-3.74813,5.016726
1747672432.9422216,4.4405603,1.7136478,2.3413022,-4.477303,-3.74813,5.016726
1747672432.9432411,4.4405603,1.7136478,2.3413022,-4.477303,-3.74813,5.016726
1747672432.944008,4.4405603,1.7136478,2.3413022,-4.477303,-3.74813,5.016726
1747672432.944545,4.099857,1.709743,2.5985386,-4.529501,-2.518816,4.6385574
1747672432.9452941,4.099857,1.709743,2.5985386,-4.529501,-2.518816,4.6385574
1747672432.9460285,4.099857,1.709743,2.5985386,-4.529501,-2.518816,4.6385574
1747672432.9467676,4.099857,1.709743,2.5985386,-4.529501,-2.518816,4.6385574
1747672432.9472842,4.099857,1.709743,2.5985386,-4.529501,-2.518816,4.6385574
1747672432.948021,4.099857,1.709743,2.5985386,-4.529501,-2.518816,4.6385574
1747672432.9487343,4.099857,1.709743,2.5985386,-4.529501,-2.518816,4.6385574
1747672432.94944,4.099857,1.709743,2.5985386,-4.529501,-2.518816,4.6385574
1747672432.9501486,4.099857,1.709743,2.5985386,-4.529501,-2.518816,4.6385574
1747672432.9508843,4.099857,1.709743,2.5985386,-4.529501,-2.518816,4.6385574
1747672432.9516385,4.099857,1.709743,2.5985386,-4.529501,-2.518816,4.6385574
1747672432.95265,4.099857,1.709743,2.5985386,-4.529501,-2.518816,4.6385574
1747672432.9534185,3.7591527,1.8059015,2.8997052,-4.229097,-1.7454345,4.140014
1747672432.9541779,3.7591527,1.8059015,2.8997052,-4.229097,-1.7454345,4.140014
1747672432.9549215,3.7591527,1.8059015,2.8997052,-4.229097,-1.7454345,4.140014
1747672432.955717,3.7591527,1.8059015,2.8997052,-4.229097,-1.7454345,4.140014
1747672432.9565108,3.7591527,1.8059015,2.8997052,-4.229097,-1.7454345,4.140014
1747672432.958177,3.7591527,1.8059015,2.8997052,-4.229097,-1.7454345,4.140014
1747672432.9593215,3.7591527,1.8059015,2.8997052,-4.229097,-1.7454345,4.140014
1747672432.960109,3.7591527,1.8059015,2.8997052,-4.229097,-1.7454345,4.140014
1747672432.9609404,3.7591527,1.8059015,2.8997052,-4.229097,-1.7454345,4.140014
1747672432.9618316,3.7591527,1.8059015,2.8997052,-4.229097,-1.7454345,4.140014
1747672432.9628239,3.7591527,1.8059015,2.8997052,-4.229097,-1.7454345,4.140014
1747672432.9638252,3.7591527,1.8059015,2.8997052,-4.229097,-1.7454345,4.140014
1747672432.9648235,3.7591527,1.8059015,2.8997052,-4.229097,-1.7454345,4.140014
1747672432.9658234,3.7591527,1.8059015,2.8997052,-4.229097,-1.7454345,4.140014
1747672432.9669423,3.520953,1.8600823,3.0300317,-3.5089784,-1.4492912,3.4465272
1747672432.9678247,3.520953,1.8600823,3.0300317,-3.5089784,-1.4492912,3.4465272
1747672432.9688208,3.520953,1.8600823,3.0300317,-3.5089784,-1.4492912,3.4465272
1747672432.9701345,3.520953,1.8600823,3.0300317,-3.5089784,-1.4492912,3.4465272
1747672432.9708235,3.520953,1.8600823,3.0300317,-3.5089784,-1.4492912,3.4465272
1747672432.9718263,3.520953,1.8600823,3.0300317,-3.5089784,-1.4492912,3.4465272
1747672432.9728203,3.520953,1.8600823,3.0300317,-3.5089784,-1.4492912,3.4465272
1747672432.9739244,3.520953,1.8600823,3.0300317,-3.5089784,-1.4492912,3.4465272
1747672432.9748423,3.520953,1.8600823,3.0300317,-3.5089784,-1.4492912,3.4465272
1747672432.9758232,3.520953,1.8600823,3.0300317,-3.5089784,-1.4492912,3.4465272
1747672432.9768245,3.1197228,1.8156638,2.8186781,-2.815492,-1.2532827,2.7455838
1747672432.9778914,3.1197228,1.8156638,2.8186781,-2.815492,-1.2532827,2.7455838
1747672432.9788303,3.1197228,1.8156638,2.8186781,-2.815492,-1.2532827,2.7455838
1747672432.9798236,3.1197228,1.8156638,2.8186781,-2.815492,-1.2532827,2.7455838
1747672432.9808235,3.1197228,1.8156638,2.8186781,-2.815492,-1.2532827,2.7455838
1747672432.9818306,3.1197228,1.8156638,2.8186781,-2.815492,-1.2532827,2.7455838
1747672432.9831772,3.1197228,1.8156638,2.8186781,-2.815492,-1.2532827,2.7455838
1747672432.9848235,3.1197228,1.8156638,2.8186781,-2.815492,-1.2532827,2.7455838
1747672432.9858327,3.1197228,1.8156638,2.8186781,-2.815492,-1.2532827,2.7455838
1747672432.9868264,3.1197228,1.8156638,2.8186781,-2.815492,-1.2532827,2.7455838
1747672432.9878263,2.122505,1.714624,2.349112,-2.815492,-1.2532827,2.7455838
1747672432.9888465,2.122505,1.714624,2.349112,-2.0144136,-1.0487521,2.0180087
1747672432.9894025,2.122505,1.714624,2.349112,-2.0144136,-1.0487521,2.0180087
1747672432.9899507,2.122505,1.714624,2.349112,-2.0144136,-1.0487521,2.0180087
1747672432.9904895,2.122505,1.714624,2.349112,-2.0144136,-1.0487521,2.0180087
1747672432.9910605,2.122505,1.714624,2.349112,-2.0144136,-1.0487521,2.0180087
1747672432.9916036,2.122505,1.714624,2.349112,-2.0144136,-1.0487521,2.0180087
1747672432.9921572,2.122505,1.714624,2.349112,-2.0144136,-1.0487521,2.0180087
1747672432.9927068,2.122505,1.714624,2.349112,-2.0144136,-1.0487521,2.0180087
1747672432.9932578,2.122505,1.714624,2.349112,-2.0144136,-1.0487521,2.0180087
1747672432.9937963,2.122505,1.714624,2.349112,-2.0144136,-1.0487521,2.0180087
1747672432.9943206,2.122505,1.714624,2.349112,-2.0144136,-1.0487521,2.0180087
1747672432.994863,2.122505,1.714624,2.349112,-2.0144136,-1.0487521,2.0180087
1747672432.9953952,2.122505,1.714624,2.349112,-2.0144136,-1.0487521,2.0180087
1747672432.9959276,2.122505,1.714624,2.349112,-2.0144136,-1.0487521,2.0180087
1747672432.9964602,2.122505,1.714624,2.349112,-2.0144136,-1.0487521,2.0180087
1747672432.996984,2.122505,1.714624,2.349112,-2.0144136,-1.0487521,2.0180087
1747672432.9975274,2.122505,1.714624,2.349112,-2.0144136,-1.0487521,2.0180087
1747672432.9980793,0.8802535,1.5613562,1.6799071,-2.0144136,-1.0487521,2.0180087
1747672432.998628,0.8802535,1.5613562,1.6799071,-1.2612722,-0.94968253,1.7048213
1747672432.99918,0.8802535,1.5613562,1.6799071,-1.2612722,-0.94968253,1.7048213
1747672432.9997127,0.8802535,1.5613562,1.6799071,-1.2612722,-0.94968253,1.7048213
1747672433.000246,0.8802535,1.5613562,1.6799071,-1.2612722,-0.94968253,1.7048213
1747672433.0007715,0.8802535,1.5613562,1.6799071,-1.2612722,-0.94968253,1.7048213
1747672433.0013268,0.8802535,1.5613562,1.6799071,-1.2612722,-0.94968253,1.7048213
1747672433.0018828,0.8802535,1.5613562,1.6799071,-1.2612722,-0.94968253,1.7048213
1747672433.0024364,0.8802535,1.5613562,1.6799071,-1.2612722,-0.94968253,1.7048213
1747672433.00298,0.8802535,1.5613562,1.6799071,-1.2612722,-0.94968253,1.7048213
1747672433.0067472,0.8802535,1.5613562,1.6799071,-1.2612722,-0.94968253,1.7048213
1747672433.0081131,0.23496611,1.4730074,1.1581126,-0.85434145,-0.9805752,1.7847161
1747672433.0091245,0.23496611,1.4730074,1.1581126,-0.85434145,-0.9805752,1.7847161
1747672433.0096834,0.23496611,1.4730074,1.1581126,-0.85434145,-0.9805752,1.7847161
1747672433.0102074,0.23496611,1.4730074,1.1581126,-0.85434145,-0.9805752,1.7847161
1747672433.010757,0.23496611,1.4730074,1.1581126,-0.85434145,-0.9805752,1.7847161
1747672433.0113034,0.23496611,1.4730074,1.1581126,-0.85434145,-0.9805752,1.7847161
1747672433.0118456,0.23496611,1.4730074,1.1581126,-0.85434145,-0.9805752,1.7847161
1747672433.0125184,0.23496611,1.4730074,1.1581126,-0.85434145,-0.9805752,1.7847161
1747672433.0131562,0.23496611,1.4730074,1.1581126,-0.85434145,-0.9805752,1.7847161
1747672433.0141814,0.23496611,1.4730074,1.1581126,-0.85434145,-0.9805752,1.7847161
1747672433.0147078,0.23496611,1.4730074,1.1581126,-0.85434145,-0.9805752,1.7847161
1747672433.0217695,0.23496611,1.4730074,1.1581126,-0.85434145,-0.9805752,1.7847161
1747672433.0227835,-0.025687024,1.3656223,0.6236273,-0.6189182,-1.0029457,1.8720677
1747672433.0238593,-0.025687024,1.3656223,0.6236273,-0.6189182,-1.0029457,1.8720677
1747672433.024424,-0.025687024,1.3656223,0.6236273,-0.6189182,-1.0029457,1.8720677
1747672433.0250454,-0.025687024,1.3656223,0.6236273,-0.6189182,-1.0029457,1.8720677
1747672433.025543,-0.025687024,1.3656223,0.6236273,-0.6189182,-1.0029457,1.8720677
1747672433.0260847,-0.025687024,1.3656223,0.6236273,-0.6189182,-1.0029457,1.8720677
1747672433.0266163,-0.025687024,1.3656223,0.6236273,-0.6189182,-1.0029457,1.8720677
1747672433.0271785,-0.025687024,1.3656223,0.6236273,-0.6189182,-1.0029457,1.8720677
1747672433.0277007,-0.025687024,1.3656223,0.6236273,-0.6189182,-1.0029457,1.8720677
1747672433.0284133,-0.025687024,1.3656223,0.6236273,-0.6189182,-1.0029457,1.8720677
1747672433.0293455,-0.025687024,1.3656223,0.6236273,-0.6189182,-1.0029457,1.8720677
1747672433.0299125,-0.08426076,1.3500026,0.3307586,-0.64341927,-0.911333,1.8305224
1747672433.0304313,-0.08426076,1.3500026,0.3307586,-0.64341927,-0.911333,1.8305224
1747672433.0310023,-0.08426076,1.3500026,0.3307586,-0.64341927,-0.911333,1.8305224
1747672433.0319474,-0.08426076,1.3500026,0.3307586,-0.64341927,-0.911333,1.8305224
1747672433.032889,-0.08426076,1.3500026,0.3307586,-0.64341927,-0.911333,1.8305224
1747672433.0337174,-0.08426076,1.3500026,0.3307586,-0.64341927,-0.911333,1.8305224
1747672433.0342636,-0.08426076,1.3500026,0.3307586,-0.64341927,-0.911333,1.8305224
1747672433.0348022,-0.08426076,1.3500026,0.3307586,-0.64341927,-0.911333,1.8305224
1747672433.035353,-0.15991852,1.3329186,0.12526238,-0.8266446,-0.48735812,1.6259918
1747672433.035911,-0.15991852,1.3329186,0.12526238,-0.8266446,-0.48735812,1.6259918
1747672433.036475,-0.15991852,1.3329186,0.12526238,-0.8266446,-0.48735812,1.6259918
1747672433.037014,-0.15991852,1.3329186,0.12526238,-0.8266446,-0.48735812,1.6259918
1747672433.0375512,-0.15991852,1.3329186,0.12526238,-0.8266446,-0.48735812,1.6259918
1747672433.0380955,-0.15991852,1.3329186,0.12526238,-0.8266446,-0.48735812,1.6259918
1747672433.0391188,-0.15991852,1.3329186,0.12526238,-0.8266446,-0.48735812,1.6259918
1747672433.0398695,-0.15991852,1.3329186,0.12526238,-0.8266446,-0.48735812,1.6259918
1747672433.0409048,-0.15991852,1.3329186,0.12526238,-0.8266446,-0.48735812,1.6259918
1747672433.0416248,-0.15991852,1.3329186,0.12526238,-0.8266446,-0.48735812,1.6259918
1747672433.042379,-0.15991852,1.3329186,0.12526238,-0.8266446,-0.48735812,1.6259918
1747672433.0431378,-0.42398846,1.3788015,0.10769027,-0.8266446,-0.48735812,1.6259918
1747672433.043637,-0.42398846,1.3788015,0.10769027,-1.0173268,-0.048469495,1.3458275
1747672433.0443866,-0.42398846,1.3788015,0.10769027,-1.0173268,-0.048469495,1.3458275
1747672433.0451205,-0.42398846,1.3788015,0.10769027,-1.0173268,-0.048469495,1.3458275
1747672433.0458353,-0.42398846,1.3788015,0.10769027,-1.0173268,-0.048469495,1.3458275
1747672433.0465956,-0.42398846,1.3788015,0.10769027,-1.0173268,-0.048469495,1.3458275
1747672433.0473409,-0.42398846,1.3788015,0.10769027,-1.0173268,-0.048469495,1.3458275
1747672433.0480595,-0.42398846,1.3788015,0.10769027,-1.0173268,-0.048469495,1.3458275
1747672433.0488298,-0.42398846,1.3788015,0.10769027,-1.0173268,-0.048469495,1.3458275
1747672433.0495608,-0.42398846,1.3788015,0.10769027,-1.0173268,-0.048469495,1.3458275
1747672433.0510433,-0.42398846,1.3788015,0.10769027,-1.0173268,-0.048469495,1.3458275
1747672433.0520246,-0.42398846,1.3788015,0.10769027,-1.0173268,-0.048469495,1.3458275
1747672433.0529191,-0.42398846,1.3788015,0.10769027,-1.0173268,-0.048469495,1.3458275
1747672433.0537894,-0.42398846,1.3788015,0.10769027,-1.0173268,-0.048469495,1.3458275
1747672433.0547793,-0.42398846,1.3788015,0.10769027,-1.0450237,0.11984216,1.0827073
1747672433.0555694,-0.42398846,1.3788015,0.10769027,-1.0450237,0.11984216,1.0827073
1747672433.0563886,-0.42398846,1.3788015,0.10769027,-1.0450237,0.11984216,1.0827073
1747672433.057316,-0.42398846,1.3788015,0.10769027,-1.0450237,0.11984216,1.0827073
1747672433.058242,-0.42398846,1.3788015,0.10769027,-1.0450237,0.11984216,1.0827073
1747672433.0590928,-0.42398846,1.3788015,0.10769027,-1.0450237,0.11984216,1.0827073
1747672433.0608027,-0.42398846,1.3788015,0.10769027,-1.0450237,0.11984216,1.0827073
1747672433.066889,-0.42398846,1.3788015,0.10769027,-1.0450237,0.11984216,1.0827073
1747672433.0689373,-0.42398846,1.3788015,0.10769027,-0.800013,0.028229486,0.9016125
1747672433.0697653,-1.1668987,1.641407,0.5513863,-0.800013,0.028229486,0.9016125
1747672433.0706918,-1.1668987,1.641407,0.5513863,-0.800013,0.028229486,0.9016125
1747672433.0714903,-1.1668987,1.641407,0.5513863,-0.800013,0.028229486,0.9016125
1747672433.072013,-1.1668987,1.641407,0.5513863,-0.800013,0.028229486,0.9016125
1747672433.0727947,-1.1668987,1.641407,0.5513863,-0.800013,0.028229486,0.9016125
1747672433.0735774,-1.1668987,1.641407,0.5513863,-0.800013,0.028229486,0.9016125
1747672433.0747018,-1.1668987,1.641407,0.5513863,-0.800013,0.028229486,0.9016125
1747672433.0755775,-1.1668987,1.641407,0.5513863,-0.800013,0.028229486,0.9016125
1747672433.0764031,-1.1668987,1.641407,0.5513863,-0.800013,0.028229486,0.9016125
1747672433.0773578,-1.1668987,1.641407,0.5513863,-0.800013,0.028229486,0.9016125
1747672433.078209,-1.1668987,1.641407,0.5513863,-0.800013,0.028229486,0.9016125
1747672433.079393,-1.1668987,1.641407,0.5513863,-0.800013,0.028229486,0.9016125
1747672433.0801892,-1.1668987,1.641407,0.5513863,-0.800013,0.028229486,0.9016125
1747672433.080999,-1.1668987,1.641407,0.5513863,-0.800013,0.028229486,0.9016125
1747672433.0818138,-1.1668987,1.641407,0.5513863,0.10226531,-0.24341275,0.7066693
1747672433.0826733,-1.1668987,1.641407,0.5513863,0.10226531,-0.24341275,0.7066693
1747672433.083463,-1.1668987,1.641407,0.5513863,0.10226531,-0.24341275,0.7066693
1747672433.084255,-1.1668987,1.641407,0.5513863,0.10226531,-0.24341275,0.7066693
1747672433.0850487,-1.1668987,1.641407,0.5513863,0.10226531,-0.24341275,0.7066693
1747672433.0858772,-1.1668987,1.641407,0.5513863,0.10226531,-0.24341275,0.7066693
1747672433.086662,-1.1668987,1.641407,0.5513863,0.10226531,-0.24341275,0.7066693
1747672433.0873904,-1.1908163,1.786377,0.9638431,0.43249702,-0.34248227,0.6203829
1747672433.088155,-1.1908163,1.786377,0.9638431,0.43249702,-0.34248227,0.6203829
1747672433.0889473,-1.1908163,1.786377,0.9638431,0.43249702,-0.34248227,0.6203829
1747672433.0897386,-1.1908163,1.786377,0.9638431,0.43249702,-0.34248227,0.6203829
1747672433.0904875,-1.1908163,1.786377,0.9638431,0.43249702,-0.34248227,0.6203829
1747672433.0912263,-1.1908163,1.786377,0.9638431,0.43249702,-0.34248227,0.6203829
1747672433.0919673,-1.1908163,1.786377,0.9638431,0.43249702,-0.34248227,0.6203829
1747672433.0926707,-1.1908163,1.786377,0.9638431,0.43249702,-0.34248227,0.6203829
1747672433.0933714,-1.1908163,1.786377,0.9638431,0.43249702,-0.34248227,0.6203829
1747672433.094108,-1.1908163,1.786377,0.9638431,0.43249702,-0.34248227,0.6203829
1747672433.0948553,-1.1908163,1.786377,0.9638431,0.43249702,-0.34248227,0.6203829
1747672433.0955944,-1.1908163,1.786377,0.9638431,0.43249702,-0.34248227,0.6203829
1747672433.0963256,-1.1908163,1.786377,0.9638431,0.43249702,-0.34248227,0.6203829
1747672433.097805,-1.1908163,1.786377,0.9638431,0.43249702,-0.34248227,0.6203829
1747672433.0988016,-1.1908163,1.786377,0.9638431,1.2559458,-0.62477714,0.33702278
1747672433.0997126,-1.1908163,1.786377,0.9638431,1.2559458,-0.62477714,0.33702278
1747672433.1005075,-1.1908163,1.786377,0.9638431,1.2559458,-0.62477714,0.33702278
1747672433.1012957,-1.1908163,1.786377,0.9638431,1.2559458,-0.62477714,0.33702278
1747672433.1020994,-1.1908163,1.786377,0.9638431,1.2559458,-0.62477714,0.33702278
1747672433.102886,-1.1908163,1.786377,0.9638431,1.2559458,-0.62477714,0.33702278
1747672433.1038039,-1.1908163,1.786377,0.9638431,1.2559458,-0.62477714,0.33702278
1747672433.1049159,-1.1908163,1.786377,0.9638431,1.2559458,-0.62477714,0.33702278
1747672433.106573,-1.1908163,1.786377,0.9638431,1.2559458,-0.62477714,0.33702278
1747672433.1079497,-1.1908163,1.786377,0.9638431,1.2559458,-0.62477714,0.33702278
1747672433.1087322,-1.1908163,1.786377,0.9638431,1.2559458,-0.62477714,0.33702278
1747672433.1095324,-1.1908163,1.786377,0.9638431,1.2559458,-0.62477714,0.33702278
1747672433.1106613,-1.1908163,1.786377,0.9638431,1.2559458,-0.62477714,0.33702278
1747672433.1116526,-1.1908163,1.786377,0.9638431,1.2559458,-0.62477714,0.33702278
1747672433.1131058,-0.77396655,1.8659396,0.54455274,1.9771293,-0.88470143,-0.12956269
1747672433.114191,-0.77396655,1.8659396,0.54455274,1.9771293,-0.88470143,-0.12956269
1747672433.1150267,-0.77396655,1.8659396,0.54455274,1.9771293,-0.88470143,-0.12956269
1747672433.1159034,-0.77396655,1.8659396,0.54455274,1.9771293,-0.88470143,-0.12956269
1747672433.1167192,-0.77396655,1.8659396,0.54455274,2.1827252,-0.9198552,-0.6472808
1747672433.117536,-0.77396655,1.8659396,0.54455274,2.1827252,-0.9198552,-0.6472808
1747672433.1183336,-0.77396655,1.8659396,0.54455274,2.1827252,-0.9198552,-0.6472808
1747672433.119422,-0.77396655,1.8659396,0.54455274,2.1827252,-0.9198552,-0.6472808
1747672433.1209366,-0.77396655,1.8659396,0.54455274,2.1827252,-0.9198552,-0.6472808
1747672433.121758,-0.77396655,1.8659396,0.54455274,2.1827252,-0.9198552,-0.6472808
1747672433.1227136,-0.77396655,1.8659396,0.54455274,2.1827252,-0.9198552,-0.6472808
1747672433.123587,-0.77396655,1.8659396,0.54455274,2.1827252,-0.9198552,-0.6472808
1747672433.1245198,-0.77396655,1.8659396,0.54455274,2.1827252,-0.9198552,-0.6472808
1747672433.125359,-0.77396655,1.8659396,0.54455274,2.1827252,-0.9198552,-0.6472808
1747672433.1266067,-0.40690446,1.773686,-0.1871309,2.0037608,-0.8889625,-1.2065443
1747672433.1274104,-0.40690446,1.773686,-0.1871309,2.0037608,-0.8889625,-1.2065443
1747672433.1282685,-0.40690446,1.773686,-0.1871309,2.0037608,-0.8889625,-1.2065443
1747672433.129094,-0.40690446,1.773686,-0.1871309,2.0037608,-0.8889625,-1.2065443
1747672433.1299407,-0.40690446,1.773686,-0.1871309,2.0037608,-0.8889625,-1.2065443
1747672433.1307554,-0.40690446,1.773686,-0.1871309,2.0037608,-0.8889625,-1.2065443
1747672433.1315062,-0.40690446,1.773686,-0.1871309,2.0037608,-0.8889625,-1.2065443
1747672433.132257,-0.40690446,1.773686,-0.1871309,2.0037608,-0.8889625,-1.2065443
1747672433.1330004,-0.40690446,1.773686,-0.1871309,2.0037608,-0.8889625,-1.2065443
1747672433.133755,-0.40690446,1.773686,-0.1871309,2.0037608,-0.8889625,-1.2065443
1747672433.1344895,-0.36687905,1.6604435,-0.36041155,2.0037608,-0.8889625,-1.2065443
1747672433.1352146,-0.36687905,1.6604435,-0.36041155,1.4881734,-0.78243613,-1.7317193
1747672433.1359582,-0.36687905,1.6604435,-0.36041155,1.4881734,-0.78243613,-1.7317193
1747672433.1367095,-0.36687905,1.6604435,-0.36041155,1.4881734,-0.78243613,-1.7317193
1747672433.137455,-0.36687905,1.6604435,-0.36041155,1.4881734,-0.78243613,-1.7317193
1747672433.1382322,-0.36687905,1.6604435,-0.36041155,1.4881734,-0.78243613,-1.7317193
1747672433.1389742,-0.36687905,1.6604435,-0.36041155,1.4881734,-0.78243613,-1.7317193
1747672433.1397374,-0.36687905,1.6604435,-0.36041155,1.4881734,-0.78243613,-1.7317193
1747672433.1404746,-0.36687905,1.6604435,-0.36041155,1.4881734,-0.78243613,-1.7317193
1747672433.1412203,-0.36687905,1.6604435,-0.36041155,1.4881734,-0.78243613,-1.7317193
1747672433.141955,-0.36687905,1.6604435,-0.36041155,1.4881734,-0.78243613,-1.7317193
1747672433.142709,-0.36687905,1.6604435,-0.36041155,1.4881734,-0.78243613,-1.7317193
1747672433.14345,-0.36687905,1.6604435,-0.36041155,1.4881734,-0.78243613,-1.7317193
1747672433.1449645,-0.36687905,1.6604435,-0.36041155,1.4881734,-0.78243613,-1.7317193
1747672433.1468184,-0.29415,1.5276763,-0.20030999,0.87138563,-0.50227183,-2.1652815
1747672433.1476257,-0.29415,1.5276763,-0.20030999,0.87138563,-0.50227183,-2.1652815
1747672433.1486986,-0.29415,1.5276763,-0.20030999,0.87138563,-0.50227183,-2.1652815
1747672433.1496382,-0.29415,1.5276763,-0.20030999,0.87138563,-0.50227183,-2.1652815
1747672433.150625,-0.29415,1.5276763,-0.20030999,0.87138563,-0.50227183,-2.1652815
1747672433.1517236,-0.29415,1.5276763,-0.20030999,0.87138563,-0.50227183,-2.1652815
1747672433.1528027,-0.29415,1.5276763,-0.20030999,0.87138563,-0.50227183,-2.1652815
1747672433.153627,-0.29415,1.5276763,-0.20030999,0.87138563,-0.50227183,-2.1652815
1747672433.154436,-0.29415,1.5276763,-0.20030999,0.87138563,-0.50227183,-2.1652815
1747672433.1552536,-0.16675211,1.3934449,0.035449315,0.37710333,-0.16351797,-2.5572984
1747672433.1560562,-0.16675211,1.3934449,0.035449315,0.37710333,-0.16351797,-2.5572984
1747672433.1568816,-0.16675211,1.3934449,0.035449315,0.37710333,-0.16351797,-2.5572984
1747672433.160425,-0.16675211,1.3934449,0.035449315,0.37710333,-0.16351797,-2.5572984
1747672433.1613023,-0.16675211,1.3934449,0.035449315,0.37710333,-0.16351797,-2.5572984
1747672433.1622462,-0.16675211,1.3934449,0.035449315,0.37710333,-0.16351797,-2.5572984
1747672433.1630778,-0.16675211,1.3934449,0.035449315,0.37710333,-0.16351797,-2.5572984
1747672433.1639194,-0.16675211,1.3934449,0.035449315,0.37710333,-0.16351797,-2.5572984
1747672433.1648014,-0.07840339,1.2392007,0.33417538,0.37710333,-0.16351797,-2.5572984
1747672433.165953,-0.07840339,1.2392007,0.33417538,0.03302317,0.12303795,-2.886465
1747672433.1673877,-0.07840339,1.2392007,0.33417538,0.03302317,0.12303795,-2.886465
1747672433.168472,-0.07840339,1.2392007,0.33417538,0.03302317,0.12303795,-2.886465
1747672433.1693046,-0.07840339,1.2392007,0.33417538,0.03302317,0.12303795,-2.886465
1747672433.1701176,-0.07840339,1.2392007,0.33417538,0.03302317,0.12303795,-2.886465
1747672433.1719005,-0.07840339,1.2392007,0.33417538,0.03302317,0.12303795,-2.886465
1747672433.1732323,-0.07840339,1.2392007,0.33417538,0.03302317,0.12303795,-2.886465
1747672433.1739337,-0.07840339,1.2392007,0.33417538,0.03302317,0.12303795,-2.886465
1747672433.1749425,-0.07840339,1.2392007,0.33417538,0.03302317,0.12303795,-2.886465
1747672433.1759405,-0.07840339,1.2392007,0.33417538,0.03302317,0.12303795,-2.886465
1747672433.176934,-0.07840339,1.2392007,0.33417538,0.03302317,0.12303795,-2.886465
1747672433.1779606,-0.07840339,1.2392007,0.33417538,0.03302317,0.12303795,-2.886465
1747672433.178778,-0.07840339,1.2392007,0.33417538,0.03302317,0.12303795,-2.886465
1747672433.179532,-0.07840339,1.2392007,0.33417538,0.03302317,0.12303795,-2.886465
1747672433.1802976,-0.07840339,1.2392007,0.33417538,0.03302317,0.12303795,-2.886465
1747672433.1810799,-0.07840339,1.2392007,0.33417538,0.03302317,0.12303795,-2.886465
1747672433.1817868,-0.07840339,1.2392007,0.33417538,0.03302317,0.12303795,-2.886465
1747672433.1825316,-0.07840339,1.2392007,0.33417538,0.03302317,0.12303795,-2.886465
1747672433.1832404,-0.07840339,1.2392007,0.33417538,0.03302317,0.12303795,-2.886465
1747672433.183946,-0.07840339,1.2392007,0.33417538,0.03302317,0.12303795,-2.886465
1747672433.184677,-0.07840339,1.2392007,0.33417538,0.03302317,0.12303795,-2.886465
1747672433.1854043,-0.07840339,1.2392007,0.33417538,0.03302317,0.12303795,-2.886465
1747672433.186147,-0.07840339,1.2392007,0.33417538,0.03302317,0.12303795,-2.886465
1747672433.1868632,-0.07840339,1.2392007,0.33417538,0.03302317,0.12303795,-2.886465
1747672433.18756,-0.07840339,1.2392007,0.33417538,0.03302317,0.12303795,-2.886465
1747672433.188264,-0.07840339,1.2392007,0.33417538,0.03302317,0.12303795,-2.886465
1747672433.18902,-0.07840339,1.2392007,0.33417538,0.03302317,0.12303795,-2.886465
1747672433.189777,-0.07840339,1.2392007,0.33417538,0.03302317,0.12303795,-2.886465
1747672433.191218,-0.07840339,1.2392007,0.33417538,0.03302317,0.12303795,-2.886465
1747672433.1929052,-0.07840339,1.2392007,0.33417538,0.03302317,0.12303795,-2.886465
1747672433.1940477,-0.07840339,1.2392007,0.33417538,0.03302317,0.12303795,-2.886465
1747672433.1952493,-0.07840339,1.2392007,0.33417538,0.03302317,0.12303795,-2.886465
1747672433.1964574,-0.07840339,1.2392007,0.33417538,0.03302317,0.12303795,-2.886465
1747672433.1990623,0.26669356,1.0991118,1.1542078,0.23648852,0.51505494,-3.2955263
1747672433.199887,0.26669356,1.0991118,1.1542078,0.23648852,0.51505494,-3.2955263
1747672433.2006826,0.26669356,1.0991118,1.1542078,0.23648852,0.51505494,-3.2955263
1747672433.20161,0.26669356,1.0991118,1.1542078,0.23648852,0.51505494,-3.2955263
1747672433.2026274,0.26669356,1.0991118,1.1542078,0.23648852,0.51505494,-3.2955263
1747672433.2039726,0.26669356,1.0991118,1.1542078,0.23648852,0.51505494,-3.2955263
1747672433.2050493,0.26669356,1.0991118,1.1542078,0.23648852,0.51505494,-3.2955263
1747672433.2063284,0.26669356,1.0991118,1.1542078,0.23648852,0.51505494,-3.2955263
1747672433.2075691,0.26669356,1.0991118,1.1542078,0.23648852,0.51505494,-3.2955263
1747672433.208732,0.26669356,1.0991118,1.1542078,0.23648852,0.51505494,-3.2955263
1747672433.210116,0.26669356,1.0991118,1.1542078,0.23648852,0.51505494,-3.2955263
1747672433.211162,0.26669356,1.0991118,1.1542078,0.23648852,0.51505494,-3.2955263
1747672433.2121909,0.26669356,1.0991118,1.1542078,0.23648852,0.51505494,-3.2955263
1747672433.2132893,0.26669356,1.0991118,1.1542078,0.23648852,0.51505494,-3.2955263
1747672433.2142413,0.26669356,1.0991118,1.1542078,0.23648852,0.51505494,-3.2955263
1747672433.2152398,0.26669356,1.0991118,1.1542078,0.23648852,0.51505494,-3.2955263
1747672433.2161949,0.26669356,1.0991118,1.1542078,0.23648852,0.51505494,-3.2955263
1747672433.2170613,0.26669356,1.0991118,1.1542078,0.23648852,0.51505494,-3.2955263
1747672433.2189114,0.26669356,1.0991118,1.1542078,0.23648852,0.51505494,-3.2955263
1747672433.2197845,1.1189414,0.993191,1.1864233,1.7076176,0.7440867,-4.2627854
1747672433.2211413,1.1189414,0.993191,1.1864233,1.7076176,0.7440867,-4.2627854
1747672433.2219741,1.1189414,0.993191,1.1864233,1.7076176,0.7440867,-4.2627854
1747672433.2230794,1.1189414,0.993191,1.1864233,1.7076176,0.7440867,-4.2627854
1747672433.224027,1.1189414,0.993191,1.1864233,1.7076176,0.7440867,-4.2627854
1747672433.2248645,1.1189414,0.993191,1.1864233,1.7076176,0.7440867,-4.2627854
1747672433.2256382,1.347379,0.95023686,0.6621883,1.7150744,0.8250467,-4.7070007
1747672433.226453,1.347379,0.95023686,0.6621883,1.7150744,0.8250467,-4.7070007
1747672433.2272186,1.347379,0.95023686,0.6621883,1.7150744,0.8250467,-4.7070007
1747672433.2279954,1.347379,0.95023686,0.6621883,1.7150744,0.8250467,-4.7070007
1747672433.2291722,1.347379,0.95023686,0.6621883,1.7150744,0.8250467,-4.7070007
1747672433.2299411,1.347379,0.95023686,0.6621883,1.7150744,0.8250467,-4.7070007
1747672433.2306519,1.347379,0.95023686,0.6621883,1.7150744,0.8250467,-4.7070007
1747672433.2313528,1.347379,0.95023686,0.6621883,1.7150744,0.8250467,-4.7070007
1747672433.2320907,1.347379,0.95023686,0.6621883,1.7150744,0.8250467,-4.7070007
1747672433.2328494,1.347379,0.95023686,0.6621883,1.7150744,0.8250467,-4.7070007
1747672433.2335925,1.3327355,0.8540783,0.19945578,1.1632679,1.2905669,-5.1554766
1747672433.2343323,1.3327355,0.8540783,0.19945578,1.1632679,1.2905669,-5.1554766
1747672433.2350338,1.3327355,0.8540783,0.19945578,1.1632679,1.2905669,-5.1554766
1747672433.2357686,1.3327355,0.8540783,0.19945578,1.1632679,1.2905669,-5.1554766
1747672433.2365215,1.3327355,0.8540783,0.19945578,1.1632679,1.2905669,-5.1554766
1747672433.2372549,1.3327355,0.8540783,0.19945578,1.1632679,1.2905669,-5.1554766
1747672433.2390242,1.3327355,0.8540783,0.19945578,1.1632679,1.2905669,-5.1554766
1747672433.2406309,1.3327355,0.8540783,0.19945578,1.1632679,1.2905669,-5.1554766
1747672433.2414262,1.3327355,0.8540783,0.19945578,1.1632679,1.2905669,-5.1554766
1747672433.2422526,1.3327355,0.8540783,0.19945578,1.1632679,1.2905669,-5.1554766
1747672433.2430446,1.3327355,0.8540783,0.19945578,1.1632679,1.2905669,-5.1554766
1747672433.2438853,1.3327355,0.8540783,0.19945578,1.1632679,1.2905669,-5.1554766
1747672433.2446718,1.3327355,0.8540783,0.19945578,1.1632679,1.2905669,-5.1554766
1747672433.245473,1.3327355,0.8540783,0.19945578,1.1632679,1.2905669,-5.1554766
1747672433.24633,1.3327355,0.8540783,0.19945578,1.1632679,1.2905669,-5.1554766
1747672433.247126,1.3327355,0.8540783,0.19945578,1.1632679,1.2905669,-5.1554766
1747672433.2479272,1.3327355,0.8540783,0.19945578,1.1632679,1.2905669,-5.1554766
1747672433.248781,1.3327355,0.8540783,0.19945578,1.1632679,1.2905669,-5.1554766
1747672433.2495828,1.3327355,0.8540783,0.19945578,1.1632679,1.2905669,-5.1554766
1747672433.250386,1.3327355,0.8540783,0.19945578,1.1632679,1.2905669,-5.1554766
1747672433.2534974,1.3327355,0.8540783,0.19945578,1.1632679,1.2905669,-5.1554766
1747672433.2542865,1.3327355,0.8540783,0.19945578,1.1632679,1.2905669,-5.1554766
1747672433.2550693,1.3327355,0.8540783,0.19945578,1.1632679,1.2905669,-5.1554766
1747672433.2558663,1.3327355,0.8540783,0.19945578,1.1632679,1.2905669,-5.1554766
1747672433.2566679,0.24570462,0.94242704,0.8828161,-0.6572677,2.5688832,-5.440967
1747672433.2574735,0.24570462,0.94242704,0.8828161,-0.6572677,2.5688832,-5.440967
1747672433.2587526,0.24570462,0.94242704,0.8828161,-0.6572677,2.5688832,-5.440967
1747672433.26016,0.24570462,0.94242704,0.8828161,-0.6572677,2.5688832,-5.440967
1747672433.2614217,0.24570462,0.94242704,0.8828161,-0.6572677,2.5688832,-5.440967
1747672433.262284,0.24570462,0.94242704,0.8828161,-0.6572677,2.5688832,-5.440967
1747672433.2630916,0.24570462,0.94242704,0.8828161,-0.6572677,2.5688832,-5.440967
1747672433.2639365,0.24570462,0.94242704,0.8828161,-0.6572677,2.5688832,-5.440967
1747672433.2655234,0.24570462,0.94242704,0.8828161,-0.6572677,2.5688832,-5.440967
1747672433.2663589,0.24570462,0.94242704,0.8828161,-0.6572677,2.5688832,-5.440967
1747672433.2671928,0.24570462,0.94242704,0.8828161,-0.6572677,2.5688832,-5.440967
1747672433.2684708,0.24570462,0.94242704,0.8828161,-0.6572677,2.5688832,-5.440967
1747672433.269305,0.24570462,0.94242704,0.8828161,-0.6572677,2.5688832,-5.440967
1747672433.2703452,0.0763289,1.155245,1.8258532,-0.82770985,3.0354688,-4.8454847
1747672433.2711728,0.0763289,1.155245,1.8258532,-0.82770985,3.0354688,-4.8454847
1747672433.2723913,0.0763289,1.155245,1.8258532,-0.82770985,3.0354688,-4.8454847
1747672433.2731705,0.0763289,1.155245,1.8258532,-0.82770985,3.0354688,-4.8454847
1747672433.2739117,0.0763289,1.155245,1.8258532,-0.82770985,3.0354688,-4.8454847
1747672433.2747183,0.0763289,1.155245,1.8258532,-0.82770985,3.0354688,-4.8454847
1747672433.2754686,0.0763289,1.155245,1.8258532,-0.82770985,3.0354688,-4.8454847
1747672433.2762015,0.0763289,1.155245,1.8258532,-0.33875385,3.088732,-4.0231013
1747672433.2769208,0.08267439,1.5374386,2.8850617,-0.33875385,3.088732,-4.0231013
1747672433.2776594,0.08267439,1.5374386,2.8850617,-0.33875385,3.088732,-4.0231013
1747672433.278381,0.08267439,1.5374386,2.8850617,-0.33875385,3.088732,-4.0231013
1747672433.2790864,0.08267439,1.5374386,2.8850617,-0.33875385,3.088732,-4.0231013
1747672433.2797878,0.08267439,1.5374386,2.8850617,-0.33875385,3.088732,-4.0231013
1747672433.280525,0.08267439,1.5374386,2.8850617,-0.33875385,3.088732,-4.0231013
1747672433.2812638,0.08267439,1.5374386,2.8850617,-0.33875385,3.088732,-4.0231013
1747672433.28197,0.08267439,1.5374386,2.8850617,-0.33875385,3.088732,-4.0231013
1747672433.2826736,0.08267439,1.5374386,2.8850617,-0.33875385,3.088732,-4.0231013
1747672433.2834327,0.08267439,1.5374386,2.8850617,-0.33875385,3.088732,-4.0231013
1747672433.284196,0.08267439,1.5374386,2.8850617,-0.33875385,3.088732,-4.0231013
1747672433.285689,0.08267439,1.5374386,2.8850617,-0.33875385,3.088732,-4.0231013
1747672433.2868795,1.8701496,2.4326408,4.7047524,0.9992173,2.8277423,-2.7969828
1747672433.28801,1.8701496,2.4326408,4.7047524,0.9992173,2.8277423,-2.7969828
1747672433.2896252,1.8701496,2.4326408,4.7047524,0.9992173,2.8277423,-2.7969828
1747672433.2907262,1.8701496,2.4326408,4.7047524,0.9992173,2.8277423,-2.7969828
1747672433.2915084,1.8701496,2.4326408,4.7047524,0.9992173,2.8277423,-2.7969828
1747672433.2923079,1.8701496,2.4326408,4.7047524,0.9992173,2.8277423,-2.7969828
1747672433.2931054,1.8701496,2.4326408,4.7047524,0.9992173,2.8277423,-2.7969828
1747672433.2942994,1.8701496,2.4326408,4.7047524,0.9992173,2.8277423,-2.7969828
1747672433.2951968,1.8701496,2.4326408,4.7047524,0.9992173,2.8277423,-2.7969828
1747672433.2960532,1.8701496,2.4326408,4.7047524,0.9992173,2.8277423,-2.7969828
1747672433.2970793,1.8701496,2.4326408,4.7047524,0.9992173,2.8277423,-2.7969828
1747672433.3005106,1.8701496,2.4326408,4.7047524,0.9992173,2.8277423,-2.7969828
1747672433.3013997,1.8701496,2.4326408,4.7047524,0.9992173,2.8277423,-2.7969828
1747672433.302236,1.8701496,2.4326408,4.7047524,0.9992173,2.8277423,-2.7969828
1747672433.3032243,4.4610615,2.412628,5.5784774,3.2330751,2.6413212,-2.6691513
1747672433.304151,4.4610615,2.412628,5.5784774,3.2330751,2.6413212,-2.6691513
1747672433.3049448,4.4610615,2.412628,5.5784774,3.2330751,2.6413212,-2.6691513
1747672433.3058927,4.4610615,2.412628,5.5784774,3.2330751,2.6413212,-2.6691513
1747672433.3067036,4.4610615,2.412628,5.5784774,3.2330751,2.6413212,-2.6691513
1747672433.3074849,6.233405,2.2754679,4.858021,5.3305793,2.3281336,-3.5234926
1747672433.308295,6.233405,2.2754679,4.858021,5.3305793,2.3281336,-3.5234926
1747672433.3090835,6.233405,2.2754679,4.858021,5.3305793,2.3281336,-3.5234926
1747672433.3098998,6.233405,2.2754679,4.858021,5.3305793,2.3281336,-3.5234926
1747672433.31068,6.233405,2.2754679,4.858021,5.3305793,2.3281336,-3.5234926
1747672433.3115096,6.233405,2.2754679,4.858021,5.3305793,2.3281336,-3.5234926
1747672433.3123062,6.233405,2.2754679,4.858021,5.3305793,2.3281336,-3.5234926
1747672433.3131633,6.233405,2.2754679,4.858021,5.3305793,2.3281336,-3.5234926
1747672433.3141668,6.233405,2.2754679,4.858021,5.3305793,2.3281336,-3.5234926
1747672433.314968,6.233405,2.2754679,4.858021,5.3305793,2.3281336,-3.5234926
1747672433.3157718,6.233405,2.2754679,4.858021,5.3305793,2.3281336,-3.5234926
1747672433.3165607,6.233405,2.2754679,4.858021,5.3305793,2.3281336,-3.5234926
1747672433.3173738,6.233405,2.2754679,4.858021,5.3305793,2.3281336,-3.5234926
1747672433.3181865,6.233405,2.2754679,4.858021,5.3305793,2.3281336,-3.5234926
1747672433.3189373,6.466236,2.3682094,2.8748114,6.3266006,1.8018935,-4.964794
