timestamp,acc_x,acc_y,acc_z,gyro_x,gyro_y,gyro_z
1747672270.2767081,-0.14185826,-0.041123647,0.9531046,-0.9342362,-0.31158963,-0.914662
1747672270.2778928,-0.14185826,-0.041123647,0.9531046,-0.9342362,-0.31158963,-0.914662
1747672270.2786427,-0.14185826,-0.041123647,0.9531046,-0.9342362,-0.31158963,-0.914662
1747672270.2793658,-0.14185826,-0.041123647,0.9531046,-0.9342362,-0.31158963,-0.914662
1747672270.2800856,-0.14185826,-0.041123647,0.9531046,-0.9342362,-0.31158963,-0.914662
1747672270.280804,-0.14185826,-0.041123647,0.9531046,-0.9342362,-0.31158963,-0.914662
1747672270.2816143,-0.14185826,-0.041123647,0.9531046,-0.9342362,-0.31158963,-0.914662
1747672270.2833974,-0.14185826,-0.041123647,0.9531046,-0.9342362,-0.31158963,-0.914662
1747672270.2844322,-0.14185826,-0.041123647,0.9531046,-0.9342362,-0.31158963,-0.914662
1747672270.349606,-0.09060626,-0.025015868,1.0092378,-0.51984864,-0.39894122,-0.5929524
1747672270.3506525,-0.09060626,-0.025015868,1.0092378,-0.51984864,-0.39894122,-0.5929524
1747672270.3513796,-0.09060626,-0.025015868,1.0092378,-0.51984864,-0.39894122,-0.5929524
1747672270.3520942,-0.09060626,-0.025015868,1.0092378,-0.51984864,-0.39894122,-0.5929524
1747672270.3528132,-0.09060626,-0.025015868,1.0092378,-0.51984864,-0.39894122,-0.5929524
1747672270.3535318,-0.09060626,-0.025015868,1.0092378,-0.51984864,-0.39894122,-0.5929524
1747672270.3542628,-0.09060626,-0.025015868,1.0092378,-0.51984864,-0.39894122,-0.5929524
1747672270.355797,-0.09060626,-0.025015868,1.0092378,-0.6125266,-0.39468017,-0.5599292
1747672270.3565872,-0.06083127,-0.00793186,1.1156467,-0.6125266,-0.39468017,-0.5599292
1747672270.3595233,-0.06083127,-0.00793186,1.1156467,-0.6125266,-0.39468017,-0.5599292
1747672270.4401703,0.16907066,0.084321775,1.760934,0.19387798,0.02929475,-0.38309544
1747672270.4413095,0.16907066,0.084321775,1.760934,0.38775596,0.24021696,-0.44381547
1747672270.4421244,0.17248747,0.09457218,1.7667913,0.38775596,0.24021696,-0.44381547
1747672270.442924,0.17248747,0.09457218,1.7667913,0.38775596,0.24021696,-0.44381547
1747672270.4437046,0.17248747,0.09457218,1.7667913,0.38775596,0.24021696,-0.44381547
1747672270.444483,0.17248747,0.09457218,1.7667913,0.38775596,0.24021696,-0.44381547
1747672270.445258,0.17248747,0.09457218,1.7667913,0.38775596,0.24021696,-0.44381547
1747672270.445986,0.17248747,0.09457218,1.7667913,0.38775596,0.24021696,-0.44381547
1747672270.4467092,0.17248747,0.09457218,1.7667913,0.38775596,0.24021696,-0.44381547
1747672270.4474292,0.17248747,0.09457218,1.7667913,0.38775596,0.24021696,-0.44381547
1747672270.44812,0.17248747,0.09457218,1.7667913,0.38775596,0.24021696,-0.44381547
1747672270.4488115,0.17248747,0.09457218,1.7667913,0.38775596,0.24021696,-0.44381547
1747672270.4495249,0.10268708,0.12971643,1.7418976,0.38775596,0.24021696,-0.44381547
1747672270.4502869,0.10268708,0.12971643,1.7418976,0.63383186,0.33502543,-0.506666
1747672270.4511132,0.10268708,0.12971643,1.7418976,0.63383186,0.33502543,-0.506666
1747672270.4518359,0.10268708,0.12971643,1.7418976,0.63383186,0.33502543,-0.506666
1747672270.4525428,0.10268708,0.12971643,1.7418976,0.63383186,0.33502543,-0.506666
1747672270.4532526,0.10268708,0.12971643,1.7418976,0.63383186,0.33502543,-0.506666
1747672270.4539747,0.10268708,0.12971643,1.7418976,0.63383186,0.33502543,-0.506666
1747672270.4548068,0.10268708,0.12971643,1.7418976,0.63383186,0.33502543,-0.506666
1747672270.4558215,0.031910483,0.16388445,1.7013841,0.81918776,0.32437277,-0.5087966
1747672270.456571,0.031910483,0.16388445,1.7013841,0.81918776,0.32437277,-0.5087966
1747672270.4925494,0.06168547,0.20781474,1.7853397,1.1792469,-0.27750117,-0.46405548
1747672270.4933167,0.06168547,0.20781474,1.7853397,1.1792469,-0.27750117,-0.46405548
1747672270.4940927,0.06168547,0.20781474,1.7853397,1.1792469,-0.27750117,-0.46405548
1747672270.4945996,0.06168547,0.20781474,1.7853397,1.1792469,-0.27750117,-0.46405548
1747672270.4953027,0.06168547,0.20781474,1.7853397,1.1792469,-0.27750117,-0.46405548
1747672270.4960294,0.06168547,0.20781474,1.7853397,1.1792469,-0.27750117,-0.46405548
1747672270.4967706,0.04118466,0.17071804,2.0518503,1.438106,-0.51825076,-0.46192494
1747672270.4974754,0.04118466,0.17071804,2.0518503,1.438106,-0.51825076,-0.46192494
1747672270.4982324,0.04118466,0.17071804,2.0518503,1.438106,-0.51825076,-0.46192494
1747672270.49893,0.04118466,0.17071804,2.0518503,1.438106,-0.51825076,-0.46192494
1747672270.4996266,0.04118466,0.17071804,2.0518503,1.438106,-0.51825076,-0.46192494
1747672270.5003898,0.04118466,0.17071804,2.0518503,1.438106,-0.51825076,-0.46192494
1747672270.5010898,0.04118466,0.17071804,2.0518503,1.438106,-0.51825076,-0.46192494
1747672270.5020962,0.04118466,0.17071804,2.0518503,1.438106,-0.51825076,-0.46192494
1747672270.5029228,0.04118466,0.17071804,2.0518503,1.438106,-0.51825076,-0.46192494
1747672270.5375288,0.010921562,0.016473865,2.2568583,2.6216137,-0.16032217,-0.3788344
1747672270.5388057,0.010921562,0.016473865,2.2568583,2.6216137,-0.16032217,-0.3788344
1747672270.5395634,-0.004209988,0.014521406,2.131901,2.998717,0.26791382,-0.28083012
1747672270.5403168,-0.004209988,0.014521406,2.131901,2.998717,0.26791382,-0.28083012
1747672270.5410419,-0.004209988,0.014521406,2.131901,2.998717,0.26791382,-0.28083012
1747672270.541799,-0.004209988,0.014521406,2.131901,2.998717,0.26791382,-0.28083012
1747672270.542489,-0.004209988,0.014521406,2.131901,2.998717,0.26791382,-0.28083012
1747672270.543176,-0.004209988,0.014521406,2.131901,2.998717,0.26791382,-0.28083012
1747672270.5438783,-0.004209988,0.014521406,2.131901,2.998717,0.26791382,-0.28083012
1747672270.5446506,-0.004209988,0.014521406,2.131901,2.998717,0.26791382,-0.28083012
1747672270.545376,-0.004209988,0.014521406,2.131901,2.998717,0.26791382,-0.28083012
1747672270.54616,-0.004209988,0.014521406,2.131901,2.998717,0.26791382,-0.28083012
1747672270.546949,-0.004209988,0.014521406,2.131901,2.998717,0.26791382,-0.28083012
1747672270.5477076,-0.004209988,0.014521406,2.131901,2.998717,0.26791382,-0.28083012
1747672270.549043,-0.004209988,0.014521406,2.131901,2.998717,0.26791382,-0.28083012
1747672270.5499306,-0.004209988,0.014521406,2.131901,3.281012,0.6578003,-0.19134799
1747672270.5865889,0.09194857,-0.006467517,1.7560529,4.22377,0.6482129,-0.24248064
1747672270.5876987,0.09194857,-0.006467517,1.7560529,4.22377,0.6482129,-0.24248064
1747672270.5884364,0.09194857,-0.006467517,1.7560529,4.22377,0.6482129,-0.24248064
1747672270.5891645,0.09194857,-0.006467517,1.7560529,4.22377,0.6482129,-0.24248064
1747672270.589913,0.09194857,-0.006467517,1.7560529,4.22377,0.6482129,-0.24248064
1747672270.590617,0.09194857,-0.006467517,1.7560529,4.22377,0.6482129,-0.24248064
1747672270.5913222,0.09194857,-0.006467517,1.7560529,4.22377,0.6482129,-0.24248064
1747672270.5920548,0.09194857,-0.006467517,1.7560529,4.22377,0.6482129,-0.24248064
1747672270.5927618,0.09194857,-0.006467517,1.7560529,4.22377,0.6482129,-0.24248064
1747672270.5934737,0.09194857,-0.006467517,1.7560529,4.22377,0.6482129,-0.24248064
1747672270.5942185,0.09194857,-0.006467517,1.7560529,4.22377,0.6482129,-0.24248064
1747672270.5947368,0.09194857,-0.006467517,1.7560529,4.22377,0.6482129,-0.24248064
1747672270.5954506,0.051923178,-0.02843267,1.6764902,4.389951,0.43835598,-0.2467417
1747672270.59643,0.051923178,-0.02843267,1.6764902,4.389951,0.43835598,-0.2467417
1747672270.5971823,0.051923178,-0.02843267,1.6764902,4.389951,0.43835598,-0.2467417
1747672270.6330209,0.19298826,-0.07968469,1.5139481,4.5976777,0.87937516,-0.23821959
1747672270.6349466,0.19298826,-0.07968469,1.5139481,4.5976777,0.87937516,-0.23821959
1747672270.6357646,0.19298826,-0.07968469,1.5139481,4.5976777,0.87937516,-0.23821959
1747672270.6365242,0.19298826,-0.07968469,1.5139481,4.5976777,0.87937516,-0.23821959
1747672270.6372335,0.19298826,-0.07968469,1.5139481,4.5976777,0.87937516,-0.23821959
1747672270.637977,0.19298826,-0.07968469,1.5139481,4.5976777,0.87937516,-0.23821959
1747672270.6387591,0.27889642,-0.08603018,1.4866138,4.560394,1.3140028,-0.28935224
1747672270.6395295,0.27889642,-0.08603018,1.4866138,4.560394,1.3140028,-0.28935224
1747672270.6405084,0.27889642,-0.08603018,1.4866138,4.560394,1.3140028,-0.28935224
1747672270.6412556,0.27889642,-0.08603018,1.4866138,4.560394,1.3140028,-0.28935224
1747672270.6420538,0.27889642,-0.08603018,1.4866138,4.560394,1.3140028,-0.28935224
1747672270.6428106,0.27889642,-0.08603018,1.4866138,4.560394,1.3140028,-0.28935224
1747672270.6674933,0.31696934,-0.095792465,1.4461002,4.5444145,1.900963,-0.41718388
1747672270.6683378,0.16272517,-0.15631868,1.1346831,4.603004,2.5774055,-0.5215797
1747672270.6691177,0.16272517,-0.15631868,1.1346831,4.6456146,2.8714182,-0.51518816
1747672270.6698577,0.16272517,-0.15631868,1.1346831,4.6456146,2.8714182,-0.51518816
1747672270.6706152,0.16272517,-0.15631868,1.1346831,4.6456146,2.8714182,-0.51518816
1747672270.6713636,0.16272517,-0.15631868,1.1346831,4.6456146,2.8714182,-0.51518816
1747672270.672077,0.16272517,-0.15631868,1.1346831,4.6456146,2.8714182,-0.51518816
1747672270.6727734,0.16272517,-0.15631868,1.1346831,4.6456146,2.8714182,-0.51518816
1747672270.6734982,0.16272517,-0.15631868,1.1346831,4.6456146,2.8714182,-0.51518816
1747672270.674287,0.16272517,-0.15631868,1.1346831,4.6456146,2.8714182,-0.51518816
1747672270.698712,0.11488995,-0.1304486,0.92918694,4.6062,2.786197,-0.41611862
1747672270.6996038,0.02263631,-0.09872116,0.76371616,4.6062,2.786197,-0.41611862
1747672270.7003665,0.0070166457,-0.08847075,0.6846416,4.5848947,2.599776,-0.308527
1747672270.7011256,0.0070166457,-0.08847075,0.6846416,4.5848947,2.599776,-0.308527
1747672270.7018723,0.0070166457,-0.08847075,0.6846416,4.5848947,2.599776,-0.308527
1747672270.7026293,0.0070166457,-0.08847075,0.6846416,4.5848947,2.599776,-0.308527
1747672270.703336,0.0070166457,-0.08847075,0.6846416,4.5848947,2.599776,-0.308527
1747672270.70403,0.0070166457,-0.08847075,0.6846416,4.5848947,2.599776,-0.308527
1747672270.7047641,0.0070166457,-0.08847075,0.6846416,4.5848947,2.599776,-0.308527
1747672270.7055607,0.0070166457,-0.08847075,0.6846416,4.5848947,2.599776,-0.308527
1747672270.7301989,-0.015924735,-0.08749452,0.57188714,4.578503,2.4240074,-0.20519641
1747672270.7310703,-0.008603018,-0.11678139,0.4532753,4.5486755,2.3973758,0.055793185
1747672270.7318907,-0.008603018,-0.11678139,0.4532753,4.5486755,2.3973758,0.055793185
1747672270.7326212,-0.008603018,-0.11678139,0.4532753,4.5486755,2.3973758,0.055793185
1747672270.7333786,-0.008603018,-0.11678139,0.4532753,4.5486755,2.3973758,0.055793185
1747672270.7340958,-0.008603018,-0.11678139,0.4532753,4.5486755,2.3973758,0.055793185
1747672270.7347934,-0.008603018,-0.11678139,0.4532753,4.5486755,2.3973758,0.055793185
1747672270.735496,-0.008603018,-0.11678139,0.4532753,4.5486755,2.3973758,0.055793185
1747672270.7362454,-0.008603018,-0.11678139,0.4532753,4.5486755,2.3973758,0.055793185
1747672270.7370265,-0.008603018,-0.11678139,0.4532753,4.5486755,2.3973758,0.055793185
1747672270.7377777,-0.008603018,-0.11678139,0.4532753,4.5486755,2.3973758,0.055793185
1747672270.7626116,0.1637014,0.0018304293,0.16821645,4.451737,2.1896493,0.23262694
1747672270.7633872,0.1637014,0.0018304293,0.16821645,4.451737,2.1896493,0.23262694
1747672270.7641594,0.1637014,0.0018304293,0.16821645,4.451737,2.1896493,0.23262694
1747672270.7649267,0.1637014,0.0018304293,0.16821645,4.451737,2.1896493,0.23262694
1747672270.7656476,0.1637014,0.0018304293,0.16821645,4.451737,2.1896493,0.23262694
1747672270.76634,0.1637014,0.0018304293,0.16821645,4.451737,2.1896493,0.23262694
1747672270.7671087,0.1637014,0.0018304293,0.16821645,4.451737,2.1896493,0.23262694
1747672270.767898,0.1637014,0.0018304293,0.16821645,4.451737,2.1896493,0.23262694
1747672270.768666,0.1637014,0.0018304293,0.16821645,4.451737,2.1896493,0.23262694
1747672270.7942445,0.1466174,0.15509838,-0.08853176,4.1864862,1.5227944,0.115447946
1747672270.7950778,0.1466174,0.15509838,-0.08853176,4.1864862,1.5227944,0.115447946
1747672270.7958097,0.1466174,0.15509838,-0.08853176,4.1864862,1.5227944,0.115447946
1747672270.7965806,0.113425605,0.18340902,-0.22032267,4.1864862,1.5227944,0.115447946
1747672270.797317,0.113425605,0.18340902,-0.22032267,3.9713027,1.5110765,0.07603319
1747672270.7980547,0.113425605,0.18340902,-0.22032267,3.9713027,1.5110765,0.07603319
1747672270.7988448,0.113425605,0.18340902,-0.22032267,3.9713027,1.5110765,0.07603319
1747672270.799603,0.113425605,0.18340902,-0.22032267,3.9713027,1.5110765,0.07603319
1747672270.825504,0.18957147,0.19805245,-0.39750823,3.479151,2.192845,0.02277001
1747672270.8263009,0.18957147,0.19805245,-0.39750823,3.479151,2.192845,0.02277001
1747672270.827082,0.16809443,0.24881637,-0.45852256,3.2788815,2.4197464,-0.031558435
1747672270.8278148,0.16809443,0.24881637,-0.45852256,3.2788815,2.4197464,-0.031558435
1747672270.8285196,0.16809443,0.24881637,-0.45852256,3.2788815,2.4197464,-0.031558435
1747672270.829221,0.16809443,0.24881637,-0.45852256,3.2788815,2.4197464,-0.031558435
1747672270.8299136,0.16809443,0.24881637,-0.45852256,3.2788815,2.4197464,-0.031558435
1747672270.830642,0.16809443,0.24881637,-0.45852256,3.2788815,2.4197464,-0.031558435
1747672270.8314142,0.16809443,0.24881637,-0.45852256,3.2788815,2.4197464,-0.031558435
1747672270.832131,0.16809443,0.24881637,-0.45852256,3.2788815,2.4197464,-0.031558435
1747672270.863176,-0.010555476,0.3908577,-0.61325485,2.9028435,2.369679,0.015313165
1747672270.8641052,-0.029103825,0.48408753,-0.7108778,2.670616,2.0128157,0.13249217
1747672270.8648856,-0.029103825,0.48408753,-0.7108778,2.670616,2.0128157,0.13249217
1747672270.8656523,-0.029103825,0.48408753,-0.7108778,2.670616,2.0128157,0.13249217
1747672270.8664298,-0.029103825,0.48408753,-0.7108778,2.670616,2.0128157,0.13249217
1747672270.8671634,-0.029103825,0.48408753,-0.7108778,2.670616,2.0128157,0.13249217
1747672270.8679276,-0.029103825,0.48408753,-0.7108778,2.670616,2.0128157,0.13249217
1747672270.8687127,-0.029103825,0.48408753,-0.7108778,2.670616,2.0128157,0.13249217
1747672270.8694675,-0.029103825,0.48408753,-0.7108778,2.670616,2.0128157,0.13249217
1747672270.8702185,-0.029103825,0.48408753,-0.7108778,2.670616,2.0128157,0.13249217
1747672270.8710036,0.028493684,0.51532686,-0.7733564,2.670616,2.0128157,0.13249217
1747672270.8717694,0.028493684,0.51532686,-0.7733564,2.670616,2.0128157,0.13249217
1747672270.8725376,0.028493684,0.51532686,-0.7733564,2.472477,1.7251945,0.17403744
1747672270.8733287,0.028493684,0.51532686,-0.7733564,2.472477,1.7251945,0.17403744
1747672270.874065,0.028493684,0.51532686,-0.7733564,2.472477,1.7251945,0.17403744
1747672270.8748531,0.028493684,0.51532686,-0.7733564,2.472477,1.7251945,0.17403744
1747672270.87559,0.028493684,0.51532686,-0.7733564,2.472477,1.7251945,0.17403744
1747672270.876337,0.028493684,0.51532686,-0.7733564,2.472477,1.7251945,0.17403744
1747672270.8770847,0.028493684,0.51532686,-0.7733564,2.472477,1.7251945,0.17403744
1747672270.8778532,0.028493684,0.51532686,-0.7733564,2.472477,1.7251945,0.17403744
1747672270.8785853,0.028493684,0.51532686,-0.7733564,2.472477,1.7251945,0.17403744
1747672270.8793082,0.028493684,0.51532686,-0.7733564,2.472477,1.7251945,0.17403744
1747672270.8801508,0.028493684,0.51532686,-0.7733564,2.472477,1.7251945,0.17403744
1747672270.8809154,0.070471525,0.5368039,-0.84657353,2.2359884,1.4428996,0.11757848
1747672270.881671,0.070471525,0.5368039,-0.84657353,2.2359884,1.4428996,0.11757848
1747672270.8824027,0.070471525,0.5368039,-0.84657353,2.2359884,1.4428996,0.11757848
1747672270.8831482,0.070471525,0.5368039,-0.84657353,2.2359884,1.4428996,0.11757848
1747672270.8839426,0.070471525,0.5368039,-0.84657353,2.2359884,1.4428996,0.11757848
1747672270.884669,0.070471525,0.5368039,-0.84657353,2.2359884,1.4428996,0.11757848
1747672270.8854115,0.07730513,0.5704838,-0.9393153,2.2359884,1.4428996,0.11757848
1747672270.8861494,0.07730513,0.5704838,-0.9393153,2.2359884,1.4428996,0.11757848
1747672270.8869603,0.07730513,0.5704838,-0.9393153,2.0101526,1.3012196,0.012117374
1747672270.8877354,0.07730513,0.5704838,-0.9393153,2.0101526,1.3012196,0.012117374
1747672270.8885014,0.07730513,0.5704838,-0.9393153,2.0101526,1.3012196,0.012117374
1747672270.8892424,0.07730513,0.5704838,-0.9393153,2.0101526,1.3012196,0.012117374
1747672270.8900986,0.07730513,0.5704838,-0.9393153,2.0101526,1.3012196,0.012117374
1747672270.8908143,0.07730513,0.5704838,-0.9393153,2.0101526,1.3012196,0.012117374
1747672270.8915243,0.07730513,0.5704838,-0.9393153,2.0101526,1.3012196,0.012117374
1747672270.8923144,0.07730513,0.5704838,-0.9393153,2.0101526,1.3012196,0.012117374
1747672270.893069,0.07730513,0.5704838,-0.9393153,2.0101526,1.3012196,0.012117374
1747672270.9239798,-0.037401773,0.59879446,-1.1614074,1.3401017,1.3054806,-0.1647164
1747672270.9248292,-0.15406114,0.6534633,-1.1985041,0.57311183,1.1584742,-0.0560595
1747672270.9255953,-0.15406114,0.6534633,-1.1985041,0.57311183,1.1584742,-0.0560595
1747672270.9263446,-0.2062894,0.67982143,-1.1545738,0.57311183,1.1584742,-0.0560595
1747672270.9271333,-0.2062894,0.67982143,-1.1545738,0.57311183,1.1584742,-0.0560595
1747672270.9278634,-0.2062894,0.67982143,-1.1545738,0.57311183,1.1584742,-0.0560595
1747672270.928585,-0.2062894,0.67982143,-1.1545738,0.57311183,1.1584742,-0.0560595
1747672270.929326,-0.2062894,0.67982143,-1.1545738,0.57311183,1.1584742,-0.0560595
1747672270.9300838,-0.2062894,0.67982143,-1.1545738,0.57311183,1.1584742,-0.0560595
1747672270.9308138,-0.2062894,0.67982143,-1.1545738,0.57311183,1.1584742,-0.0560595
1747672270.9315925,-0.2062894,0.67982143,-1.1545738,0.57311183,1.1584742,-0.0560595
1747672270.9323244,-0.2062894,0.67982143,-1.1545738,0.57311183,1.1584742,-0.0560595
1747672270.9330497,-0.2062894,0.67982143,-1.1545738,0.57311183,1.1584742,-0.0560595
1747672270.9337664,-0.2062894,0.67982143,-1.1545738,0.57311183,1.1584742,-0.0560595
1747672270.9344943,-0.2062894,0.67982143,-1.1545738,0.57311183,1.1584742,-0.0560595
1747672270.9647985,-0.13844147,0.6749403,-0.9344342,-0.11398321,0.45753074,0.33489224
1747672270.9656708,-0.11403575,0.699346,-0.86072886,-0.11398321,0.45753074,0.33489224
1747672270.9664855,-0.11403575,0.699346,-0.86072886,-0.11398321,0.45753074,0.33489224
1747672270.9672513,-0.11403575,0.699346,-0.86072886,-0.11398321,0.45753074,0.33489224
1747672270.9680004,-0.11403575,0.699346,-0.86072886,-0.11398321,0.45753074,0.33489224
1747672270.9687638,-0.11403575,0.699346,-0.86072886,-0.21837905,0.047404233,0.44887546
1747672270.9695127,-0.09939232,0.71984684,-0.86072886,-0.21837905,0.047404233,0.44887546
1747672270.970237,-0.09939232,0.71984684,-0.86072886,-0.21837905,0.047404233,0.44887546
1747672270.9710274,-0.09939232,0.71984684,-0.86072886,-0.21837905,0.047404233,0.44887546
1747672270.9995277,-0.019341536,0.81258863,-0.9319936,-0.6796382,-0.7803056,0.6331661
1747672271.0005367,0.025076883,0.8540783,-0.8768367,-0.953411,-0.99229306,0.66831976
1747672271.0012996,0.025076883,0.8540783,-0.8768367,-0.953411,-0.99229306,0.66831976
1747672271.0020864,0.025076883,0.8540783,-0.8768367,-0.953411,-0.99229306,0.66831976
1747672271.002843,0.025076883,0.8540783,-0.8768367,-0.953411,-0.99229306,0.66831976
1747672271.0035942,0.025076883,0.8540783,-0.8768367,-0.953411,-0.99229306,0.66831976
1747672271.0043314,0.025076883,0.8540783,-0.8768367,-0.953411,-0.99229306,0.66831976
1747672271.0069516,0.025076883,0.8540783,-0.8768367,-0.953411,-0.99229306,0.66831976
1747672271.0336497,0.34039885,0.78671855,-0.3823767,-1.7896429,-0.850613,0.36258912
1747672271.0344565,0.34039885,0.78671855,-0.3823767,-1.7896429,-0.850613,0.36258912
1747672271.0352392,0.34039885,0.78671855,-0.3823767,-1.7896429,-0.850613,0.36258912
1747672271.035966,0.34039885,0.78671855,-0.3823767,-1.7896429,-0.850613,0.36258912
1747672271.0366764,0.34039885,0.78671855,-0.3823767,-1.7896429,-0.850613,0.36258912
1747672271.0374126,0.34039885,0.78671855,-0.3823767,-1.7896429,-0.850613,0.36258912
1747672271.0382385,0.34039885,0.78671855,-0.3823767,-1.7896429,-0.850613,0.36258912
1747672271.0390146,0.35308984,0.7750038,-0.31794557,-1.8610156,-0.64714766,0.16764587
1747672271.039738,0.35308984,0.7750038,-0.31794557,-1.8610156,-0.64714766,0.16764587
1747672271.0404963,0.35308984,0.7750038,-0.31794557,-1.8610156,-0.64714766,0.16764587
1747672271.0411832,0.35308984,0.7750038,-0.31794557,-1.8610156,-0.64714766,0.16764587
1747672271.0419104,0.35308984,0.7750038,-0.31794557,-1.8610156,-0.64714766,0.16764587
1747672271.0425916,0.35308984,0.7750038,-0.31794557,-1.8610156,-0.64714766,0.16764587
1747672271.0432777,0.35308984,0.7750038,-0.31794557,-1.8610156,-0.64714766,0.16764587
1747672271.0440118,0.35308984,0.7750038,-0.31794557,-1.8610156,-0.64714766,0.16764587
1747672271.0447285,0.35308984,0.7750038,-0.31794557,-1.8610156,-0.64714766,0.16764587
1747672271.0454228,0.35308984,0.7750038,-0.31794557,-1.8610156,-0.64714766,0.16764587
1747672271.0461028,0.35308984,0.7750038,-0.31794557,-1.8610156,-0.64714766,0.16764587
1747672271.0467794,0.35308984,0.7750038,-0.31794557,-1.8610156,-0.64714766,0.16764587
1747672271.0475478,0.30964765,0.7574317,-0.27401528,-1.8610156,-0.64714766,0.16764587
1747672271.0482829,0.30964765,0.7574317,-0.27401528,-1.8610156,-0.64714766,0.16764587
1747672271.0490475,0.30964765,0.7574317,-0.27401528,-1.8610156,-0.64714766,0.16764587
1747672271.0498066,0.30964765,0.7574317,-0.27401528,-1.8610156,-0.64714766,0.16764587
1747672271.0527236,0.30964765,0.7574317,-0.27401528,-1.8610156,-0.64714766,0.16764587
1747672271.053796,0.30964765,0.7574317,-0.27401528,-1.8610156,-0.64714766,0.16764587
1747672271.0547216,0.30964765,0.7574317,-0.27401528,-1.8610156,-0.64714766,0.16764587
1747672271.055627,0.30964765,0.7574317,-0.27401528,-1.8610156,-0.64714766,0.16764587
1747672271.059382,0.21983455,0.7393714,-0.32038614,-1.9600852,-0.25513065,-0.24035011
1747672271.0612216,0.21983455,0.7393714,-0.32038614,-1.9600852,-0.25513065,-0.24035011
1747672271.0622673,0.21983455,0.7393714,-0.32038614,-1.9600852,-0.25513065,-0.24035011
1747672271.0679312,0.21983455,0.7393714,-0.32038614,-1.9600852,-0.25513065,-0.24035011
1747672271.0735745,0.10463954,0.707644,-0.42240208,-2.0921779,-0.09427583,-0.41611862
1747672271.0746365,0.10463954,0.707644,-0.42240208,-2.0921779,-0.09427583,-0.41611862
1747672271.0754051,0.10463954,0.707644,-0.42240208,-2.0921779,-0.09427583,-0.41611862
1747672271.0761948,0.10463954,0.707644,-0.42240208,-2.0921779,-0.09427583,-0.41611862
1747672271.076979,0.10463954,0.707644,-0.42240208,-2.0921779,-0.09427583,-0.41611862
1747672271.078593,0.10463954,0.707644,-0.42240208,-2.0921779,-0.09427583,-0.41611862
1747672271.0802987,0.10463954,0.707644,-0.42240208,-2.2562284,-0.065513715,-0.49920917
1747672271.0838735,0.033862945,0.6812858,-0.49171436,-2.2562284,-0.065513715,-0.49920917
1747672271.0847578,0.033862945,0.6812858,-0.49171436,-2.2562284,-0.065513715,-0.49920917
1747672271.085808,0.033862945,0.6812858,-0.49171436,-2.2562284,-0.065513715,-0.49920917
1747672271.0866385,0.033862945,0.6812858,-0.49171436,-2.2562284,-0.065513715,-0.49920917
1747672271.0873902,0.033862945,0.6812858,-0.49171436,-2.2562284,-0.065513715,-0.49920917
1747672271.0881677,0.033862945,0.6812858,-0.49171436,-2.2562284,-0.065513715,-0.49920917
1747672271.0888789,0.033862945,0.6812858,-0.49171436,-2.2562284,-0.065513715,-0.49920917
1747672271.0896583,0.019219508,0.65932065,-0.5214893,-2.4873905,-0.20186746,-0.5556682
1747672271.09036,0.019219508,0.65932065,-0.5214893,-2.4873905,-0.20186746,-0.5556682
1747672271.0910633,0.019219508,0.65932065,-0.5214893,-2.4873905,-0.20186746,-0.5556682
1747672271.091772,0.019219508,0.65932065,-0.5214893,-2.4873905,-0.20186746,-0.5556682
1747672271.0924923,0.019219508,0.65932065,-0.5214893,-2.4873905,-0.20186746,-0.5556682
1747672271.0932426,0.019219508,0.65932065,-0.5214893,-2.4873905,-0.20186746,-0.5556682
1747672271.0939777,0.019219508,0.65932065,-0.5214893,-2.4873905,-0.20186746,-0.5556682
1747672271.094692,0.019219508,0.65932065,-0.5214893,-2.4873905,-0.20186746,-0.5556682
1747672271.0954454,0.019219508,0.65932065,-0.5214893,-2.4873905,-0.20186746,-0.5556682
1747672271.095969,0.019219508,0.65932065,-0.5214893,-2.4873905,-0.20186746,-0.5556682
1747672271.0967214,0.019219508,0.65932065,-0.5214893,-2.4873905,-0.20186746,-0.5556682
1747672271.1008644,0.031910483,0.6383317,-0.5034291,-2.6759422,-0.44794336,-0.60360503
1747672271.1021507,0.031910483,0.6383317,-0.5034291,-2.6759422,-0.44794336,-0.60360503
1747672271.104198,0.031910483,0.6383317,-0.5034291,-2.6759422,-0.44794336,-0.60360503
1747672271.1056879,0.031910483,0.6383317,-0.5034291,-2.6759422,-0.44794336,-0.60360503
1747672271.1066616,0.031910483,0.6383317,-0.5034291,-2.6759422,-0.44794336,-0.60360503
1747672271.1078935,0.031910483,0.6383317,-0.5034291,-2.6759422,-0.44794336,-0.60360503
1747672271.1088681,0.031910483,0.6383317,-0.5034291,-2.6759422,-0.44794336,-0.60360503
1747672271.109973,0.049482606,0.6031875,-0.43265247,-2.8091002,-0.692954,-0.64408505
1747672271.1176279,0.049482606,0.6031875,-0.43265247,-2.8091002,-0.692954,-0.64408505
1747672271.1206553,0.04997072,0.5553523,-0.32526731,-2.9497151,-0.9667268,-0.6866956
1747672271.1220412,0.04997072,0.5553523,-0.32526731,-2.9497151,-0.9667268,-0.6866956
1747672271.123112,0.04997072,0.5553523,-0.32526731,-2.9497151,-0.9667268,-0.6866956
1747672271.1250916,0.04997072,0.5553523,-0.32526731,-2.9497151,-0.9667268,-0.6866956
1747672271.1296732,0.04997072,0.5553523,-0.32526731,-2.9497151,-0.9667268,-0.6866956
1747672271.1309462,0.036303516,0.5026359,-0.22618006,-3.0786119,-1.1701921,-0.6920219
1747672271.131703,0.036303516,0.5026359,-0.22618006,-3.0786119,-1.1701921,-0.6920219
1747672271.132561,0.036303516,0.5026359,-0.22618006,-3.0786119,-1.1701921,-0.6920219
1747672271.1332986,0.036303516,0.5026359,-0.22618006,-3.0786119,-1.1701921,-0.6920219
1747672271.134023,0.036303516,0.5026359,-0.22618006,-3.0786119,-1.1701921,-0.6920219
1747672271.1347575,0.036303516,0.5026359,-0.22618006,-3.0786119,-1.1701921,-0.6920219
1747672271.1355224,0.036303516,0.5026359,-0.22618006,-3.1989868,-1.2650006,-0.65260714
1747672271.1362772,0.036303516,0.5026359,-0.22618006,-3.1989868,-1.2650006,-0.65260714
1747672271.1369686,-0.015436621,0.44845515,-0.1231879,-3.1989868,-1.2650006,-0.65260714
1747672271.1376572,-0.015436621,0.44845515,-0.1231879,-3.1989868,-1.2650006,-0.65260714
1747672271.138336,-0.015436621,0.44845515,-0.1231879,-3.1989868,-1.2650006,-0.65260714
1747672271.1390355,-0.015436621,0.44845515,-0.1231879,-3.1989868,-1.2650006,-0.65260714
1747672271.1397626,-0.015436621,0.44845515,-0.1231879,-3.1989868,-1.2650006,-0.65260714
1747672271.140512,-0.015436621,0.44845515,-0.1231879,-3.1989868,-1.2650006,-0.65260714
1747672271.1412618,-0.015436621,0.44845515,-0.1231879,-3.1989868,-1.2650006,-0.65260714
1747672271.1419532,-0.015436621,0.44845515,-0.1231879,-3.1989868,-1.2650006,-0.65260714
1747672271.1426542,-0.015436621,0.44845515,-0.1231879,-3.1989868,-1.2650006,-0.65260714
1747672271.1433942,-0.015436621,0.44845515,-0.1231879,-3.1989868,-1.2650006,-0.65260714
1747672271.1441762,-0.015436621,0.44845515,-0.1231879,-3.1989868,-1.2650006,-0.65260714
1747672271.1463697,-0.015436621,0.44845515,-0.1231879,-3.1989868,-1.2650006,-0.65260714
1747672271.1477962,-0.06668864,0.40891793,-0.0045760735,-3.276751,-1.2958932,-0.5577987
1747672271.1487548,-0.06668864,0.40891793,-0.0045760735,-3.276751,-1.2958932,-0.5577987
1747672271.1495576,-0.06668864,0.40891793,-0.0045760735,-3.276751,-1.2958932,-0.5577987
1747672271.1503599,-0.06668864,0.40891793,-0.0045760735,-3.276751,-1.2958932,-0.5577987
1747672271.151127,-0.06668864,0.40891793,-0.0045760735,-3.276751,-1.2958932,-0.5577987
1747672271.1519814,-0.06668864,0.40891793,-0.0045760735,-3.276751,-1.2958932,-0.5577987
1747672271.152784,-0.06668864,0.40891793,-0.0045760735,-3.276751,-1.2958932,-0.5577987
1747672271.1535864,-0.06668864,0.40891793,-0.0045760735,-3.276751,-1.2958932,-0.5577987
1747672271.1544192,-0.06668864,0.40891793,-0.0045760735,-3.276751,-1.2958932,-0.5577987
1747672271.1552153,-0.06668864,0.40891793,-0.0045760735,-3.276751,-1.2958932,-0.5577987
1747672271.1562357,-0.06668864,0.40891793,-0.0045760735,-3.276751,-1.2958932,-0.5577987
1747672271.1614153,-0.053509556,0.37767857,0.10524968,-3.276751,-1.2958932,-0.5577987
1747672271.16224,-0.053509556,0.37767857,0.10524968,-3.3055131,-1.2948279,-0.42251018
1747672271.1630821,-0.053509556,0.37767857,0.10524968,-3.3055131,-1.2948279,-0.42251018
1747672271.163932,-0.053509556,0.37767857,0.10524968,-3.3055131,-1.2948279,-0.42251018
1747672271.164717,-0.053509556,0.37767857,0.10524968,-3.3055131,-1.2948279,-0.42251018
1747672271.1660583,-0.053509556,0.37767857,0.10524968,-3.3055131,-1.2948279,-0.42251018
1747672271.166845,-0.053509556,0.37767857,0.10524968,-3.3055131,-1.2948279,-0.42251018
1747672271.1676261,-0.053509556,0.37767857,0.10524968,-3.3055131,-1.2948279,-0.42251018
1747672271.1684203,-0.034473088,0.35620156,0.13844147,-3.2948604,-1.2692616,-0.36498594
1747672271.1692212,-0.034473088,0.35620156,0.13844147,-3.2948604,-1.2692616,-0.36498594
1747672271.170009,-0.034473088,0.35620156,0.13844147,-3.2948604,-1.2692616,-0.36498594
1747672271.1735861,-0.034473088,0.35620156,0.13844147,-3.2948604,-1.2692616,-0.36498594
1747672271.1748114,-0.034473088,0.35620156,0.13844147,-3.2948604,-1.2692616,-0.36498594
1747672271.1755738,-0.034473088,0.35620156,0.13844147,-3.2948604,-1.2692616,-0.36498594
1747672271.176362,-0.034473088,0.35620156,0.13844147,-3.2948604,-1.2692616,-0.36498594
1747672271.1772,-0.034473088,0.35620156,0.13844147,-3.2948604,-1.2692616,-0.36498594
1747672271.1779928,-0.034473088,0.35620156,0.13844147,-3.2948604,-1.2692616,-0.36498594
1747672271.1787548,-0.034473088,0.35620156,0.13844147,-3.2948604,-1.2692616,-0.36498594
1747672271.1795197,-0.034473088,0.35620156,0.13844147,-3.2948604,-1.2692616,-0.36498594
1747672271.1802328,-0.034473088,0.35620156,0.13844147,-3.2948604,-1.2692616,-0.36498594
1747672271.1810014,0.008480989,0.31959298,0.19066972,-3.224553,-1.2958932,-0.2872217
1747672271.1817532,0.008480989,0.31959298,0.19066972,-3.224553,-1.2958932,-0.2872217
1747672271.1824586,0.008480989,0.31959298,0.19066972,-3.224553,-1.2958932,-0.2872217
1747672271.1831553,0.008480989,0.31959298,0.19066972,-3.224553,-1.2958932,-0.2872217
1747672271.1838517,0.008480989,0.31959298,0.19066972,-3.224553,-1.2958932,-0.2872217
1747672271.1845667,0.008480989,0.31959298,0.19066972,-3.224553,-1.2958932,-0.2872217
1747672271.185299,0.008480989,0.31959298,0.19066972,-3.224553,-1.2958932,-0.2872217
1747672271.1860402,0.008480989,0.31959298,0.19066972,-3.224553,-1.2958932,-0.2872217
1747672271.1867797,0.008480989,0.31959298,0.19066972,-3.224553,-1.2958932,-0.2872217
1747672271.1874807,0.008480989,0.31959298,0.19066972,-3.224553,-1.2958932,-0.2872217
1747672271.1881764,0.008480989,0.31959298,0.19066972,-3.224553,-1.2958932,-0.2872217
1747672271.188877,0.11098503,0.37328556,0.19457464,-3.224553,-1.2958932,-0.2872217
1747672271.1896322,0.11098503,0.37328556,0.19457464,-3.224553,-1.2958932,-0.2872217
1747672271.1904106,0.11098503,0.37328556,0.19457464,-3.224553,-1.2958932,-0.2872217
1747672271.1924388,0.11098503,0.37328556,0.19457464,-3.224553,-1.2958932,-0.2872217
1747672271.1933951,0.11098503,0.37328556,0.19457464,-3.1244183,-1.5558176,-0.2850912
1747672271.1942232,0.11098503,0.37328556,0.19457464,-3.1244183,-1.5558176,-0.2850912
1747672271.1950479,0.11098503,0.37328556,0.19457464,-3.1244183,-1.5558176,-0.2850912
1747672271.1960723,0.11098503,0.37328556,0.19457464,-3.1244183,-1.5558176,-0.2850912
1747672271.1970582,0.11098503,0.37328556,0.19457464,-3.1244183,-1.5558176,-0.2850912
1747672271.1980765,0.11098503,0.37328556,0.19457464,-3.1244183,-1.5558176,-0.2850912
1747672271.1990693,0.11098503,0.37328556,0.19457464,-3.1244183,-1.5558176,-0.2850912
1747672271.2001023,0.11098503,0.37328556,0.19457464,-3.1244183,-1.5558176,-0.2850912
1747672271.20118,0.12562847,0.43771666,0.10964272,-3.0881994,-2.1949756,-0.38842174
1747672271.2030141,0.12562847,0.43771666,0.10964272,-3.0881994,-2.1949756,-0.38842174
1747672271.209089,-0.000793186,0.4216089,0.09646362,-3.1542456,-2.6541045,-0.39694387
1747672271.215364,-0.000793186,0.4216089,0.09646362,-3.1542456,-2.6541045,-0.39694387
1747672271.2169945,-0.000793186,0.4216089,0.09646362,-3.2703593,-3.1356034,-0.23395853
1747672271.2192056,-0.16284719,0.35864213,0.19506276,-3.2703593,-3.1356034,-0.23395853
1747672271.2226844,-0.16284719,0.35864213,0.19506276,-3.2703593,-3.1356034,-0.23395853
1747672271.2240307,-0.16284719,0.35864213,0.19506276,-3.2703593,-3.1356034,-0.23395853
1747672271.225035,-0.16284719,0.35864213,0.19506276,-3.2703593,-3.1356034,-0.23395853
1747672271.2258215,-0.16284719,0.35864213,0.19506276,-3.2703593,-3.1356034,-0.23395853
1747672271.2266176,-0.21946847,0.30836633,0.35077128,-3.3917994,-3.5393384,0.14953639
1747672271.2273905,-0.21946847,0.30836633,0.35077128,-3.3917994,-3.5393384,0.14953639
1747672271.2281442,-0.21946847,0.30836633,0.35077128,-3.3917994,-3.5393384,0.14953639
1747672271.2288694,-0.21946847,0.30836633,0.35077128,-3.3917994,-3.5393384,0.14953639
1747672271.2295926,-0.21946847,0.30836633,0.35077128,-3.3917994,-3.5393384,0.14953639
1747672271.230304,-0.21946847,0.30836633,0.35077128,-3.3917994,-3.5393384,0.14953639
1747672271.2310412,-0.21946847,0.30836633,0.35077128,-3.3917994,-3.5393384,0.14953639
1747672271.2317739,-0.21946847,0.30836633,0.35077128,-3.3917994,-3.5393384,0.14953639
1747672271.2325294,-0.21946847,0.30836633,0.35077128,-3.3917994,-3.5393384,0.14953639
1747672271.2332625,-0.21946847,0.30836633,0.35077128,-3.3917994,-3.5393384,0.14953639
1747672271.2339873,-0.21946847,0.30836633,0.35077128,-3.3917994,-3.5393384,0.14953639
1747672271.2347329,-0.21946847,0.30836633,0.35077128,-3.3917994,-3.5393384,0.14953639
1747672271.2354665,-0.1867648,0.26101923,0.54455274,-3.3917994,-3.5393384,0.14953639
1747672271.2361856,-0.1867648,0.26101923,0.54455274,-3.3917994,-3.5393384,0.14953639
1747672271.2370534,-0.1867648,0.26101923,0.54455274,-3.4248226,-3.6362774,0.430766
1747672271.2378147,-0.1867648,0.26101923,0.54455274,-3.4248226,-3.6362774,0.430766
1747672271.238581,-0.1867648,0.26101923,0.54455274,-3.4248226,-3.6362774,0.430766
1747672271.2403376,-0.1867648,0.26101923,0.54455274,-3.4248226,-3.6362774,0.430766
1747672271.2413647,-0.1867648,0.26101923,0.54455274,-3.4248226,-3.6362774,0.430766
1747672271.2425072,-0.1867648,0.26101923,0.54455274,-3.4248226,-3.6362774,0.430766
1747672271.2434711,-0.1867648,0.26101923,0.54455274,-3.4248226,-3.6362774,0.430766
1747672271.2444305,-0.1867648,0.26101923,0.54455274,-3.4248226,-3.6362774,0.430766
1747672271.2454572,-0.1867648,0.26101923,0.54455274,-3.4248226,-3.6362774,0.430766
1747672271.2477775,-0.1867648,0.26101923,0.54455274,-3.4248226,-3.6362774,0.430766
1747672271.2490878,-0.09109437,0.20732662,0.7149047,-3.398191,-3.4786184,0.74821454
1747672271.2504666,-0.09109437,0.20732662,0.7149047,-3.398191,-3.4786184,0.74821454
1747672271.252036,-0.09109437,0.20732662,0.7149047,-3.398191,-3.4786184,0.74821454
1747672271.2537222,-0.09109437,0.20732662,0.7149047,-3.398191,-3.4786184,0.74821454
1747672271.255247,-0.09109437,0.20732662,0.7149047,-3.398191,-3.4786184,0.74821454
1747672271.2571526,-0.09109437,0.20732662,0.7149047,-3.398191,-3.4786184,0.74821454
1747672271.258143,-0.09109437,0.20732662,0.7149047,-3.398191,-3.4786184,0.74821454
1747672271.2593713,0.113425605,0.17022994,0.805694,-3.3023174,-3.032273,0.9719199
1747672271.2609138,0.113425605,0.17022994,0.805694,-3.3023174,-3.032273,0.9719199
1747672271.261704,0.113425605,0.17022994,0.805694,-3.3023174,-3.032273,0.9719199
1747672271.262513,0.113425605,0.17022994,0.805694,-3.3023174,-3.032273,0.9719199
1747672271.2633104,0.113425605,0.17022994,0.805694,-3.3023174,-3.032273,0.9719199
1747672271.264096,0.113425605,0.17022994,0.805694,-3.3023174,-3.032273,0.9719199
1747672271.2654781,0.113425605,0.17022994,0.805694,-3.3023174,-3.032273,0.9719199
1747672271.2671623,0.113425605,0.17022994,0.805694,-3.3023174,-3.032273,0.9719199
1747672271.2680287,0.113425605,0.17022994,0.805694,-3.3023174,-3.032273,0.9719199
1747672271.268998,0.113425605,0.17022994,0.805694,-3.3023174,-3.032273,0.9719199
1747672271.272631,0.36870947,0.17657542,0.78861,-3.204313,-2.4921844,0.9463536
1747672271.273435,0.36870947,0.17657542,0.78861,-3.204313,-2.4921844,0.9463536
1747672271.2742167,0.36870947,0.17657542,0.78861,-3.204313,-2.4921844,0.9463536
1747672271.2749448,0.36870947,0.17657542,0.78861,-3.204313,-2.4921844,0.9463536
1747672271.2756782,0.36870947,0.17657542,0.78861,-3.204313,-2.4921844,0.9463536
1747672271.276424,0.36870947,0.17657542,0.78861,-3.204313,-2.4921844,0.9463536
1747672271.277175,0.36870947,0.17657542,0.78861,-3.204313,-2.4921844,0.9463536
1747672271.2779164,0.36870947,0.17657542,0.78861,-3.204313,-2.4921844,0.9463536
1747672271.2786188,0.36870947,0.17657542,0.78861,-3.204313,-2.4921844,0.9463536
1747672271.2794304,0.36870947,0.17657542,0.78861,-3.204313,-2.4921844,0.9463536
1747672271.280235,0.69721055,0.26882908,0.63680637,-3.204313,-2.4921844,0.9463536
1747672271.2809916,0.69721055,0.26882908,0.63680637,-3.204313,-2.4921844,0.9463536
1747672271.2817557,0.69721055,0.26882908,0.63680637,-3.2192268,-2.1022978,0.608665
1747672271.2825549,0.69721055,0.26882908,0.63680637,-3.2192268,-2.1022978,0.608665
1747672271.2833054,0.69721055,0.26882908,0.63680637,-3.2192268,-2.1022978,0.608665
1747672271.28387,0.69721055,0.26882908,0.63680637,-3.2192268,-2.1022978,0.608665
1747672271.2904046,0.69721055,0.26882908,0.63680637,-3.2192268,-2.1022978,0.608665
1747672271.2973292,0.7196638,0.35327286,0.5089204,-3.4205616,-1.9765967,0.10053425
1747672271.305567,0.52051306,0.36010647,0.5484576,-3.7444017,-2.058622,-0.31917962
1747672271.3064182,0.52051306,0.36010647,0.5484576,-3.7444017,-2.058622,-0.31917962
1747672271.30722,0.52051306,0.36010647,0.5484576,-3.7444017,-2.058622,-0.31917962
1747672271.3080227,0.52051306,0.36010647,0.5484576,-3.7444017,-2.058622,-0.31917962
1747672271.3096983,0.30232593,0.26443604,0.6665814,-4.005391,-2.135321,-0.49281758
1747672271.310377,0.30232593,0.26443604,0.6665814,-4.005391,-2.135321,-0.49281758
1747672271.3111882,0.30232593,0.26443604,0.6665814,-4.005391,-2.135321,-0.49281758
1747672271.3126743,0.30232593,0.26443604,0.6665814,-4.005391,-2.135321,-0.49281758
1747672271.313414,0.30232593,0.26443604,0.6665814,-4.005391,-2.135321,-0.49281758
1747672271.3145602,0.30232593,0.26443604,0.6665814,-4.005391,-2.135321,-0.49281758
1747672271.316639,0.1568678,0.1526578,0.8222898,-4.1832905,-2.2770011,-0.46299022
1747672271.3172314,0.1568678,0.1526578,0.8222898,-4.1832905,-2.2770011,-0.46299022
1747672271.317771,0.1568678,0.1526578,0.8222898,-4.1832905,-2.2770011,-0.46299022
1747672271.318335,0.1568678,0.1526578,0.8222898,-4.1832905,-2.2770011,-0.46299022
1747672271.3188791,0.1568678,0.1526578,0.8222898,-4.1832905,-2.2770011,-0.46299022
1747672271.3194294,0.1568678,0.1526578,0.8222898,-4.1832905,-2.2770011,-0.46299022
1747672271.3199685,0.1568678,0.1526578,0.8222898,-4.1832905,-2.2770011,-0.46299022
1747672271.3205264,0.1568678,0.1526578,0.8222898,-4.1832905,-2.2770011,-0.46299022
1747672271.3210778,0.1568678,0.1526578,0.8222898,-4.1832905,-2.2770011,-0.46299022
1747672271.321616,0.1568678,0.1526578,0.8222898,-4.1832905,-2.2770011,-0.46299022
1747672271.3221605,0.1568678,0.1526578,0.8222898,-4.1832905,-2.2770011,-0.46299022
1747672271.3226962,0.1568678,0.1526578,0.8222898,-4.1832905,-2.2770011,-0.46299022
1747672271.3232405,0.1568678,0.1526578,0.8222898,-4.1832905,-2.2770011,-0.46299022
1747672271.3237894,0.1568678,0.1526578,0.8222898,-4.1832905,-2.2770011,-0.46299022
1747672271.3243318,0.1568678,0.1526578,0.8222898,-4.1832905,-2.2770011,-0.46299022
1747672271.3248773,0.046065807,0.07114269,1.0395008,-4.1832905,-2.2770011,-0.46299022
1747672271.3254194,0.046065807,0.07114269,1.0395008,-4.2599893,-2.4367905,-0.2786996
1747672271.3259616,0.046065807,0.07114269,1.0395008,-4.2599893,-2.4367905,-0.2786996
1747672271.3265,0.046065807,0.07114269,1.0395008,-4.2599893,-2.4367905,-0.2786996
1747672271.32704,0.046065807,0.07114269,1.0395008,-4.2599893,-2.4367905,-0.2786996
1747672271.3275776,0.046065807,0.07114269,1.0395008,-4.2599893,-2.4367905,-0.2786996
1747672271.3281188,0.046065807,0.07114269,1.0395008,-4.2599893,-2.4367905,-0.2786996
1747672271.328726,0.046065807,0.07114269,1.0395008,-4.2599893,-2.4367905,-0.2786996
1747672271.3292801,0.046065807,0.07114269,1.0395008,-4.2599893,-2.4367905,-0.2786996
1747672271.3298578,0.046065807,0.07114269,1.0395008,-4.2599893,-2.4367905,-0.2786996
1747672271.3304121,0.046065807,0.07114269,1.0395008,-4.2599893,-2.4367905,-0.2786996
1747672271.33096,0.046065807,0.07114269,1.0395008,-4.2599893,-2.4367905,-0.2786996
1747672271.331517,0.046065807,0.07114269,1.0395008,-4.2599893,-2.4367905,-0.2786996
1747672271.333462,0.046065807,0.07114269,1.0395008,-4.2599893,-2.4367905,-0.2786996
1747672271.3341005,0.046065807,0.07114269,1.0395008,-4.2599893,-2.4367905,-0.2786996
1747672271.3351648,0.040208433,0.01598575,1.2030191,-4.2599893,-2.4367905,-0.2786996
1747672271.3363638,0.040208433,0.01598575,1.2030191,-4.2599893,-2.4367905,-0.2786996
1747672271.336912,0.040208433,0.01598575,1.2030191,-4.218444,-2.3973758,0.0014647375
1747672271.3375754,0.040208433,0.01598575,1.2030191,-4.218444,-2.3973758,0.0014647375
1747672271.3381968,0.040208433,0.01598575,1.2030191,-4.218444,-2.3973758,0.0014647375
1747672271.3388307,0.040208433,0.01598575,1.2030191,-4.218444,-2.3973758,0.0014647375
1747672271.339564,0.040208433,0.01598575,1.2030191,-4.218444,-2.3973758,0.0014647375
1747672271.3402195,0.040208433,0.01598575,1.2030191,-4.218444,-2.3973758,0.0014647375
1747672271.340885,0.040208433,0.01598575,1.2030191,-4.218444,-2.3973758,0.0014647375
1747672271.3415232,0.040208433,0.01598575,1.2030191,-4.218444,-2.3973758,0.0014647375
1747672271.3421404,0.040208433,0.01598575,1.2030191,-4.218444,-2.3973758,0.0014647375
1747672271.3427627,0.040208433,0.01598575,1.2030191,-4.218444,-2.3973758,0.0014647375
1747672271.3437905,0.040208433,0.01598575,1.2030191,-4.218444,-2.3973758,0.0014647375
1747672271.3488061,0.040208433,0.01598575,1.2030191,-4.218444,-2.3973758,0.0014647375
1747672271.3497458,0.040208433,0.01598575,1.2030191,-4.218444,-2.3973758,0.0014647375
1747672271.3505747,0.040208433,0.01598575,1.2030191,-4.218444,-2.3973758,0.0014647375
1747672271.3515658,0.1505223,-0.0045150593,1.2645216,-4.136419,-2.046904,0.236888
1747672271.3525448,0.1505223,-0.0045150593,1.2645216,-4.136419,-2.046904,0.236888
1747672271.353546,0.1505223,-0.0045150593,1.2645216,-4.136419,-2.046904,0.236888
1747672271.3545442,0.1505223,-0.0045150593,1.2645216,-4.136419,-2.046904,0.236888
1747672271.3555772,0.1505223,-0.0045150593,1.2645216,-4.136419,-2.046904,0.236888
1747672271.356545,0.1505223,-0.0045150593,1.2645216,-4.136419,-2.046904,0.236888
1747672271.3575726,0.1505223,-0.0045150593,1.2645216,-4.136419,-2.046904,0.236888
1747672271.3593705,0.1505223,-0.0045150593,1.2645216,-4.136419,-2.046904,0.236888
1747672271.3602998,0.32038614,0.013057062,1.2508545,-4.1470714,-1.448226,0.32637015
1747672271.3614178,0.32038614,0.013057062,1.2508545,-4.1470714,-1.448226,0.32637015
1747672271.3620808,0.32038614,0.013057062,1.2508545,-4.1470714,-1.448226,0.32637015
1747672271.3626182,0.32038614,0.013057062,1.2508545,-4.1470714,-1.448226,0.32637015
1747672271.363248,0.32038614,0.013057062,1.2508545,-4.1470714,-1.448226,0.32637015
1747672271.3638778,0.32038614,0.013057062,1.2508545,-4.1470714,-1.448226,0.32637015
1747672271.3645053,0.32038614,0.013057062,1.2508545,-4.1470714,-1.448226,0.32637015
1747672271.3651352,0.32038614,0.013057062,1.2508545,-4.1470714,-1.448226,0.32637015
1747672271.3656957,0.32038614,0.013057062,1.2508545,-4.1470714,-1.448226,0.32637015
1747672271.3662534,0.32038614,0.013057062,1.2508545,-4.1470714,-1.448226,0.32637015
1747672271.366806,0.32038614,0.013057062,1.2508545,-4.263185,-0.75580454,0.2400838
1747672271.367363,0.51075083,0.04332016,1.2928323,-4.263185,-0.75580454,0.2400838
1747672271.367914,0.51075083,0.04332016,1.2928323,-4.263185,-0.75580454,0.2400838
1747672271.3684704,0.51075083,0.04332016,1.2928323,-4.263185,-0.75580454,0.2400838
1747672271.3690116,0.51075083,0.04332016,1.2928323,-4.263185,-0.75580454,0.2400838
1747672271.3695457,0.51075083,0.04332016,1.2928323,-4.263185,-0.75580454,0.2400838
1747672271.3700829,0.51075083,0.04332016,1.2928323,-4.263185,-0.75580454,0.2400838
1747672271.3706284,0.51075083,0.04332016,1.2928323,-4.263185,-0.75580454,0.2400838
1747672271.3711715,0.51075083,0.04332016,1.2928323,-4.263185,-0.75580454,0.2400838
1747672271.3717136,0.51075083,0.04332016,1.2928323,-4.263185,-0.75580454,0.2400838
1747672271.3722515,0.51075083,0.04332016,1.2928323,-4.263185,-0.75580454,0.2400838
1747672271.3727882,0.51075083,0.04332016,1.2928323,-4.263185,-0.75580454,0.2400838
1747672271.3733366,0.51075083,0.04332016,1.2928323,-4.263185,-0.75580454,0.2400838
1747672271.3738735,0.51075083,0.04332016,1.2928323,-4.263185,-0.75580454,0.2400838
1747672271.3744526,0.51075083,0.04332016,1.2928323,-4.263185,-0.75580454,0.2400838
1747672271.3750029,0.51075083,0.04332016,1.2928323,-4.263185,-0.75580454,0.2400838
1747672271.3755505,0.51075083,0.04332016,1.2928323,-4.263185,-0.75580454,0.2400838
1747672271.3761144,0.51075083,0.04332016,1.2928323,-4.263185,-0.75580454,0.2400838
1747672271.3766794,0.51075083,0.04332016,1.2928323,-4.263185,-0.75580454,0.2400838
1747672271.3772268,0.51075083,0.04332016,1.2928323,-4.263185,-0.75580454,0.2400838
1747672271.3777826,0.51075083,0.04332016,1.2928323,-4.263185,-0.75580454,0.2400838
1747672271.3783836,0.51075083,0.04332016,1.2928323,-4.263185,-0.75580454,0.2400838
1747672271.3798091,0.51075083,0.04332016,1.2928323,-4.263185,-0.75580454,0.2400838
1747672271.3807693,0.7635941,0.07211892,1.4441478,-4.289817,-0.28921908,-0.07203846
1747672271.382139,0.7635941,0.07211892,1.4441478,-4.289817,-0.28921908,-0.07203846
1747672271.3833592,0.7635941,0.07211892,1.4441478,-4.289817,-0.28921908,-0.07203846
1747672271.384253,0.7635941,0.07211892,1.4441478,-4.289817,-0.28921908,-0.07203846
1747672271.3851478,0.7635941,0.07211892,1.4441478,-4.289817,-0.28921908,-0.07203846
1747672271.3862028,0.7635941,0.07211892,1.4441478,-4.289817,-0.28921908,-0.07203846
1747672271.3872752,0.7635941,0.07211892,1.4441478,-4.289817,-0.28921908,-0.07203846
1747672271.387981,0.7635941,0.07211892,1.4441478,-4.289817,-0.28921908,-0.07203846
1747672271.3886986,0.7635941,0.07211892,1.4441478,-4.289817,-0.28921908,-0.07203846
1747672271.389404,0.7020917,0.02135501,1.6105947,-4.289817,-0.28921908,-0.07203846
1747672271.390152,0.7020917,0.02135501,1.6105947,-4.0863514,-0.42131177,-0.563125
1747672271.390708,0.7020917,0.02135501,1.6105947,-4.0863514,-0.42131177,-0.563125
1747672271.391498,0.7020917,0.02135501,1.6105947,-4.0863514,-0.42131177,-0.563125
1747672271.3927948,0.7020917,0.02135501,1.6105947,-4.0863514,-0.42131177,-0.563125
1747672271.3940406,0.7020917,0.02135501,1.6105947,-4.0863514,-0.42131177,-0.563125
1747672271.3951867,0.7020917,0.02135501,1.6105947,-4.0863514,-0.42131177,-0.563125
1747672271.396197,0.7020917,0.02135501,1.6105947,-4.0863514,-0.42131177,-0.563125
1747672271.3971949,0.7020917,0.02135501,1.6105947,-4.0863514,-0.42131177,-0.563125
1747672271.3981988,0.7020917,0.02135501,1.6105947,-4.0863514,-0.42131177,-0.563125
1747672271.3991954,0.7020917,0.02135501,1.6105947,-4.0863514,-0.42131177,-0.563125
1747672271.4011915,0.7020917,0.02135501,1.6105947,-4.0863514,-0.42131177,-0.563125
1747672271.4021947,0.7020917,0.02135501,1.6105947,-4.0863514,-0.42131177,-0.563125
1747672271.4031987,0.39946067,0.0023185438,1.6828357,-3.6911385,-0.9954889,-0.8645946
1747672271.4041953,0.39946067,0.0023185438,1.6828357,-3.6911385,-0.9954889,-0.8645946
1747672271.405552,0.055828094,0.024771811,1.7057772,-3.2543805,-1.8455693,-0.8123967
1747672271.40739,0.055828094,0.024771811,1.7057772,-3.2543805,-1.8455693,-0.8123967
1747672271.4091947,0.055828094,0.024771811,1.7057772,-3.2543805,-1.8455693,-0.8123967
1747672271.4101958,0.055828094,0.024771811,1.7057772,-3.2543805,-1.8455693,-0.8123967
1747672271.411197,0.055828094,0.024771811,1.7057772,-3.2543805,-1.8455693,-0.8123967
1747672271.4121935,0.055828094,0.024771811,1.7057772,-3.2543805,-1.8455693,-0.8123967
1747672271.4132106,0.055828094,0.024771811,1.7057772,-3.2543805,-1.8455693,-0.8123967
1747672271.413779,0.055828094,0.024771811,1.7057772,-3.2543805,-1.8455693,-0.8123967
1747672271.4143224,0.055828094,0.024771811,1.7057772,-3.2543805,-1.8455693,-0.8123967
1747672271.414874,0.055828094,0.024771811,1.7057772,-3.2543805,-1.8455693,-0.8123967
1747672271.4154289,0.055828094,0.024771811,1.7057772,-3.2543805,-1.8455693,-0.8123967
1747672271.4161847,0.055828094,0.024771811,1.7057772,-3.2543805,-1.8455693,-0.8123967
1747672271.417016,-0.068641104,0.041367702,1.671121,-2.8293402,-2.6051023,-0.4747081
1747672271.4179993,-0.068641104,0.041367702,1.671121,-2.8293402,-2.6051023,-0.4747081
1747672271.4188251,-0.068641104,0.041367702,1.671121,-2.8293402,-2.6051023,-0.4747081
1747672271.4206066,-0.068641104,0.041367702,1.671121,-2.8293402,-2.6051023,-0.4747081
1747672271.4214156,-0.068641104,0.041367702,1.671121,-2.8293402,-2.6051023,-0.4747081
1747672271.4222755,-0.068641104,0.041367702,1.671121,-2.8293402,-2.6051023,-0.4747081
1747672271.4230914,-0.068641104,0.041367702,1.671121,-2.8293402,-2.6051023,-0.4747081
1747672271.4239366,-0.068641104,0.041367702,1.671121,-2.8293402,-2.6051023,-0.4747081
1747672271.4247878,-0.068641104,0.041367702,1.671121,-2.8293402,-2.6051023,-0.4747081
1747672271.4256012,-0.068641104,0.041367702,1.671121,-2.8293402,-2.6051023,-0.4747081
1747672271.4340289,0.040696546,0.008175917,1.5896058,-2.5640895,-2.862896,-0.100800574
1747672271.4587278,0.35748285,-0.03917119,1.34262,-2.622679,-1.5206639,0.31252173
1747672271.4598734,0.36724514,-0.047469135,1.2166864,-2.9390624,-0.29028434,0.3221091
1747672271.4607027,0.36724514,-0.047469135,1.2166864,-2.9390624,-0.29028434,0.3221091
1747672271.4615037,0.36724514,-0.047469135,1.2166864,-2.9390624,-0.29028434,0.3221091
1747672271.4622562,0.36724514,-0.047469135,1.2166864,-2.9390624,-0.29028434,0.3221091
1747672271.4630923,0.36724514,-0.047469135,1.2166864,-2.9390624,-0.29028434,0.3221091
1747672271.464352,0.36724514,-0.047469135,1.2166864,-2.9390624,-0.29028434,0.3221091
1747672271.4655366,0.36724514,-0.047469135,1.2166864,-2.9390624,-0.29028434,0.3221091
1747672271.467835,0.36724514,-0.047469135,1.2166864,-2.9390624,-0.29028434,0.3221091
1747672271.4692051,0.36724514,-0.047469135,1.2166864,-3.2181613,0.6141245,0.31465223
1747672271.4700909,0.3360058,-0.04502856,1.2254725,-3.2181613,0.6141245,0.31465223
1747672271.4719336,0.3360058,-0.04502856,1.2254725,-3.2181613,0.6141245,0.31465223
1747672271.4752553,0.3360058,-0.04502856,1.2254725,-3.2181613,0.6141245,0.31465223
1747672271.4907646,0.50147665,-0.001586372,1.40217,-3.438671,1.2128026,0.24221432
1747672271.4985237,0.5488238,-0.013789235,1.9893718,-2.9124308,-0.4468781,-0.50773126
1747672271.5004435,0.5488238,-0.013789235,1.9893718,-2.9124308,-0.4468781,-0.50773126
1747672271.501845,0.5488238,-0.013789235,1.9893718,-2.9124308,-0.4468781,-0.50773126
1747672271.5026555,0.5488238,-0.013789235,1.9893718,-2.9124308,-0.4468781,-0.50773126
1747672271.503619,0.5488238,-0.013789235,1.9893718,-2.9124308,-0.4468781,-0.50773126
1747672271.5044413,0.5488238,-0.013789235,1.9893718,-2.9124308,-0.4468781,-0.50773126
1747672271.5052047,0.5488238,-0.013789235,1.9893718,-2.9124308,-0.4468781,-0.50773126
1747672271.5059612,0.5488238,-0.013789235,1.9893718,-2.9124308,-0.4468781,-0.50773126
1747672271.5067337,0.5488238,-0.013789235,1.9893718,-2.9124308,-0.4468781,-0.50773126
1747672271.507498,0.5488238,-0.013789235,1.9893718,-2.9124308,-0.4468781,-0.50773126
1747672271.5082266,0.5488238,-0.013789235,1.9893718,-2.9124308,-0.4468781,-0.50773126
1747672271.5089765,0.5488238,-0.013789235,1.9893718,-2.9124308,-0.4468781,-0.50773126
1747672271.5097067,0.32477918,-0.05039782,2.2060945,-2.2658157,-1.6069502,-0.67497766
1747672271.5104687,0.32477918,-0.05039782,2.2060945,-2.2658157,-1.6069502,-0.67497766
1747672271.5112598,0.32477918,-0.05039782,2.2060945,-2.2658157,-1.6069502,-0.67497766
1747672271.5120146,0.32477918,-0.05039782,2.2060945,-2.2658157,-1.6069502,-0.67497766
1747672271.5127747,0.32477918,-0.05039782,2.2060945,-2.2658157,-1.6069502,-0.67497766
1747672271.5135365,0.32477918,-0.05039782,2.2060945,-2.2658157,-1.6069502,-0.67497766
1747672271.5143006,0.32477918,-0.05039782,2.2060945,-2.2658157,-1.6069502,-0.67497766
1747672271.5150723,0.32477918,-0.05039782,2.2060945,-2.2658157,-1.6069502,-0.67497766
1747672271.5159192,0.32477918,-0.05039782,2.2060945,-2.2658157,-1.6069502,-0.67497766
1747672271.5166633,0.09487725,-0.07529166,2.2705257,-1.4956301,-2.385658,-0.5897566
1747672271.5173993,0.09487725,-0.07529166,2.2705257,-1.4956301,-2.385658,-0.5897566
1747672271.518458,0.09487725,-0.07529166,2.2705257,-1.4956301,-2.385658,-0.5897566
1747672271.5193744,0.09487725,-0.07529166,2.2705257,-1.4956301,-2.385658,-0.5897566
1747672271.520238,0.09487725,-0.07529166,2.2705257,-1.4956301,-2.385658,-0.5897566
1747672271.5210447,0.09487725,-0.07529166,2.2705257,-1.4956301,-2.385658,-0.5897566
1747672271.529974,0.031910483,-0.0699224,2.0869946,-0.78083825,-2.5987105,-0.3117228
1747672271.5314534,0.031910483,-0.0699224,2.0869946,-0.78083825,-2.5987105,-0.3117228
1747672271.533653,0.031910483,-0.0699224,2.0869946,-0.78083825,-2.5987105,-0.3117228
1747672271.5357578,0.031910483,-0.0699224,2.0869946,-0.78083825,-2.5987105,-0.3117228
1747672271.5384047,0.031910483,-0.0699224,2.0869946,-0.78083825,-2.5987105,-0.3117228
1747672271.5392976,0.14320059,-0.013789235,1.6735615,-0.42610547,-2.1939104,-0.07310372
1747672271.5402236,0.14320059,-0.013789235,1.6735615,-0.42610547,-2.1939104,-0.07310372
1747672271.541309,0.14320059,-0.013789235,1.6735615,-0.42610547,-2.1939104,-0.07310372
1747672271.542265,0.14320059,-0.013789235,1.6735615,-0.42610547,-2.1939104,-0.07310372
1747672271.5434356,0.14320059,-0.013789235,1.6735615,-0.42610547,-2.1939104,-0.07310372
1747672271.544325,0.14320059,-0.013789235,1.6735615,-0.42610547,-2.1939104,-0.07310372
1747672271.545413,0.14320059,-0.013789235,1.6735615,-0.42610547,-2.1939104,-0.07310372
1747672271.547909,0.14320059,-0.013789235,1.6735615,-0.42610547,-2.1939104,-0.07310372
1747672271.550511,0.25546694,0.04624885,1.3030826,-0.55819815,-1.3257205,0.04087949
1747672271.5534732,0.25546694,0.04624885,1.3030826,-0.55819815,-1.3257205,0.04087949
1747672271.5545669,0.25546694,0.04624885,1.3030826,-0.55819815,-1.3257205,0.04087949
1747672271.555411,0.25546694,0.04624885,1.3030826,-0.55819815,-1.3257205,0.04087949
1747672271.5562682,0.29646853,0.07016645,1.1400524,-0.55819815,-1.3257205,0.04087949
1747672271.5570574,0.29646853,0.07016645,1.1400524,-0.9661941,-0.23382537,0.07709846
1747672271.557827,0.29646853,0.07016645,1.1400524,-0.9661941,-0.23382537,0.07709846
1747672271.558624,0.29646853,0.07016645,1.1400524,-0.9661941,-0.23382537,0.07709846
1747672271.5605726,0.29646853,0.07016645,1.1400524,-0.9661941,-0.23382537,0.07709846
1747672271.5624285,0.29646853,0.07016645,1.1400524,-0.9661941,-0.23382537,0.07709846
1747672271.5633597,0.29646853,0.07016645,1.1400524,-0.9661941,-0.23382537,0.07709846
1747672271.5687044,0.29646853,0.07016645,1.1400524,-0.9661941,-0.23382537,0.07709846
1747672271.569539,0.29646853,0.07016645,1.1400524,-0.9661941,-0.23382537,0.07709846
1747672271.5712657,0.29646853,0.07016645,1.1400524,-0.9661941,-0.23382537,0.07709846
1747672271.5720754,0.29646853,0.07016645,1.1400524,-0.9661941,-0.23382537,0.07709846
1747672271.5730042,0.29646853,0.07016645,1.1400524,-0.9661941,-0.23382537,0.07709846
1747672271.5739772,0.28719437,0.06040417,1.1454217,-1.3603417,0.6791056,0.08135951
1747672271.5747643,0.28719437,0.06040417,1.1454217,-1.3603417,0.6791056,0.08135951
1747672271.5755665,0.28719437,0.06040417,1.1454217,-1.3603417,0.6791056,0.08135951
1747672271.5764594,0.28719437,0.06040417,1.1454217,-1.3603417,0.6791056,0.08135951
1747672271.5782177,0.28719437,0.06040417,1.1454217,-1.3603417,0.6791056,0.08135951
1747672271.5790994,0.28719437,0.06040417,1.1454217,-1.3603417,0.6791056,0.08135951
1747672271.5803292,0.2271563,0.04624885,1.2410922,-1.6074828,1.2010847,0.058988973
1747672271.5822656,0.2271563,0.04624885,1.2410922,-1.6074828,1.2010847,0.058988973
1747672271.5841238,0.2271563,0.04624885,1.2410922,-1.6074828,1.2010847,0.058988973
1747672271.5849009,0.2271563,0.04624885,1.2410922,-1.6074828,1.2010847,0.058988973
1747672271.5859225,0.2271563,0.04624885,1.2410922,-1.6074828,1.2010847,0.058988973
1747672271.586735,0.2271563,0.04624885,1.2410922,-1.6074828,1.2010847,0.058988973
1747672271.5875537,0.2271563,0.04624885,1.2410922,-1.6074828,1.2010847,0.058988973
1747672271.588713,0.16858254,0.023307467,1.3518941,-1.6479628,1.3693964,0.05792371
1747672271.5896733,0.16858254,0.023307467,1.3518941,-1.6479628,1.3693964,0.05792371
1747672271.5905657,0.16858254,0.023307467,1.3518941,-1.6479628,1.3693964,0.05792371
1747672271.5915947,0.16858254,0.023307467,1.3518941,-1.6479628,1.3693964,0.05792371
1747672271.5924883,0.16858254,0.023307467,1.3518941,-1.6479628,1.3693964,0.05792371
1747672271.5933108,0.16858254,0.023307467,1.3518941,-1.6479628,1.3693964,0.05792371
1747672271.5941458,0.16858254,0.023307467,1.3518941,-1.6479628,1.3693964,0.05792371
1747672271.5949109,0.16858254,0.023307467,1.3518941,-1.6479628,1.3693964,0.05792371
1747672271.595664,0.16858254,0.023307467,1.3518941,-1.6479628,1.3693964,0.05792371
1747672271.596418,0.16858254,0.023307467,1.3518941,-1.6479628,1.3693964,0.05792371
1747672271.5969431,0.16858254,0.023307467,1.3518941,-1.6479628,1.3693964,0.05792371
1747672271.5976586,0.16858254,0.023307467,1.3518941,-1.6479628,1.3693964,0.05792371
1747672271.5993202,0.16858254,0.023307467,1.3518941,-1.6479628,1.3693964,0.05792371
1747672271.6001182,0.19054769,0.007199689,1.4871018,-1.5094786,1.1904321,0.06325003
1747672271.6010902,0.19054769,0.007199689,1.4871018,-1.5094786,1.1904321,0.06325003
1747672271.601888,0.19054769,0.007199689,1.4871018,-1.5094786,1.1904321,0.06325003
1747672271.6027071,0.19054769,0.007199689,1.4871018,-1.5094786,1.1904321,0.06325003
1747672271.6035426,0.19054769,0.007199689,1.4871018,-1.5094786,1.1904321,0.06325003
1747672271.6045456,0.19054769,0.007199689,1.4871018,-1.5094786,1.1904321,0.06325003
1747672271.6053636,0.19054769,0.007199689,1.4871018,-1.5094786,1.1904321,0.06325003
1747672271.606142,0.19054769,0.007199689,1.4871018,-1.5094786,1.1904321,0.06325003
1747672271.6070428,0.19054769,0.007199689,1.4871018,-1.5094786,1.1904321,0.06325003
1747672271.6078339,0.19054769,0.007199689,1.4871018,-1.5094786,1.1904321,0.06325003
1747672271.6086142,0.19054769,0.007199689,1.4871018,-1.5094786,1.1904321,0.06325003
1747672271.6093924,0.19054769,0.007199689,1.4871018,-1.5094786,1.1904321,0.06325003
1747672271.6102064,0.19054769,0.007199689,1.4871018,-1.5094786,1.1904321,0.06325003
1747672271.6113987,0.19054769,0.007199689,1.4871018,-1.5094786,1.1904321,0.06325003
1747672271.6122413,0.19054769,0.007199689,1.4871018,-1.5094786,1.1904321,0.06325003
1747672271.6130648,0.19054769,0.007199689,1.4871018,-1.5094786,1.1904321,0.06325003
1747672271.6139603,0.19054769,0.007199689,1.4871018,-1.5094786,1.1904321,0.06325003
1747672271.6147566,0.21202473,-0.0069556315,1.7116345,-1.5094786,1.1904321,0.06325003
1747672271.6155918,0.21202473,-0.0069556315,1.7116345,-1.5094786,1.1904321,0.06325003
1747672271.6164129,0.21202473,-0.0069556315,1.7116345,-1.5094786,1.1904321,0.06325003
1747672271.6171927,0.21202473,-0.0069556315,1.7116345,-1.5094786,1.1904321,0.06325003
1747672271.6180763,0.21202473,-0.0069556315,1.7116345,-1.5094786,1.1904321,0.06325003
1747672271.6190953,0.21202473,-0.0069556315,1.7116345,-1.5094786,1.1904321,0.06325003
1747672271.6201422,0.21202473,-0.0069556315,1.7116345,-0.6285055,-0.2764359,-0.07523424
1747672271.6210475,0.21202473,-0.0069556315,1.7116345,-0.6285055,-0.2764359,-0.07523424
1747672271.621922,0.21202473,-0.0069556315,1.7116345,-0.6285055,-0.2764359,-0.07523424
1747672271.6227806,0.21202473,-0.0069556315,1.7116345,-0.6285055,-0.2764359,-0.07523424
1747672271.62361,0.21202473,-0.0069556315,1.7116345,-0.6285055,-0.2764359,-0.07523424
1747672271.625194,0.21202473,-0.0069556315,1.7116345,-0.6285055,-0.2764359,-0.07523424
1747672271.6260092,0.21202473,-0.0069556315,1.7116345,-0.6285055,-0.2764359,-0.07523424
1747672271.6272395,0.21202473,-0.0069556315,1.7116345,-0.6285055,-0.2764359,-0.07523424
1747672271.6283855,0.21202473,-0.0069556315,1.7116345,-0.1874864,-0.85913515,-0.11784479
1747672271.629183,0.21202473,-0.0069556315,1.7116345,-0.1874864,-0.85913515,-0.11784479
1747672271.6299944,0.21202473,-0.0069556315,1.7116345,-0.1874864,-0.85913515,-0.11784479
1747672271.6308143,0.21202473,-0.0069556315,1.7116345,-0.1874864,-0.85913515,-0.11784479
1747672271.6317682,0.21202473,-0.0069556315,1.7116345,-0.1874864,-0.85913515,-0.11784479
1747672271.6325445,0.21202473,-0.0069556315,1.7116345,-0.1874864,-0.85913515,-0.11784479
1747672271.6333506,0.21202473,-0.0069556315,1.7116345,-0.1874864,-0.85913515,-0.11784479
1747672271.634143,0.21202473,-0.0069556315,1.7116345,-0.1874864,-0.85913515,-0.11784479
1747672271.6349344,0.21202473,-0.0069556315,1.7116345,-0.1874864,-0.85913515,-0.11784479
1747672271.6365557,0.21202473,-0.0069556315,1.7116345,-0.1874864,-0.85913515,-0.11784479
1747672271.6376286,0.21202473,-0.0069556315,1.7116345,-0.1874864,-0.85913515,-0.11784479
1747672271.638731,0.21202473,-0.0069556315,1.7116345,-0.1874864,-0.85913515,-0.11784479
1747672271.6396582,0.21202473,-0.0069556315,1.7116345,-0.1874864,-0.85913515,-0.11784479
1747672271.6404636,0.19884564,-0.02403964,1.6144997,0.124635845,-1.1371689,-0.13595428
1747672271.6412756,0.19884564,-0.02403964,1.6144997,0.124635845,-1.1371689,-0.13595428
1747672271.6420953,0.19884564,-0.02403964,1.6144997,0.124635845,-1.1371689,-0.13595428
1747672271.6438131,0.19884564,-0.02403964,1.6144997,0.124635845,-1.1371689,-0.13595428
1747672271.6453345,0.19884564,-0.02403964,1.6144997,0.124635845,-1.1371689,-0.13595428
1747672271.6461475,0.19884564,-0.02403964,1.6144997,0.124635845,-1.1371689,-0.13595428
1747672271.6471639,0.19884564,-0.02403964,1.6144997,0.124635845,-1.1371689,-0.13595428
1747672271.648101,0.19884564,-0.02403964,1.6144997,0.124635845,-1.1371689,-0.13595428
1747672271.6488957,0.19884564,-0.02403964,1.6144997,0.124635845,-1.1371689,-0.13595428
1747672271.649996,0.19884564,-0.02403964,1.6144997,0.124635845,-1.1371689,-0.13595428
1747672271.6511185,0.19884564,-0.02403964,1.6144997,0.27909908,-1.0018804,-0.11038794
1747672271.652136,0.19884564,-0.02403964,1.6144997,0.27909908,-1.0018804,-0.11038794
1747672271.6529806,0.19884564,-0.02403964,1.6144997,0.27909908,-1.0018804,-0.11038794
1747672271.6538873,0.19884564,-0.02403964,1.6144997,0.27909908,-1.0018804,-0.11038794
1747672271.6546955,0.19884564,-0.02403964,1.6144997,0.27909908,-1.0018804,-0.11038794
1747672271.6555865,0.19884564,-0.02403964,1.6144997,0.27909908,-1.0018804,-0.11038794
1747672271.6572876,0.19884564,-0.02403964,1.6144997,0.27909908,-1.0018804,-0.11038794
1747672271.6582046,0.18517844,-0.031361356,1.4480526,0.31425276,-0.5342297,-0.049667917
1747672271.6592536,0.18517844,-0.031361356,1.4480526,0.31425276,-0.5342297,-0.049667917
1747672271.6600382,0.18517844,-0.031361356,1.4480526,0.31425276,-0.5342297,-0.049667917
1747672271.6608255,0.18517844,-0.031361356,1.4480526,0.31425276,-0.5342297,-0.049667917
1747672271.6616566,0.18517844,-0.031361356,1.4480526,0.31425276,-0.5342297,-0.049667917
1747672271.6625967,0.18517844,-0.031361356,1.4480526,0.31425276,-0.5342297,-0.049667917
1747672271.6634066,0.18517844,-0.031361356,1.4480526,0.31425276,-0.5342297,-0.049667917
1747672271.6641822,0.18517844,-0.031361356,1.4480526,0.31425276,-0.5342297,-0.049667917
1747672271.6650972,0.18517844,-0.031361356,1.4480526,0.31425276,-0.5342297,-0.049667917
1747672271.6660907,0.18517844,-0.031361356,1.4480526,0.31425276,-0.5342297,-0.049667917
1747672271.667037,0.18517844,-0.031361356,1.4480526,0.31425276,-0.5342297,-0.049667917
1747672271.6678271,0.18517844,-0.031361356,1.4480526,0.31425276,-0.5342297,-0.049667917
1747672271.6686661,0.20616737,-0.03380193,1.3806928,0.27590328,0.048469495,0.008921583
1747672271.6695006,0.20616737,-0.03380193,1.3806928,0.27590328,0.048469495,0.008921583
1747672271.6702597,0.20616737,-0.03380193,1.3806928,0.27590328,0.048469495,0.008921583
1747672271.6710205,0.20616737,-0.03380193,1.3806928,0.27590328,0.048469495,0.008921583
1747672271.6717916,0.20616737,-0.03380193,1.3806928,0.27590328,0.048469495,0.008921583
1747672271.6725197,0.20616737,-0.03380193,1.3806928,0.27590328,0.048469495,0.008921583
1747672271.6732247,0.20616737,-0.03380193,1.3806928,0.27590328,0.048469495,0.008921583
1747672271.6739466,0.20616737,-0.03380193,1.3806928,0.27590328,0.048469495,0.008921583
1747672271.6747158,0.20616737,-0.03380193,1.3806928,0.27590328,0.048469495,0.008921583
1747672271.675597,0.20616737,-0.03380193,1.3806928,0.27590328,0.048469495,0.008921583
1747672271.6780677,0.20616737,-0.03380193,1.3806928,0.27590328,0.048469495,0.008921583
1747672271.6789353,0.20616737,-0.03380193,1.3806928,0.27590328,0.048469495,0.008921583
1747672271.6797464,0.20616737,-0.03380193,1.3806928,0.27590328,0.048469495,0.008921583
1747672271.6828172,0.20909604,-0.026968326,1.3548229,0.22370537,0.4500739,0.04620581
1747672271.683619,0.20909604,-0.026968326,1.3548229,0.22370537,0.4500739,0.04620581
1747672271.6844544,0.20909604,-0.026968326,1.3548229,0.22370537,0.4500739,0.04620581
1747672271.6852636,0.20909604,-0.026968326,1.3548229,0.22370537,0.4500739,0.04620581
1747672271.6863546,0.20909604,-0.026968326,1.3548229,0.22370537,0.4500739,0.04620581
1747672271.687587,0.20909604,-0.026968326,1.3548229,0.22370537,0.4500739,0.04620581
1747672271.688607,0.20323867,0.013057062,1.3821572,0.1874864,0.713194,0.07816372
1747672271.6896574,0.20323867,0.013057062,1.3821572,0.1874864,0.713194,0.07816372
1747672271.6904435,0.20323867,0.013057062,1.3821572,0.1874864,0.713194,0.07816372
1747672271.6912432,0.20323867,0.013057062,1.3821572,0.1874864,0.713194,0.07816372
1747672271.6920218,0.20323867,0.013057062,1.3821572,0.1874864,0.713194,0.07816372
1747672271.692802,0.20323867,0.013057062,1.3821572,0.1874864,0.713194,0.07816372
1747672271.6935961,0.20323867,0.013057062,1.3821572,0.1874864,0.713194,0.07816372
1747672271.6943822,0.20323867,0.013057062,1.3821572,0.1874864,0.713194,0.07816372
1747672271.695185,0.20323867,0.013057062,1.3821572,0.1874864,0.713194,0.07816372
1747672271.6963055,0.20323867,0.013057062,1.3821572,0.1874864,0.713194,0.07816372
1747672271.6968231,0.20323867,0.013057062,1.3821572,0.1874864,0.713194,0.07816372
1747672271.6976895,0.20323867,0.013057062,1.3821572,0.1874864,0.713194,0.07816372
1747672271.698605,0.20323867,0.013057062,1.3821572,0.1874864,0.713194,0.07816372
1747672271.6994007,0.20323867,0.013057062,1.3821572,0.1874864,0.713194,0.07816372
1747672271.7001777,0.20616737,0.025748039,1.4265755,0.22903168,0.65673506,0.0845553
1747672271.7009642,0.20616737,0.025748039,1.4265755,0.22903168,0.65673506,0.0845553
1747672271.7017589,0.20616737,0.025748039,1.4265755,0.22903168,0.65673506,0.0845553
1747672271.7025967,0.20616737,0.025748039,1.4265755,0.22903168,0.65673506,0.0845553
1747672271.7044678,0.20616737,0.025748039,1.4265755,0.22903168,0.65673506,0.0845553
1747672271.7052457,0.20616737,0.025748039,1.4265755,0.22903168,0.65673506,0.0845553
1747672271.70608,0.20616737,0.025748039,1.4265755,0.22903168,0.65673506,0.0845553
1747672271.7069995,0.20616737,0.025748039,1.4265755,0.22903168,0.65673506,0.0845553
1747672271.7080998,0.20616737,0.025748039,1.4265755,0.22903168,0.65673506,0.0845553
1747672271.709107,0.20616737,0.025748039,1.4265755,0.22903168,0.65673506,0.0845553
1747672271.709887,0.23154932,0.027700499,1.4861256,0.35579807,0.4287686,0.080294244
1747672271.7106822,0.23154932,0.027700499,1.4861256,0.35579807,0.4287686,0.080294244
1747672271.7114334,0.23154932,0.027700499,1.4861256,0.35579807,0.4287686,0.080294244
1747672271.7121866,0.23154932,0.027700499,1.4861256,0.35579807,0.4287686,0.080294244
1747672271.7129898,0.23154932,0.027700499,1.4861256,0.35579807,0.4287686,0.080294244
1747672271.7142603,0.23154932,0.027700499,1.4861256,0.35579807,0.4287686,0.080294244
1747672271.7150495,0.23154932,0.027700499,1.4861256,0.35579807,0.4287686,0.080294244
1747672271.7158723,0.23154932,0.027700499,1.4861256,0.35579807,0.4287686,0.080294244
1747672271.7166748,0.23154932,0.027700499,1.4861256,0.35579807,0.4287686,0.080294244
1747672271.717809,0.23154932,0.027700499,1.4861256,0.35579807,0.4287686,0.080294244
1747672271.7192628,0.25302637,0.02037878,1.5310321,0.585895,0.15073481,0.05472792
1747672271.7203496,0.25302637,0.02037878,1.5310321,0.585895,0.15073481,0.05472792
1747672271.7212527,0.25302637,0.02037878,1.5310321,0.585895,0.15073481,0.05472792
1747672271.7221696,0.25302637,0.02037878,1.5310321,0.585895,0.15073481,0.05472792
1747672271.723478,0.25302637,0.02037878,1.5310321,0.585895,0.15073481,0.05472792
1747672271.7244544,0.25302637,0.02037878,1.5310321,0.585895,0.15073481,0.05472792
1747672271.7252371,0.25302637,0.02037878,1.5310321,0.585895,0.15073481,0.05472792
1747672271.7261806,0.25302637,0.02037878,1.5310321,0.585895,0.15073481,0.05472792
1747672271.727221,0.2613243,0.017938208,1.5359132,0.7882951,-0.035686333,0.03981423
1747672271.7280202,0.2613243,0.017938208,1.5359132,0.7882951,-0.035686333,0.03981423
1747672271.7290926,0.2613243,0.017938208,1.5359132,0.7882951,-0.035686333,0.03981423
1747672271.7300305,0.2613243,0.017938208,1.5359132,0.7882951,-0.035686333,0.03981423
1747672271.7310338,0.2613243,0.017938208,1.5359132,0.7882951,-0.035686333,0.03981423
1747672271.7318163,0.2613243,0.017938208,1.5359132,0.7882951,-0.035686333,0.03981423
1747672271.7326021,0.2613243,0.017938208,1.5359132,0.7882951,-0.035686333,0.03981423
1747672271.7333808,0.2613243,0.017938208,1.5359132,0.7882951,-0.035686333,0.03981423
1747672271.7341652,0.2613243,0.017938208,1.5359132,0.7882951,-0.035686333,0.03981423
1747672271.7349465,0.2613243,0.017938208,1.5359132,0.7882951,-0.035686333,0.03981423
1747672271.7360754,0.2613243,0.017938208,1.5359132,0.7882951,-0.035686333,0.03981423
1747672271.7370324,0.2613243,0.017938208,1.5359132,0.9672594,-0.20080219,0.023835273
1747672271.7381063,0.2613243,0.017938208,1.5359132,0.9672594,-0.20080219,0.023835273
1747672271.7388873,0.2613243,0.017938208,1.5359132,0.9672594,-0.20080219,0.023835273
1747672271.7396846,0.27011034,0.017938208,1.522246,0.9672594,-0.20080219,0.023835273
1747672271.7404666,0.27011034,0.017938208,1.522246,0.9672594,-0.20080219,0.023835273
1747672271.741475,0.27011034,0.017938208,1.522246,0.9672594,-0.20080219,0.023835273
1747672271.7428806,0.27011034,0.017938208,1.522246,0.9672594,-0.20080219,0.023835273
1747672271.7439334,0.27011034,0.017938208,1.522246,0.9672594,-0.20080219,0.023835273
1747672271.7447808,0.25693128,0.0150095215,1.5149243,1.1057436,-0.2828275,0.015313165
1747672271.7457783,0.25693128,0.0150095215,1.5149243,1.1057436,-0.2828275,0.015313165
1747672271.746703,0.25693128,0.0150095215,1.5149243,1.1057436,-0.2828275,0.015313165
1747672271.7474947,0.25693128,0.0150095215,1.5149243,1.1057436,-0.2828275,0.015313165
1747672271.7482922,0.25693128,0.0150095215,1.5149243,1.1057436,-0.2828275,0.015313165
1747672271.7490578,0.25693128,0.0150095215,1.5149243,1.1057436,-0.2828275,0.015313165
1747672271.749856,0.25693128,0.0150095215,1.5149243,1.1057436,-0.2828275,0.015313165
1747672271.7506008,0.25693128,0.0150095215,1.5149243,1.1057436,-0.2828275,0.015313165
1747672271.7513263,0.25693128,0.0150095215,1.5149243,1.1057436,-0.2828275,0.015313165
1747672271.7520456,0.25693128,0.0150095215,1.5149243,1.1057436,-0.2828275,0.015313165
1747672271.752815,0.25693128,0.0150095215,1.5149243,1.1057436,-0.2828275,0.015313165
1747672271.754363,0.25693128,0.0150095215,1.5149243,1.1057436,-0.2828275,0.015313165
1747672271.7551837,0.25693128,0.0150095215,1.5149243,1.1057436,-0.2828275,0.015313165
1747672271.7561424,0.25693128,0.0150095215,1.5149243,1.1057436,-0.2828275,0.015313165
1747672271.756995,0.25693128,0.0150095215,1.5149243,1.1057436,-0.2828275,0.015313165
1747672271.7577674,0.25693128,0.0150095215,1.5149243,1.1057436,-0.2828275,0.015313165
1747672271.758626,0.25693128,0.0150095215,1.5149243,1.1057436,-0.2828275,0.015313165
1747672271.7594633,0.25205013,0.0076878034,1.5310321,1.228249,-0.25193486,0.035553172
1747672271.760287,0.25205013,0.0076878034,1.5310321,1.228249,-0.25193486,0.035553172
1747672271.7611096,0.25205013,0.0076878034,1.5310321,1.228249,-0.25193486,0.035553172
1747672271.76191,0.25205013,0.0076878034,1.5310321,1.228249,-0.25193486,0.035553172
1747672271.762834,0.25205013,0.0076878034,1.5310321,1.228249,-0.25193486,0.035553172
1747672271.763631,0.25205013,0.0076878034,1.5310321,1.228249,-0.25193486,0.035553172
1747672271.7645612,0.25205013,0.0076878034,1.5310321,1.228249,-0.25193486,0.035553172
1747672271.7654302,0.25205013,0.0076878034,1.5310321,1.228249,-0.25193486,0.035553172
1747672271.7663186,0.25205013,0.0076878034,1.5310321,1.228249,-0.25193486,0.035553172
1747672271.7675595,0.28280133,-0.0025626011,1.5510448,1.3528848,-0.16458324,0.055793185
1747672271.7683492,0.28280133,-0.0025626011,1.5510448,1.3528848,-0.16458324,0.055793185
1747672271.7692142,0.28280133,-0.0025626011,1.5510448,1.3528848,-0.16458324,0.055793185
1747672271.7702377,0.28280133,-0.0025626011,1.5510448,1.3528848,-0.16458324,0.055793185
1747672271.7710085,0.28280133,-0.0025626011,1.5510448,1.3528848,-0.16458324,0.055793185
1747672271.771894,0.28280133,-0.0025626011,1.5510448,1.3528848,-0.16458324,0.055793185
1747672271.7731984,0.28280133,-0.0025626011,1.5510448,1.3528848,-0.16458324,0.055793185
1747672271.7741365,0.28280133,-0.0025626011,1.5510448,1.3528848,-0.16458324,0.055793185
1747672271.77502,0.28280133,-0.0025626011,1.5510448,1.3528848,-0.16458324,0.055793185
1747672271.7758126,0.31013575,-0.0059794025,1.5652002,1.3528848,-0.16458324,0.055793185
1747672271.7766347,0.31013575,-0.0059794025,1.5652002,1.4860427,-0.014381059,0.0611195
1747672271.7774513,0.31013575,-0.0059794025,1.5652002,1.4860427,-0.014381059,0.0611195
1747672271.7782466,0.31013575,-0.0059794025,1.5652002,1.4860427,-0.014381059,0.0611195
1747672271.7790825,0.31013575,-0.0059794025,1.5652002,1.4860427,-0.014381059,0.0611195
1747672271.7798893,0.31013575,-0.0059794025,1.5652002,1.4860427,-0.014381059,0.0611195
1747672271.781295,0.31013575,-0.0059794025,1.5652002,1.4860427,-0.014381059,0.0611195
1747672271.7822745,0.31013575,-0.0059794025,1.5652002,1.4860427,-0.014381059,0.0611195
1747672271.7835824,0.31013575,-0.0059794025,1.5652002,1.4860427,-0.014381059,0.0611195
1747672271.784404,0.31013575,-0.0059794025,1.5652002,1.4860427,-0.014381059,0.0611195
1747672271.7852032,0.31013575,-0.0059794025,1.5652002,1.4860427,-0.014381059,0.0611195
1747672271.7861617,0.31013575,-0.0059794025,1.5652002,1.4860427,-0.014381059,0.0611195
1747672271.7871737,0.31013575,-0.0059794025,1.5652002,1.6298534,0.23702116,0.06005424
1747672271.7879543,0.34039885,-0.008419976,1.547628,1.6298534,0.23702116,0.06005424
1747672271.788758,0.34039885,-0.008419976,1.547628,1.6298534,0.23702116,0.06005424
1747672271.7895026,0.34039885,-0.008419976,1.547628,1.6298534,0.23702116,0.06005424
1747672271.790236,0.34039885,-0.008419976,1.547628,1.6298534,0.23702116,0.06005424
1747672271.7909484,0.34039885,-0.008419976,1.547628,1.6298534,0.23702116,0.06005424
1747672271.7925742,0.34039885,-0.008419976,1.547628,1.6298534,0.23702116,0.06005424
1747672271.7935116,0.34039885,-0.008419976,1.547628,1.6298534,0.23702116,0.06005424
1747672271.794315,0.34039885,-0.008419976,1.547628,1.6298534,0.23702116,0.06005424
1747672271.7950978,0.34039885,-0.008419976,1.547628,1.6298534,0.23702116,0.06005424
1747672271.795891,0.34039885,-0.008419976,1.547628,1.6298534,0.23702116,0.06005424
1747672271.796892,0.34039885,-0.008419976,1.547628,1.6298534,0.23702116,0.06005424
1747672271.7978883,0.34039885,-0.008419976,1.547628,1.6298534,0.23702116,0.06005424
1747672271.801131,0.34039885,-0.008419976,1.547628,1.6298534,0.23702116,0.06005424
1747672271.8024957,0.34039885,-0.008419976,1.547628,1.6298534,0.23702116,0.06005424
1747672271.8057349,0.37456685,-0.0059794025,1.5354251,1.7065524,0.37124437,0.050466865
1747672271.8067617,0.37456685,-0.0059794025,1.5354251,1.7065524,0.37124437,0.050466865
1747672271.8077755,0.37456685,-0.0059794025,1.5354251,1.7065524,0.37124437,0.050466865
1747672271.8085623,0.37456685,-0.0059794025,1.5354251,1.7065524,0.37124437,0.050466865
1747672271.8094084,0.37456685,-0.0059794025,1.5354251,1.7757945,0.4500739,0.014247901
1747672271.8103735,0.41068733,0.0008542004,1.5271271,1.7757945,0.4500739,0.014247901
1747672271.8111885,0.41068733,0.0008542004,1.5271271,1.7757945,0.4500739,0.014247901
1747672271.8119931,0.41068733,0.0008542004,1.5271271,1.7757945,0.4500739,0.014247901
1747672271.8130047,0.41068733,0.0008542004,1.5271271,1.7757945,0.4500739,0.014247901
1747672271.8144906,0.41068733,0.0008542004,1.5271271,1.7757945,0.4500739,0.014247901
1747672271.8152788,0.41068733,0.0008542004,1.5271271,1.7757945,0.4500739,0.014247901
1747672271.8161204,0.41068733,0.0008542004,1.5271271,1.7757945,0.4500739,0.014247901
1747672271.816927,0.41068733,0.0008542004,1.5271271,1.7757945,0.4500739,0.014247901
1747672271.8177385,0.41068733,0.0008542004,1.5271271,1.7757945,0.4500739,0.014247901
1747672271.8187726,0.41068733,0.0008542004,1.5271271,1.7757945,0.4500739,0.014247901
1747672271.8198798,0.41068733,0.0008542004,1.5271271,1.7757945,0.4500739,0.014247901
1747672271.820809,0.41068733,0.0008542004,1.5271271,1.7757945,0.4500739,0.014247901
1747672271.8215938,0.39360332,0.01159272,1.5320083,1.9014956,0.5012065,-0.06458161
1747672271.8223734,0.39360332,0.01159272,1.5320083,1.9014956,0.5012065,-0.06458161
1747672271.8231804,0.39360332,0.01159272,1.5320083,1.9014956,0.5012065,-0.06458161
1747672271.823999,0.39360332,0.01159272,1.5320083,1.9014956,0.5012065,-0.06458161
1747672271.8248253,0.39360332,0.01159272,1.5320083,1.9014956,0.5012065,-0.06458161
1747672271.8256435,0.39360332,0.01159272,1.5320083,1.9014956,0.5012065,-0.06458161
1747672271.8264065,0.39360332,0.01159272,1.5320083,2.0378494,0.58216655,-0.099735305
1747672271.8271782,0.39799634,0.02037878,1.5061383,2.0378494,0.58216655,-0.099735305
1747672271.827926,0.39799634,0.02037878,1.5061383,2.0378494,0.58216655,-0.099735305
1747672271.8286436,0.39799634,0.02037878,1.5061383,2.0378494,0.58216655,-0.099735305
1747672271.8306193,0.39799634,0.02037878,1.5061383,2.0378494,0.58216655,-0.099735305
1747672271.832182,0.39799634,0.02037878,1.5061383,2.0378494,0.58216655,-0.099735305
1747672271.8337476,0.39799634,0.02037878,1.5061383,2.0378494,0.58216655,-0.099735305
1747672271.8357928,0.39799634,0.02037878,1.5061383,2.0378494,0.58216655,-0.099735305
1747672271.8373654,0.39799634,0.02037878,1.5061383,2.0378494,0.58216655,-0.099735305
1747672271.8381832,0.39799634,0.02037878,1.5061383,2.0378494,0.58216655,-0.099735305
1747672271.8389688,0.39799634,0.02037878,1.5061383,2.0378494,0.58216655,-0.099735305
1747672271.840048,0.39799634,0.02037878,1.5061383,2.0378494,0.58216655,-0.099735305
1747672271.8411994,0.42435452,0.035510328,1.4631842,2.0378494,0.58216655,-0.099735305
1747672271.8423042,0.42435452,0.035510328,1.4631842,2.129462,0.6258424,-0.16365112
1747672271.8431013,0.42435452,0.035510328,1.4631842,2.129462,0.6258424,-0.16365112
1747672271.8440259,0.42435452,0.035510328,1.4631842,2.129462,0.6258424,-0.16365112
1747672271.84482,0.42435452,0.035510328,1.4631842,2.129462,0.6258424,-0.16365112
1747672271.8458505,0.42435452,0.035510328,1.4631842,2.129462,0.6258424,-0.16365112
1747672271.8466363,0.42435452,0.035510328,1.4631842,2.129462,0.6258424,-0.16365112
1747672271.847417,0.42435452,0.035510328,1.4631842,2.129462,0.6258424,-0.16365112
1747672271.848366,0.42435452,0.035510328,1.4631842,2.129462,0.6258424,-0.16365112
1747672271.8492541,0.42435452,0.035510328,1.4631842,2.129462,0.6258424,-0.16365112
1747672271.8500707,0.42435452,0.035510328,1.4631842,2.129462,0.6258424,-0.16365112
1747672271.8508766,0.42435452,0.035510328,1.4631842,2.129462,0.6258424,-0.16365112
1747672271.85168,0.42435452,0.035510328,1.4631842,2.129462,0.6258424,-0.16365112
1747672271.8525674,0.42435452,0.035510328,1.4631842,2.129462,0.6258424,-0.16365112
1747672271.8533485,0.42435452,0.035510328,1.4631842,2.129462,0.6258424,-0.16365112
1747672271.8541234,0.42435452,0.035510328,1.4631842,2.129462,0.6258424,-0.16365112
1747672271.8549047,0.42435452,0.035510328,1.4631842,2.129462,0.6258424,-0.16365112
1747672271.8559017,0.37456685,0.033557873,1.4636724,2.2317274,0.7099982,-0.21797957
1747672271.856726,0.37456685,0.033557873,1.4636724,2.2317274,0.7099982,-0.21797957
1747672271.857613,0.37456685,0.033557873,1.4636724,2.2317274,0.7099982,-0.21797957
1747672271.8583817,0.37456685,0.033557873,1.4636724,2.2317274,0.7099982,-0.21797957
1747672271.8591588,0.37456685,0.033557873,1.4636724,2.2317274,0.7099982,-0.21797957
1747672271.860017,0.35699475,0.031605415,1.4255993,2.2317274,0.7099982,-0.21797957
1747672271.8611531,0.35699475,0.031605415,1.4255993,2.3425148,0.8271772,-0.21478379
1747672271.8620827,0.35699475,0.031605415,1.4255993,2.3425148,0.8271772,-0.21478379
1747672271.8629327,0.35699475,0.031605415,1.4255993,2.3425148,0.8271772,-0.21478379
1747672271.8637497,0.35699475,0.031605415,1.4255993,2.3425148,0.8271772,-0.21478379
1747672271.8646078,0.35699475,0.031605415,1.4255993,2.3425148,0.8271772,-0.21478379
1747672271.8653774,0.35699475,0.031605415,1.4255993,2.3425148,0.8271772,-0.21478379
1747672271.866294,0.35699475,0.031605415,1.4255993,2.3425148,0.8271772,-0.21478379
1747672271.8670452,0.375055,0.048201304,1.3777642,2.4426496,0.92518145,-0.22969747
1747672271.8685882,0.375055,0.048201304,1.3777642,2.4426496,0.92518145,-0.22969747
1747672271.8694024,0.375055,0.048201304,1.3777642,2.4426496,0.92518145,-0.22969747
1747672271.8702059,0.375055,0.048201304,1.3777642,2.4426496,0.92518145,-0.22969747
1747672271.8710673,0.375055,0.048201304,1.3777642,2.4426496,0.92518145,-0.22969747
1747672271.871914,0.375055,0.048201304,1.3777642,2.4426496,0.92518145,-0.22969747
1747672271.8727863,0.375055,0.048201304,1.3777642,2.4426496,0.92518145,-0.22969747
1747672271.8735838,0.375055,0.048201304,1.3777642,2.4426496,0.92518145,-0.22969747
1747672271.874475,0.375055,0.048201304,1.3777642,2.4426496,0.92518145,-0.22969747
1747672271.8755252,0.375055,0.048201304,1.3777642,2.4756727,0.9763141,-0.2584596
1747672271.878281,0.375055,0.048201304,1.3777642,2.4756727,0.9763141,-0.2584596
1747672271.8791478,0.375055,0.048201304,1.3777642,2.4756727,0.9763141,-0.2584596
1747672271.8800023,0.375055,0.048201304,1.3777642,2.4756727,0.9763141,-0.2584596
1747672271.8809419,0.375055,0.048201304,1.3777642,2.4756727,0.9763141,-0.2584596
1747672271.8817954,0.375055,0.048201304,1.3777642,2.4756727,0.9763141,-0.2584596
1747672271.8826082,0.375055,0.048201304,1.3777642,2.4756727,0.9763141,-0.2584596
1747672271.8834176,0.375055,0.048201304,1.3777642,2.4756727,0.9763141,-0.2584596
1747672271.8843503,0.375055,0.048201304,1.3777642,2.4756727,0.9763141,-0.2584596
1747672271.885362,0.375055,0.048201304,1.3777642,2.4756727,0.9763141,-0.2584596
1747672271.8861701,0.375055,0.048201304,1.3777642,2.4756727,0.9763141,-0.2584596
1747672271.8869808,0.375055,0.048201304,1.3777642,2.4756727,0.9763141,-0.2584596
1747672271.8877819,0.45852256,0.10238201,1.2908798,2.4756727,0.9763141,-0.2584596
1747672271.8885741,0.45852256,0.10238201,1.2908798,2.4756727,0.9763141,-0.2584596
1747672271.8895023,0.45852256,0.10238201,1.2908798,2.4756727,0.9763141,-0.2584596
1747672271.890313,0.45852256,0.10238201,1.2908798,2.4756727,0.9763141,-0.2584596
1747672271.8912551,0.45852256,0.10238201,1.2908798,2.4756727,0.9763141,-0.2584596
1747672271.8921776,0.45852256,0.10238201,1.2908798,2.4756727,0.9763141,-0.2584596
1747672271.8933396,0.45852256,0.10238201,1.2908798,2.480999,1.0061415,-0.3351586
1747672271.8943684,0.45852256,0.10238201,1.2908798,2.480999,1.0061415,-0.3351586
1747672271.895729,0.45852256,0.10238201,1.2908798,2.480999,1.0061415,-0.3351586
1747672271.8966644,0.46145123,0.10872751,1.2908798,2.480999,1.0061415,-0.3351586
1747672271.8976593,0.46145123,0.10872751,1.2908798,2.4841948,1.0104026,-0.41611862
1747672271.8986604,0.46145123,0.10872751,1.2908798,2.4841948,1.0104026,-0.41611862
1747672271.8996623,0.46145123,0.10872751,1.2908798,2.4841948,1.0104026,-0.41611862
1747672271.9006581,0.46145123,0.10872751,1.2908798,2.4841948,1.0104026,-0.41611862
1747672271.9016569,0.46145123,0.10872751,1.2908798,2.4841948,1.0104026,-0.41611862
1747672271.9026742,0.46145123,0.10872751,1.2908798,2.4841948,1.0104026,-0.41611862
1747672271.9034455,0.46145123,0.10872751,1.2908798,2.4841948,1.0104026,-0.41611862
1747672271.9042206,0.46145123,0.10872751,1.2908798,2.4841948,1.0104026,-0.41611862
1747672271.9049604,0.46145123,0.10872751,1.2908798,2.4841948,1.0104026,-0.41611862
1747672271.9057121,0.46145123,0.10872751,1.2908798,2.4841948,1.0104026,-0.41611862
1747672271.9064271,0.46145123,0.10872751,1.2908798,2.4841948,1.0104026,-0.41611862
1747672271.9078982,0.46145123,0.10872751,1.2908798,2.4841948,1.0104026,-0.41611862
1747672271.9110737,0.40531808,0.10823939,1.317238,2.524675,1.0327731,-0.50773126
1747672271.912037,0.40531808,0.10823939,1.317238,2.524675,1.0327731,-0.50773126
1747672271.9131136,0.40531808,0.10823939,1.317238,2.524675,1.0327731,-0.50773126
1747672271.9140186,0.40531808,0.10823939,1.317238,2.524675,1.0327731,-0.50773126
1747672271.914805,0.40531808,0.10823939,1.317238,2.524675,1.0327731,-0.50773126
1747672271.9155958,0.40531808,0.10823939,1.317238,2.524675,1.0327731,-0.50773126
1747672271.9163694,0.40531808,0.10823939,1.317238,2.524675,1.0327731,-0.50773126
1747672271.917145,0.40531808,0.10823939,1.317238,2.524675,1.0327731,-0.50773126
1747672271.9179764,0.36675704,0.11116808,1.3352982,2.524675,1.0327731,-0.50773126
1747672271.9187822,0.36675704,0.11116808,1.3352982,2.5811338,1.0487521,-0.5418197
1747672271.9195647,0.36675704,0.11116808,1.3352982,2.5811338,1.0487521,-0.5418197
1747672271.9203537,0.36675704,0.11116808,1.3352982,2.5811338,1.0487521,-0.5418197
1747672271.92113,0.36675704,0.11116808,1.3352982,2.5811338,1.0487521,-0.5418197
1747672271.9219012,0.36675704,0.11116808,1.3352982,2.5811338,1.0487521,-0.5418197
1747672271.922942,0.36675704,0.11116808,1.3352982,2.5811338,1.0487521,-0.5418197
1747672271.9237287,0.36675704,0.11116808,1.3352982,2.5811338,1.0487521,-0.5418197
1747672271.9245129,0.36675704,0.11116808,1.3352982,2.5811338,1.0487521,-0.5418197
1747672271.925318,0.36675704,0.11116808,1.3352982,2.5811338,1.0487521,-0.5418197
1747672271.9267547,0.36675704,0.11116808,1.3352982,2.5811338,1.0487521,-0.5418197
1747672271.9276772,0.36675704,0.11116808,1.3352982,2.5811338,1.0487521,-0.5418197
1747672271.9287908,0.36675704,0.11116808,1.3352982,2.5811338,1.0487521,-0.5418197
1747672271.929645,0.36675704,0.11116808,1.3352982,2.5811338,1.0487521,-0.5418197
1747672271.9304476,0.36675704,0.11116808,1.3352982,2.5811338,1.0487521,-0.5418197
1747672271.93128,0.3189218,0.11019185,1.343108,2.7100308,1.0668615,-0.547146
1747672271.9320645,0.3189218,0.11019185,1.343108,2.7100308,1.0668615,-0.547146
1747672271.9328926,0.3189218,0.11019185,1.343108,2.7100308,1.0668615,-0.547146
1747672271.933728,0.3189218,0.11019185,1.343108,2.7100308,1.0668615,-0.547146
1747672271.9345078,0.3189218,0.11019185,1.343108,2.7100308,1.0668615,-0.547146
1747672271.9352963,0.3189218,0.11019185,1.343108,2.7100308,1.0668615,-0.547146
1747672271.9360816,0.3228267,0.11946603,1.3196785,2.8336012,1.068992,-0.54608077
1747672271.937585,0.3228267,0.11946603,1.3196785,2.8336012,1.068992,-0.54608077
1747672271.9388044,0.3228267,0.11946603,1.3196785,2.8336012,1.068992,-0.54608077
1747672271.9396455,0.3228267,0.11946603,1.3196785,2.8336012,1.068992,-0.54608077
1747672271.9405098,0.3228267,0.11946603,1.3196785,2.8336012,1.068992,-0.54608077
1747672271.9415143,0.3228267,0.11946603,1.3196785,2.8336012,1.068992,-0.54608077
1747672271.942431,0.3228267,0.11946603,1.3196785,2.8336012,1.068992,-0.54608077
1747672271.9432046,0.3228267,0.11946603,1.3196785,2.8336012,1.068992,-0.54608077
1747672271.943932,0.3228267,0.11946603,1.3196785,2.8336012,1.068992,-0.54608077
1747672271.9446867,0.3228267,0.11946603,1.3196785,2.8336012,1.068992,-0.54608077
1747672271.946194,0.3228267,0.11946603,1.3196785,2.8336012,1.068992,-0.54608077
1747672271.9469922,0.3228267,0.11946603,1.3196785,2.8336012,1.068992,-0.54608077
1747672271.947793,0.32575542,0.12874019,1.28307,2.9369318,1.1084068,-0.5663208
1747672271.9486053,0.32575542,0.12874019,1.28307,2.9369318,1.1084068,-0.5663208
1747672271.9495316,0.32575542,0.12874019,1.28307,2.9369318,1.1084068,-0.5663208
1747672271.950458,0.32575542,0.12874019,1.28307,2.9369318,1.1084068,-0.5663208
1747672271.951238,0.32575542,0.12874019,1.28307,2.9369318,1.1084068,-0.5663208
1747672271.952016,0.32575542,0.12874019,1.28307,2.9369318,1.1084068,-0.5663208
1747672271.952935,0.32575542,0.12874019,1.28307,2.9369318,1.1084068,-0.5663208
1747672271.9538558,0.32575542,0.12874019,1.28307,2.9369318,1.1084068,-0.5663208
1747672271.9557648,0.32575542,0.12874019,1.28307,2.9369318,1.1084068,-0.5663208
1747672271.9570968,0.32038614,0.1219066,1.2440208,3.0306752,1.2298468,-0.5844303
1747672271.9580307,0.32038614,0.1219066,1.2440208,3.0306752,1.2298468,-0.5844303
1747672271.9588997,0.32038614,0.1219066,1.2440208,3.0306752,1.2298468,-0.5844303
1747672271.960024,0.32038614,0.1219066,1.2440208,3.0306752,1.2298468,-0.5844303
1747672271.9610393,0.32038614,0.1219066,1.2440208,3.0306752,1.2298468,-0.5844303
1747672271.962017,0.32038614,0.1219066,1.2440208,3.0306752,1.2298468,-0.5844303
1747672271.9632766,0.32038614,0.1219066,1.2440208,3.0306752,1.2298468,-0.5844303
1747672271.964402,0.32038614,0.1219066,1.2440208,3.0306752,1.2298468,-0.5844303
1747672271.96535,0.32038614,0.1219066,1.2440208,3.0306752,1.2298468,-0.5844303
1747672271.9662366,0.32038614,0.1219066,1.2440208,3.1212225,1.2650006,-0.6121271
1747672271.9670467,0.34869677,0.12288283,1.2074122,3.1212225,1.2650006,-0.6121271
1747672271.9682221,0.34869677,0.12288283,1.2074122,3.1212225,1.2650006,-0.6121271
1747672271.9691274,0.34869677,0.12288283,1.2074122,3.1212225,1.2650006,-0.6121271
1747672271.9700472,0.34869677,0.12288283,1.2074122,3.1212225,1.2650006,-0.6121271
1747672271.9713252,0.34869677,0.12288283,1.2074122,3.1212225,1.2650006,-0.6121271
1747672271.9733388,0.34869677,0.12288283,1.2074122,3.1212225,1.2650006,-0.6121271
1747672271.9742026,0.34869677,0.12288283,1.2074122,3.1212225,1.2650006,-0.6121271
1747672271.975297,0.34869677,0.12288283,1.2074122,3.1212225,1.2650006,-0.6121271
1747672271.976118,0.34869677,0.12288283,1.2074122,3.2341404,1.2053459,-0.67284715
1747672271.977091,0.34869677,0.12288283,1.2074122,3.2341404,1.2053459,-0.67284715
1747672271.977879,0.34869677,0.12288283,1.2074122,3.2341404,1.2053459,-0.67284715
1747672271.9786782,0.33258903,0.13606192,1.1952094,3.2341404,1.2053459,-0.67284715
1747672271.97947,0.33258903,0.13606192,1.1952094,3.2341404,1.2053459,-0.67284715
1747672271.9802663,0.33258903,0.13606192,1.1952094,3.2341404,1.2053459,-0.67284715
1747672271.9810238,0.33258903,0.13606192,1.1952094,3.2341404,1.2053459,-0.67284715
1747672271.9817703,0.33258903,0.13606192,1.1952094,3.2341404,1.2053459,-0.67284715
1747672271.9824831,0.33258903,0.13606192,1.1952094,3.2341404,1.2053459,-0.67284715
1747672271.984092,0.33258903,0.13606192,1.1952094,3.2341404,1.2053459,-0.67284715
1747672271.9849322,0.31989804,0.14338362,1.1678749,3.2341404,1.2053459,-0.67284715
1747672271.9857285,0.31989804,0.14338362,1.1678749,3.2341404,1.2053459,-0.67284715
1747672271.9867737,0.31989804,0.14338362,1.1678749,3.2341404,1.2053459,-0.67284715
1747672271.987602,0.31989804,0.14338362,1.1678749,3.377951,1.1062763,-0.7229145
1747672271.9886582,0.31989804,0.14338362,1.1678749,3.377951,1.1062763,-0.7229145
1747672271.9898744,0.31989804,0.14338362,1.1678749,3.377951,1.1062763,-0.7229145
1747672271.9908648,0.31989804,0.14338362,1.1678749,3.377951,1.1062763,-0.7229145
1747672271.9921741,0.31989804,0.14338362,1.1678749,3.377951,1.1062763,-0.7229145
1747672271.993057,0.31989804,0.14338362,1.1678749,3.377951,1.1062763,-0.7229145
1747672271.9938793,0.31989804,0.14338362,1.1678749,3.377951,1.1062763,-0.7229145
1747672271.9946697,0.31989804,0.14338362,1.1678749,3.377951,1.1062763,-0.7229145
1747672271.995458,0.31989804,0.14338362,1.1678749,3.377951,1.1062763,-0.7229145
1747672271.9962637,0.31989804,0.14338362,1.1678749,3.377951,1.1062763,-0.7229145
1747672271.9971223,0.31989804,0.14338362,1.1678749,3.377951,1.1062763,-0.7229145
1747672271.997617,0.31989804,0.14338362,1.1678749,3.377951,1.1062763,-0.7229145
1747672271.998882,0.31989804,0.14338362,1.1678749,3.377951,1.1062763,-0.7229145
1747672271.999782,0.31989804,0.14338362,1.1678749,3.377951,1.1062763,-0.7229145
1747672272.0005598,0.31989804,0.14338362,1.1678749,3.377951,1.1062763,-0.7229145
1747672272.0021863,0.31989804,0.14338362,1.1678749,3.377951,1.1062763,-0.7229145
1747672272.003091,0.38530537,0.15461026,1.0868479,3.377951,1.1062763,-0.7229145
1747672272.0056968,0.38530537,0.15461026,1.0868479,3.4929996,0.9954889,-0.8028093
1747672272.0068908,0.38530537,0.15461026,1.0868479,3.4929996,0.9954889,-0.8028093
1747672272.00768,0.38530537,0.15461026,1.0868479,3.4929996,0.9954889,-0.8028093
1747672272.0086577,0.38530537,0.15461026,1.0868479,3.4929996,0.9954889,-0.8028093
1747672272.0094435,0.38530537,0.15461026,1.0868479,3.4929996,0.9954889,-0.8028093
1747672272.010257,0.38530537,0.15461026,1.0868479,3.4929996,0.9954889,-0.8028093
1747672272.0113356,0.38530537,0.15461026,1.0868479,3.4929996,0.9954889,-0.8028093
1747672272.0125787,0.38042423,0.15656273,1.0351077,3.531349,0.9486173,-0.8858999
1747672272.0135093,0.38042423,0.15656273,1.0351077,3.531349,0.9486173,-0.8858999
1747672272.0145733,0.38042423,0.15656273,1.0351077,3.531349,0.9486173,-0.8858999
1747672272.0153623,0.38042423,0.15656273,1.0351077,3.531349,0.9486173,-0.8858999
1747672272.0161657,0.38042423,0.15656273,1.0351077,3.531349,0.9486173,-0.8858999
1747672272.0170338,0.2779202,0.16827747,0.95017594,3.5260227,0.9752489,-1.0254494
1747672272.0177982,0.2779202,0.16827747,0.95017594,3.5260227,0.9752489,-1.0254494
1747672272.0185897,0.2779202,0.16827747,0.95017594,3.5260227,0.9752489,-1.0254494
1747672272.0193512,0.2779202,0.16827747,0.95017594,3.5260227,0.9752489,-1.0254494
1747672272.0200737,0.2779202,0.16827747,0.95017594,3.5260227,0.9752489,-1.0254494
1747672272.0207922,0.2779202,0.16827747,0.95017594,3.5260227,0.9752489,-1.0254494
1747672272.0220559,0.2779202,0.16827747,0.95017594,3.5260227,0.9752489,-1.0254494
1747672272.023028,0.2779202,0.16827747,0.95017594,3.5260227,0.9752489,-1.0254494
1747672272.0238268,0.2779202,0.16827747,0.95017594,3.5260227,0.9752489,-1.0254494
1747672272.024641,0.2779202,0.16827747,0.95017594,3.5260227,0.9752489,-1.0254494
1747672272.0254254,0.2779202,0.16827747,0.95017594,3.5260227,0.9752489,-1.0254494
1747672272.0261974,0.2779202,0.16827747,0.95017594,3.5260227,0.9752489,-1.0254494
1747672272.026983,0.2779202,0.16827747,0.95017594,3.5260227,0.9752489,-1.0254494
1747672272.027771,0.2779202,0.16827747,0.95017594,3.5260227,0.9752489,-1.0254494
1747672272.0287738,0.20714359,0.1692537,0.95212835,3.4898038,1.1297121,-1.0392978
1747672272.029697,0.20714359,0.1692537,0.95212835,3.4898038,1.1297121,-1.0392978
1747672272.0305338,0.20714359,0.1692537,0.95212835,3.4898038,1.1297121,-1.0392978
1747672272.031354,0.20714359,0.1692537,0.95212835,3.4898038,1.1297121,-1.0392978
1747672272.0327063,0.20714359,0.1692537,0.95212835,3.4898038,1.1297121,-1.0392978
1747672272.03514,0.20714359,0.1692537,0.95212835,3.4898038,1.1297121,-1.0392978
1747672272.0364366,0.20714359,0.1692537,0.95212835,3.4898038,1.1297121,-1.0392978
1747672272.0378182,0.20714359,0.1692537,0.95212835,3.4898038,1.1297121,-1.0392978
1747672272.0386446,0.20714359,0.1692537,0.95212835,3.4898038,1.1297121,-1.0392978
1747672272.039426,0.20714359,0.1692537,0.95212835,3.4898038,1.1297121,-1.0392978
1747672272.0402358,0.12269978,0.12776397,0.9950824,3.479151,1.5686007,-0.98283887
1747672272.0410337,0.12269978,0.12776397,0.9950824,3.479151,1.5686007,-0.98283887
1747672272.0418386,0.12269978,0.12776397,0.9950824,3.479151,1.5686007,-0.98283887
1747672272.042631,0.12269978,0.12776397,0.9950824,3.479151,1.5686007,-0.98283887
1747672272.0435483,0.12269978,0.12776397,0.9950824,3.479151,1.5686007,-0.98283887
1747672272.0446217,0.12269978,0.12776397,0.9950824,3.479151,1.5686007,-0.98283887
1747672272.0456374,0.12269978,0.12776397,0.9950824,3.479151,1.5686007,-0.98283887
1747672272.046551,0.12269978,0.12776397,0.9950824,3.479151,1.5686007,-0.98283887
1747672272.0473902,0.12269978,0.12776397,0.9950824,3.479151,1.5686007,-0.98283887
1747672272.048978,0.12269978,0.12776397,0.9950824,3.479151,1.5686007,-0.98283887
1747672272.0506039,0.12269978,0.12776397,0.9950824,3.479151,1.5686007,-0.98283887
1747672272.051418,0.12269978,0.12776397,0.9950824,3.479151,1.5686007,-0.98283887
1747672272.0525062,0.12269978,0.12776397,0.9950824,3.479151,1.5686007,-0.98283887
1747672272.0535192,0.12269978,0.12776397,0.9950824,3.5654373,1.921203,-0.89548725
1747672272.054331,0.10268708,0.0916435,0.9945943,3.5654373,1.921203,-0.89548725
1747672272.0551126,0.10268708,0.0916435,0.9945943,3.5654373,1.921203,-0.89548725
1747672272.0558739,0.10268708,0.0916435,0.9945943,3.5654373,1.921203,-0.89548725
1747672272.0566342,0.07486456,0.0984771,0.91991276,3.5654373,1.921203,-0.89548725
1747672272.0573847,0.07486456,0.0984771,0.91991276,3.5654373,1.921203,-0.89548725
1747672272.0589542,0.07486456,0.0984771,0.91991276,3.6858122,2.0959063,-0.8294409
1747672272.0598123,0.07486456,0.0984771,0.91991276,3.6858122,2.0959063,-0.8294409
1747672272.0607893,0.07486456,0.0984771,0.91991276,3.6858122,2.0959063,-0.8294409
1747672272.0615692,0.07486456,0.0984771,0.91991276,3.6858122,2.0959063,-0.8294409
1747672272.0623448,0.07486456,0.0984771,0.91991276,3.6858122,2.0959063,-0.8294409
1747672272.0631568,0.07486456,0.0984771,0.91991276,3.6858122,2.0959063,-0.8294409
1747672272.0683057,0.07486456,0.0984771,0.91991276,3.6858122,2.0959063,-0.8294409
1747672272.0691922,0.07486456,0.0984771,0.91991276,3.8072522,2.1683443,-0.761264
1747672272.070112,0.07486456,0.0984771,0.91991276,3.8072522,2.1683443,-0.761264
1747672272.0711453,0.07486456,0.0984771,0.91991276,3.8072522,2.1683443,-0.761264
1747672272.0721552,0.07486456,0.0984771,0.91991276,3.8072522,2.1683443,-0.761264
1747672272.0729876,0.07486456,0.0984771,0.91991276,3.8072522,2.1683443,-0.761264
1747672272.0737965,0.07486456,0.0984771,0.91991276,3.8072522,2.1683443,-0.761264
1747672272.074625,0.07486456,0.0984771,0.91991276,3.8072522,2.1683443,-0.761264
1747672272.0754392,0.07486456,0.0984771,0.91991276,3.8072522,2.1683443,-0.761264
1747672272.0762389,0.07486456,0.0984771,0.91991276,3.8072522,2.1683443,-0.761264
1747672272.0770657,0.07486456,0.0984771,0.91991276,3.8072522,2.1683443,-0.761264
1747672272.0786529,0.07486456,0.0984771,0.91991276,3.8072522,2.1683443,-0.761264
1747672272.079969,-0.013484163,0.12776397,0.7363817,3.8892775,2.1619525,-0.68776083
1747672272.0815995,-0.013484163,0.12776397,0.7363817,3.8892775,2.1619525,-0.68776083
1747672272.082398,-0.013484163,0.12776397,0.7363817,3.8892775,2.1619525,-0.68776083
1747672272.0831993,-0.013484163,0.12776397,0.7363817,3.8892775,2.1619525,-0.68776083
1747672272.084014,-0.013484163,0.12776397,0.7363817,3.8892775,2.1619525,-0.68776083
1747672272.0849564,-0.013484163,0.12776397,0.7363817,3.8892775,2.1619525,-0.68776083
1747672272.0858936,-0.013484163,0.12776397,0.7363817,3.8892775,2.1619525,-0.68776083
1747672272.0868,-0.0349612,0.17120616,0.6045908,3.927627,2.002163,-0.59721345
1747672272.087741,-0.0349612,0.17120616,0.6045908,3.927627,2.002163,-0.59721345
1747672272.0885456,-0.0349612,0.17120616,0.6045908,3.927627,2.002163,-0.59721345
1747672272.0893958,-0.0349612,0.17120616,0.6045908,3.927627,2.002163,-0.59721345
1747672272.0901742,-0.0349612,0.17120616,0.6045908,3.927627,2.002163,-0.59721345
1747672272.090972,-0.0349612,0.17120616,0.6045908,3.927627,2.002163,-0.59721345
1747672272.0917737,-0.0349612,0.17120616,0.6045908,3.927627,2.002163,-0.59721345
1747672272.092544,-0.0349612,0.17120616,0.6045908,3.927627,2.002163,-0.59721345
1747672272.0933046,-0.0349612,0.17120616,0.6045908,3.927627,2.002163,-0.59721345
1747672272.0941179,-0.0349612,0.17120616,0.6045908,3.927627,2.002163,-0.59721345
1747672272.09491,-0.0349612,0.17120616,0.6045908,3.927627,2.002163,-0.59721345
1747672272.0956764,-0.0349612,0.17120616,0.6045908,3.927627,2.002163,-0.59721345
1747672272.0978034,-0.0349612,0.17120616,0.6045908,3.927627,2.002163,-0.59721345
1747672272.100275,-0.0349612,0.17120616,0.6045908,3.927627,2.002163,-0.59721345
1747672272.1011016,-0.06717676,0.20488605,0.53771913,3.923366,1.900963,-0.5194492
1747672272.1019764,-0.06717676,0.20488605,0.53771913,3.923366,1.900963,-0.5194492
1747672272.1027715,-0.06717676,0.20488605,0.53771913,3.923366,1.900963,-0.5194492
1747672272.1035929,-0.06717676,0.20488605,0.53771913,3.923366,1.900963,-0.5194492
1747672272.1043813,-0.06717676,0.20488605,0.53771913,3.923366,1.900963,-0.5194492
1747672272.105223,-0.06717676,0.20488605,0.53771913,3.923366,1.900963,-0.5194492
1747672272.1060278,-0.06717676,0.20488605,0.53771913,3.923366,1.900963,-0.5194492
1747672272.1069598,-0.085237,0.2195295,0.50208676,3.923366,1.900963,-0.5194492
1747672272.107752,-0.085237,0.2195295,0.50208676,3.903126,1.864744,-0.46512073
1747672272.1085482,-0.085237,0.2195295,0.50208676,3.903126,1.864744,-0.46512073
1747672272.109905,-0.085237,0.2195295,0.50208676,3.903126,1.864744,-0.46512073
1747672272.1112485,-0.085237,0.2195295,0.50208676,3.903126,1.864744,-0.46512073
1747672272.112349,-0.085237,0.2195295,0.50208676,3.903126,1.864744,-0.46512073
1747672272.113276,-0.085237,0.2195295,0.50208676,3.903126,1.864744,-0.46512073
1747672272.1140583,-0.085237,0.2195295,0.50208676,3.903126,1.864744,-0.46512073
1747672272.114843,-0.085237,0.2195295,0.50208676,3.903126,1.864744,-0.46512073
1747672272.1156216,-0.085237,0.2195295,0.50208676,3.903126,1.864744,-0.46512073
1747672272.1165624,-0.085237,0.2195295,0.50208676,3.903126,1.864744,-0.46512073
1747672272.1173637,-0.06717676,0.23270857,0.46743065,3.8903427,1.8977672,-0.37031227
1747672272.1181407,-0.06717676,0.23270857,0.46743065,3.8903427,1.8977672,-0.37031227
1747672272.1189137,-0.06717676,0.23270857,0.46743065,3.8903427,1.8977672,-0.37031227
1747672272.119703,-0.06717676,0.23270857,0.46743065,3.8903427,1.8977672,-0.37031227
1747672272.120687,-0.06717676,0.23270857,0.46743065,3.8903427,1.8977672,-0.37031227
1747672272.1217647,-0.06717676,0.23270857,0.46743065,3.8903427,1.8977672,-0.37031227
1747672272.1227658,-0.06717676,0.23270857,0.46743065,3.8903427,1.8977672,-0.37031227
1747672272.1235392,-0.06717676,0.23270857,0.46743065,3.8903427,1.8977672,-0.37031227
1747672272.124516,-0.06717676,0.23270857,0.46743065,3.8903427,1.8977672,-0.37031227
1747672272.1254997,-0.06717676,0.23270857,0.46743065,3.8903427,1.8977672,-0.37031227
1747672272.1268685,-0.06717676,0.23270857,0.46743065,3.898865,2.018142,-0.28935224
1747672272.1277037,-0.039842345,0.23856597,0.39128476,3.898865,2.018142,-0.28935224
1747672272.128505,-0.039842345,0.23856597,0.39128476,3.898865,2.018142,-0.28935224
1747672272.1292813,-0.039842345,0.23856597,0.39128476,3.898865,2.018142,-0.28935224
1747672272.130049,-0.039842345,0.23856597,0.39128476,3.898865,2.018142,-0.28935224
1747672272.1307933,-0.039842345,0.23856597,0.39128476,3.898865,2.018142,-0.28935224
1747672272.131541,-0.039842345,0.23856597,0.39128476,3.898865,2.018142,-0.28935224
1747672272.1322656,-0.039842345,0.23856597,0.39128476,3.898865,2.018142,-0.28935224
1747672272.1338797,-0.039842345,0.23856597,0.39128476,3.898865,2.018142,-0.28935224
1747672272.134701,-0.039842345,0.23856597,0.39128476,3.898865,2.018142,-0.28935224
1747672272.1355107,-0.039842345,0.23856597,0.39128476,3.898865,2.018142,-0.28935224
1747672272.136586,-0.039842345,0.23856597,0.39128476,3.898865,2.018142,-0.28935224
1747672272.1376798,-0.039842345,0.23856597,0.39128476,3.898865,2.018142,-0.28935224
1747672272.1386323,-0.039842345,0.23856597,0.39128476,3.898865,2.018142,-0.28935224
1747672272.1395335,-0.039842345,0.23856597,0.39128476,3.898865,2.018142,-0.28935224
1747672272.1404889,-0.039842345,0.23856597,0.39128476,3.898865,2.018142,-0.28935224
1747672272.1428683,-0.039842345,0.23856597,0.39128476,3.855189,2.1097546,-0.2435459
1747672272.1442235,-0.039842345,0.23856597,0.39128476,3.855189,2.1097546,-0.2435459
1747672272.1451397,-0.039842345,0.23856597,0.39128476,3.855189,2.1097546,-0.2435459
1747672272.1461391,-0.039842345,0.23856597,0.39128476,3.855189,2.1097546,-0.2435459
1747672272.147241,-0.0032337585,0.3073901,0.26876804,3.855189,2.1097546,-0.2435459
1747672272.1481771,-0.0032337585,0.3073901,0.26876804,3.855189,2.1097546,-0.2435459
1747672272.1489604,-0.0032337585,0.3073901,0.26876804,3.855189,2.1097546,-0.2435459
1747672272.149753,-0.0032337585,0.3073901,0.26876804,3.855189,2.1097546,-0.2435459
1747672272.150569,-0.0032337585,0.3073901,0.26876804,3.855189,2.1097546,-0.2435459
1747672272.151402,0.019707624,0.34351057,0.17114514,3.7230964,2.349439,-0.21797957
1747672272.1523876,0.019707624,0.34351057,0.17114514,3.7230964,2.349439,-0.21797957
1747672272.1531782,0.019707624,0.34351057,0.17114514,3.7230964,2.349439,-0.21797957
1747672272.1539502,0.019707624,0.34351057,0.17114514,3.7230964,2.349439,-0.21797957
1747672272.1547313,0.019707624,0.34351057,0.17114514,3.7230964,2.349439,-0.21797957
1747672272.1555152,0.019707624,0.34351057,0.17114514,3.7230964,2.349439,-0.21797957
1747672272.1563764,0.019707624,0.34351057,0.17114514,3.7230964,2.349439,-0.21797957
1747672272.1574864,0.023124425,0.35327286,0.09109437,3.5633068,2.6061676,-0.1881522
1747672272.1583312,0.023124425,0.35327286,0.09109437,3.5633068,2.6061676,-0.1881522
1747672272.1591134,0.023124425,0.35327286,0.09109437,3.5633068,2.6061676,-0.1881522
1747672272.1598883,0.023124425,0.35327286,0.09109437,3.5633068,2.6061676,-0.1881522
1747672272.1606824,0.023124425,0.35327286,0.09109437,3.5633068,2.6061676,-0.1881522
1747672272.1614835,0.023124425,0.35327286,0.09109437,3.5633068,2.6061676,-0.1881522
1747672272.1622694,0.023124425,0.35327286,0.09109437,3.5633068,2.6061676,-0.1881522
1747672272.1630573,0.023124425,0.35327286,0.09109437,3.5633068,2.6061676,-0.1881522
1747672272.1638396,0.023124425,0.35327286,0.09109437,3.5633068,2.6061676,-0.1881522
1747672272.1646025,0.023124425,0.35327286,0.09109437,3.5633068,2.6061676,-0.1881522
1747672272.1653855,0.012385906,0.38597652,0.02959194,3.5633068,2.6061676,-0.1881522
1747672272.1661718,0.012385906,0.38597652,0.02959194,3.5633068,2.6061676,-0.1881522
1747672272.1669621,0.012385906,0.38597652,0.02959194,3.5633068,2.6061676,-0.1881522
1747672272.1677825,0.012385906,0.38597652,0.02959194,3.5633068,2.6061676,-0.1881522
1747672272.1685567,0.012385906,0.38597652,0.02959194,3.5633068,2.6061676,-0.1881522
1747672272.1692955,0.012385906,0.38597652,0.02959194,3.3971257,2.826677,-0.134889
1747672272.1700366,0.012385906,0.38597652,0.02959194,3.3971257,2.826677,-0.134889
1747672272.1708057,0.012385906,0.38597652,0.02959194,3.3971257,2.826677,-0.134889
1747672272.1715953,0.012385906,0.38597652,0.02959194,3.3971257,2.826677,-0.134889
1747672272.1723812,0.012385906,0.38597652,0.02959194,3.3971257,2.826677,-0.134889
1747672272.1731753,0.012385906,0.38597652,0.02959194,3.3971257,2.826677,-0.134889
1747672272.1739469,0.012385906,0.38597652,0.02959194,3.3971257,2.826677,-0.134889
1747672272.175561,0.012385906,0.38597652,0.02959194,3.3971257,2.826677,-0.134889
1747672272.1767929,-0.023246452,0.46065807,0.0066505605,3.2352057,2.8682222,-0.049667917
1747672272.1776292,-0.023246452,0.46065807,0.0066505605,3.2352057,2.8682222,-0.049667917
1747672272.1784375,-0.023246452,0.46065807,0.0066505605,3.2352057,2.8682222,-0.049667917
1747672272.179272,-0.023246452,0.46065807,0.0066505605,3.2352057,2.8682222,-0.049667917
1747672272.1800714,-0.023246452,0.46065807,0.0066505605,3.2352057,2.8682222,-0.049667917
1747672272.1808624,-0.023246452,0.46065807,0.0066505605,3.2352057,2.8682222,-0.049667917
1747672272.1818419,-0.023246452,0.46065807,0.0066505605,3.2352057,2.8682222,-0.049667917
1747672272.1829226,-0.023246452,0.46065807,0.0066505605,3.2352057,2.8682222,-0.049667917
1747672272.1840203,-0.023246452,0.46065807,0.0066505605,3.2352057,2.8682222,-0.049667917
1747672272.1848354,-0.023246452,0.46065807,0.0066505605,3.2352057,2.8682222,-0.049667917
1747672272.1857584,-0.03398497,0.53192276,0.007626789,3.2352057,2.8682222,-0.049667917
1747672272.186588,-0.03398497,0.53192276,0.007626789,3.2352057,2.8682222,-0.049667917
1747672272.187565,-0.03398497,0.53192276,0.007626789,3.114831,2.8043065,0.052597392
1747672272.1886764,-0.03398497,0.53192276,0.007626789,3.114831,2.8043065,0.052597392
1747672272.1902115,-0.03398497,0.53192276,0.007626789,3.114831,2.8043065,0.052597392
1747672272.191531,-0.03398497,0.53192276,0.007626789,3.114831,2.8043065,0.052597392
1747672272.193286,-0.03398497,0.53192276,0.007626789,3.114831,2.8043065,0.052597392
1747672272.1940773,-0.03398497,0.53192276,0.007626789,3.114831,2.8043065,0.052597392
1747672272.1948805,-0.03398497,0.53192276,0.007626789,3.114831,2.8043065,0.052597392
1747672272.195666,-0.03398497,0.53192276,0.007626789,3.114831,2.8043065,0.052597392
1747672272.1964467,-0.03398497,0.53192276,0.007626789,3.114831,2.8043065,0.052597392
1747672272.1972256,0.00067115744,0.55828094,0.013484163,3.0541108,2.67754,0.13355742
1747672272.197745,0.00067115744,0.55828094,0.013484163,3.0541108,2.67754,0.13355742
1747672272.1985197,0.00067115744,0.55828094,0.013484163,3.0541108,2.67754,0.13355742
1747672272.199299,0.00067115744,0.55828094,0.013484163,3.0541108,2.67754,0.13355742
1747672272.2000723,0.00067115744,0.55828094,0.013484163,3.0541108,2.67754,0.13355742
1747672272.2008593,0.00067115744,0.55828094,0.013484163,3.0541108,2.67754,0.13355742
1747672272.201771,0.00067115744,0.55828094,0.013484163,3.0541108,2.67754,0.13355742
1747672272.2039309,0.00067115744,0.55828094,0.013484163,3.0541108,2.67754,0.13355742
1747672272.2052426,0.00067115744,0.55828094,0.013484163,3.0541108,2.67754,0.13355742
1747672272.206174,0.00067115744,0.55828094,0.013484163,3.0541108,2.67754,0.13355742
1747672272.207119,0.00067115744,0.55828094,0.013484163,3.0541108,2.67754,0.13355742
1747672272.2079184,0.00067115744,0.55828094,0.013484163,3.0541108,2.67754,0.13355742
1747672272.2087152,0.00067115744,0.55828094,0.013484163,3.0541108,2.67754,0.13355742
1747672272.2095194,0.00067115744,0.55828094,0.013484163,3.0541108,2.67754,0.13355742
1747672272.2102754,0.00067115744,0.55828094,0.013484163,3.0541108,2.67754,0.13355742
1747672272.2110155,0.00067115744,0.55828094,0.013484163,3.0541108,2.67754,0.13355742
1747672272.2117844,0.00067115744,0.55828094,0.013484163,3.0541108,2.67754,0.13355742
1747672272.2125545,0.00067115744,0.55828094,0.013484163,3.0541108,2.67754,0.13355742
1747672272.2132726,0.00067115744,0.55828094,0.013484163,3.0541108,2.67754,0.13355742
1747672272.2140222,0.00067115744,0.55828094,0.013484163,3.0541108,2.67754,0.13355742
1747672272.214752,0.00067115744,0.55828094,0.013484163,3.0541108,2.67754,0.13355742
1747672272.2155013,0.00067115744,0.55828094,0.013484163,3.0541108,2.67754,0.13355742
1747672272.21622,0.00067115744,0.55828094,0.013484163,3.0541108,2.67754,0.13355742
1747672272.2169561,0.00067115744,0.55828094,0.013484163,3.0541108,2.67754,0.13355742
1747672272.2176995,0.028981797,0.5690195,-0.014826477,3.0487845,2.3877885,0.16338481
1747672272.2184453,0.028981797,0.5690195,-0.014826477,3.0487845,2.3877885,0.16338481
1747672272.2191727,0.028981797,0.5690195,-0.014826477,3.0487845,2.3877885,0.16338481
1747672272.2198808,0.028981797,0.5690195,-0.014826477,3.0487845,2.3877885,0.16338481
1747672272.2206182,0.028981797,0.5690195,-0.014826477,3.0487845,2.3877885,0.16338481
1747672272.2213774,0.028981797,0.5690195,-0.014826477,3.0487845,2.3877885,0.16338481
1747672272.2226756,0.028981797,0.5690195,-0.014826477,3.0487845,2.3877885,0.16338481
1747672272.2247138,0.028981797,0.5690195,-0.014826477,3.0487845,2.3877885,0.16338481
1747672272.2255256,0.028981797,0.5690195,-0.014826477,3.0487845,2.3877885,0.16338481
1747672272.2263753,0.028981797,0.5690195,-0.014826477,3.0487845,2.3877885,0.16338481
1747672272.227175,0.028981797,0.5690195,-0.014826477,3.0487845,2.3877885,0.16338481
1747672272.2279744,0.028981797,0.5690195,-0.014826477,3.0487845,2.3877885,0.16338481
1747672272.2289388,-0.015924735,0.58512723,-0.095853485,3.0498497,2.2109547,0.1665806
1747672272.2297282,-0.015924735,0.58512723,-0.095853485,3.0498497,2.2109547,0.1665806
1747672272.2305443,-0.015924735,0.58512723,-0.095853485,3.0498497,2.2109547,0.1665806
1747672272.231335,-0.015924735,0.58512723,-0.095853485,3.0498497,2.2109547,0.1665806
1747672272.2324364,-0.015924735,0.58512723,-0.095853485,3.0498497,2.2109547,0.1665806
1747672272.2338471,-0.015924735,0.58512723,-0.095853485,3.0498497,2.2109547,0.1665806
1747672272.235022,-0.015924735,0.58512723,-0.095853485,3.0498497,2.2109547,0.1665806
1747672272.2358093,-0.015924735,0.58512723,-0.095853485,3.0498497,2.2109547,0.1665806
1747672272.2368383,-0.015924735,0.58512723,-0.095853485,3.0498497,2.2109547,0.1665806
1747672272.23777,-0.015924735,0.58512723,-0.095853485,3.0498497,2.2109547,0.1665806
1747672272.238696,-0.015924735,0.58512723,-0.095853485,3.0498497,2.2109547,0.1665806
1747672272.2396252,-0.015924735,0.58512723,-0.095853485,3.0498497,2.2109547,0.1665806
1747672272.2404177,-0.015924735,0.58512723,-0.095853485,3.0498497,2.2109547,0.1665806
1747672272.2412229,-0.015924735,0.58512723,-0.095853485,3.0498497,2.2109547,0.1665806
1747672272.2420454,-0.015924735,0.58512723,-0.095853485,3.0498497,2.2109547,0.1665806
1747672272.2430248,-0.015924735,0.58512723,-0.095853485,3.0498497,2.2109547,0.1665806
1747672272.244013,-0.015924735,0.58512723,-0.095853485,3.0498497,2.2109547,0.1665806
1747672272.2449088,-0.06815299,0.60709244,-0.17639238,2.9923255,2.0895147,0.21558273
1747672272.2456868,-0.06815299,0.60709244,-0.17639238,2.9923255,2.0895147,0.21558273
1747672272.2464623,-0.06815299,0.60709244,-0.17639238,2.9923255,2.0895147,0.21558273
1747672272.2472486,-0.06815299,0.60709244,-0.17639238,2.9923255,2.0895147,0.21558273
1747672272.2480586,-0.06815299,0.60709244,-0.17639238,2.9923255,2.0895147,0.21558273
1747672272.2488298,-0.06815299,0.60709244,-0.17639238,2.9923255,2.0895147,0.21558273
1747672272.250446,-0.06815299,0.60709244,-0.17639238,2.9923255,2.0895147,0.21558273
1747672272.2514873,-0.06815299,0.60709244,-0.17639238,2.9923255,2.0895147,0.21558273
1747672272.2522824,-0.09060626,0.64272475,-0.21592964,2.828275,2.0650136,0.3103912
1747672272.2533286,-0.09060626,0.64272475,-0.21592964,2.828275,2.0650136,0.3103912
1747672272.2542486,-0.09060626,0.64272475,-0.21592964,2.828275,2.0650136,0.3103912
1747672272.2550795,-0.09060626,0.64272475,-0.21592964,2.828275,2.0650136,0.3103912
1747672272.2559378,-0.09060626,0.64272475,-0.21592964,2.828275,2.0650136,0.3103912
1747672272.2566955,-0.09060626,0.64272475,-0.21592964,2.828275,2.0650136,0.3103912
1747672272.257433,-0.07889151,0.6524871,-0.1939645,2.6738117,2.1544957,0.3977428
1747672272.258166,-0.07889151,0.6524871,-0.1939645,2.6738117,2.1544957,0.3977428
1747672272.2588997,-0.07889151,0.6524871,-0.1939645,2.6738117,2.1544957,0.3977428
1747672272.2596202,-0.07889151,0.6524871,-0.1939645,2.6738117,2.1544957,0.3977428
1747672272.2603984,-0.07889151,0.6524871,-0.1939645,2.6738117,2.1544957,0.3977428
1747672272.2611525,-0.07889151,0.6524871,-0.1939645,2.6738117,2.1544957,0.3977428
1747672272.2618701,-0.07889151,0.6524871,-0.1939645,2.6738117,2.1544957,0.3977428
1747672272.2625866,-0.07889151,0.6524871,-0.1939645,2.6738117,2.1544957,0.3977428
1747672272.263324,-0.07889151,0.6524871,-0.1939645,2.6738117,2.1544957,0.3977428
1747672272.2640712,-0.07889151,0.6524871,-0.1939645,2.6738117,2.1544957,0.3977428
1747672272.2648475,-0.07889151,0.6524871,-0.1939645,2.6738117,2.1544957,0.3977428
1747672272.2656093,-0.07889151,0.6524871,-0.1939645,2.6738117,2.1544957,0.3977428
1747672272.266369,-0.07889151,0.6524871,-0.1939645,2.6738117,2.1544957,0.3977428
1747672272.2670794,-0.07889151,0.6524871,-0.1939645,2.6738117,2.1544957,0.3977428
1747672272.2678742,-0.07889151,0.6524871,-0.1939645,2.6738117,2.1544957,0.3977428
1747672272.2686334,-0.02617514,0.6900719,-0.16907066,2.6738117,2.1544957,0.3977428
1747672272.2700455,-0.02617514,0.6900719,-0.16907066,2.6738117,2.1544957,0.3977428
1747672272.2719867,-0.02617514,0.6900719,-0.16907066,2.6738117,2.1544957,0.3977428
1747672272.272783,-0.02617514,0.6900719,-0.16907066,2.6738117,2.1544957,0.3977428
1747672272.2735987,-0.02617514,0.6900719,-0.16907066,2.5768728,2.2173462,0.45207125
1747672272.274507,-0.02617514,0.6900719,-0.16907066,2.5768728,2.2173462,0.45207125
1747672272.2753162,-0.02617514,0.6900719,-0.16907066,2.5768728,2.2173462,0.45207125
1747672272.2761343,-0.02617514,0.6900719,-0.16907066,2.5768728,2.2173462,0.45207125
1747672272.2769442,-0.02617514,0.6900719,-0.16907066,2.5566328,2.0884495,0.42224386
1747672272.2778022,-0.02617514,0.6900719,-0.16907066,2.5566328,2.0884495,0.42224386
1747672272.278965,-0.02617514,0.6900719,-0.16907066,2.5566328,2.0884495,0.42224386
1747672272.279905,-0.02617514,0.6900719,-0.16907066,2.5566328,2.0884495,0.42224386
1747672272.2807577,-0.02617514,0.6900719,-0.16907066,2.5566328,2.0884495,0.42224386
1747672272.2817366,-0.02617514,0.6900719,-0.16907066,2.5566328,2.0884495,0.42224386
1747672272.2849677,-0.02617514,0.6900719,-0.16907066,2.5566328,2.0884495,0.42224386
1747672272.285943,-0.02617514,0.6900719,-0.16907066,2.5566328,2.0884495,0.42224386
1747672272.2868218,-0.02617514,0.6900719,-0.16907066,2.5566328,2.0884495,0.42224386
1747672272.2876618,-0.013484163,0.7559673,-0.26181242,2.5523717,1.8008282,0.36685017
1747672272.2886717,-0.013484163,0.7559673,-0.26181242,2.5523717,1.8008282,0.36685017
1747672272.2894685,-0.013484163,0.7559673,-0.26181242,2.5523717,1.8008282,0.36685017
1747672272.2902749,-0.013484163,0.7559673,-0.26181242,2.5523717,1.8008282,0.36685017
1747672272.2910671,-0.013484163,0.7559673,-0.26181242,2.5523717,1.8008282,0.36685017
1747672272.2918825,-0.013484163,0.7559673,-0.26181242,2.5523717,1.8008282,0.36685017
1747672272.292776,-0.013484163,0.7559673,-0.26181242,2.5523717,1.8008282,0.36685017
1747672272.2947316,-0.013484163,0.7559673,-0.26181242,2.5523717,1.8008282,0.36685017
1747672272.2956092,-0.013484163,0.7559673,-0.26181242,2.5523717,1.8008282,0.36685017
1747672272.2966452,-0.013484163,0.7559673,-0.26181242,2.5523717,1.8008282,0.36685017
1747672272.297804,-0.04862841,0.75206244,-0.38042423,2.5086958,1.5281206,0.33169648
1747672272.298637,-0.04862841,0.75206244,-0.38042423,2.5086958,1.5281206,0.33169648
1747672272.299637,-0.04862841,0.75206244,-0.38042423,2.5086958,1.5281206,0.33169648
1747672272.3006413,-0.04862841,0.75206244,-0.38042423,2.5086958,1.5281206,0.33169648
1747672272.3016403,-0.04862841,0.75206244,-0.38042423,2.5086958,1.5281206,0.33169648
1747672272.3026576,-0.04862841,0.75206244,-0.38042423,2.5086958,1.5281206,0.33169648
1747672272.3034346,-0.04862841,0.75206244,-0.38042423,2.5086958,1.5281206,0.33169648
1747672272.3041685,-0.04862841,0.75206244,-0.38042423,2.5086958,1.5281206,0.33169648
1747672272.3049088,-0.04862841,0.75206244,-0.38042423,2.5086958,1.5281206,0.33169648
1747672272.305643,-0.04862841,0.75206244,-0.38042423,2.5086958,1.5281206,0.33169648
1747672272.306351,-0.040818576,0.7320497,-0.48488072,2.5086958,1.5281206,0.33169648
1747672272.3071353,-0.040818576,0.7320497,-0.48488072,2.5086958,1.5281206,0.33169648
1747672272.3078883,-0.040818576,0.7320497,-0.48488072,2.4192138,1.3864406,0.32104382
1747672272.3086207,-0.040818576,0.7320497,-0.48488072,2.4192138,1.3864406,0.32104382
1747672272.3093455,-0.040818576,0.7320497,-0.48488072,2.4192138,1.3864406,0.32104382
1747672272.3100376,-0.040818576,0.7320497,-0.48488072,2.4192138,1.3864406,0.32104382
