timestamp,acc_x,acc_y,acc_z,gyro_x,gyro_y,gyro_z
1747679307.3263104,-0.64608055,0.6920243,0.29561433,0.9217194,-0.14221269,-0.9201215
1747679307.3269615,-0.64608055,0.6920243,0.29561433,0.9217194,-0.14221269,-0.9201215
1747679307.3275163,-0.64608055,0.6920243,0.29561433,0.9217194,-0.14221269,-0.9201215
1747679307.3280733,-0.64608055,0.6920243,0.29561433,0.9217194,-0.14221269,-0.9201215
1747679307.3294063,-0.64608055,0.6920243,0.29561433,0.9217194,-0.14221269,-0.9201215
1747679307.329954,-0.64608055,0.6920243,0.29561433,0.9217194,-0.14221269,-0.9201215
1747679307.3304875,-0.64608055,0.6920243,0.29561433,0.9217194,-0.14221269,-0.9201215
1747679307.3310082,-0.64608055,0.6920243,0.29561433,0.9217194,-0.14221269,-0.9201215
1747679307.331528,-0.64608055,0.6920243,0.29561433,0.9217194,-0.14221269,-0.9201215
1747679307.332048,-0.64608055,0.6920243,0.29561433,0.9217194,-0.14221269,-0.9201215
1747679307.3325772,-0.64608055,0.6920243,0.29561433,0.9217194,-0.14221269,-0.9201215
1747679307.3331034,-0.64608055,0.6920243,0.29561433,0.9217194,-0.14221269,-0.9201215
1747679307.3336284,-0.64608055,0.6920243,0.29561433,0.9217194,-0.14221269,-0.9201215
1747679307.3341563,-0.64608055,0.6920243,0.29561433,0.9217194,-0.14221269,-0.9201215
1747679307.3346782,-0.64608055,0.6920243,0.29561433,0.9217194,-0.14221269,-0.9201215
1747679307.3351972,-0.64608055,0.6920243,0.29561433,0.9217194,-0.14221269,-0.9201215
1747679307.335716,-0.64608055,0.6920243,0.29561433,0.9217194,-0.14221269,-0.9201215
1747679307.3362362,-0.64608055,0.6920243,0.29561433,0.9217194,-0.14221269,-0.9201215
1747679307.3367548,-0.64608055,0.6920243,0.29561433,0.9217194,-0.14221269,-0.9201215
1747679307.3372784,-0.64608055,0.6920243,0.29561433,0.7619298,-0.10492847,-0.590955
1747679307.3378007,-0.64608055,0.6920243,0.29561433,0.7619298,-0.10492847,-0.590955
1747679307.3383243,-0.6377826,0.7217993,0.33612785,0.7619298,-0.10492847,-0.590955
1747679307.3388462,-0.6377826,0.7217993,0.33612785,0.7619298,-0.10492847,-0.590955
1747679307.3393645,-0.6377826,0.7217993,0.33612785,0.7619298,-0.10492847,-0.590955
1747679307.3398836,-0.6377826,0.7217993,0.33612785,0.7619298,-0.10492847,-0.590955
1747679307.3404088,-0.53820723,0.793064,0.38737985,0.72038454,-0.16245271,-0.433296
1747679307.3409312,-0.53820723,0.793064,0.38737985,0.72038454,-0.16245271,-0.433296
1747679307.3414543,-0.53820723,0.793064,0.38737985,0.72038454,-0.16245271,-0.433296
1747679307.3420746,-0.53820723,0.793064,0.38737985,0.72038454,-0.16245271,-0.433296
1747679307.3432436,-0.53820723,0.793064,0.38737985,0.72038454,-0.16245271,-0.433296
1747679307.3437924,-0.53820723,0.793064,0.38737985,0.72038454,-0.16245271,-0.433296
1747679307.3443282,-0.53820723,0.793064,0.38737985,0.72038454,-0.16245271,-0.433296
1747679307.3448546,-0.53820723,0.793064,0.38737985,0.72038454,-0.16245271,-0.433296
1747679307.345407,-0.53820723,0.793064,0.38737985,0.72038454,-0.16245271,-0.433296
1747679307.3459618,-0.53820723,0.793064,0.38737985,0.72038454,-0.16245271,-0.433296
1747679307.3465118,-0.53820723,0.793064,0.38737985,0.72038454,-0.16245271,-0.433296
1747679307.3470712,-0.53820723,0.793064,0.38737985,0.72038454,-0.16245271,-0.433296
1747679307.3476284,-0.53820723,0.793064,0.38737985,0.72038454,-0.16245271,-0.433296
1747679307.3482933,-0.53820723,0.793064,0.38737985,0.72038454,-0.16245271,-0.433296
1747679307.3488503,-0.53820723,0.793064,0.38737985,0.72038454,-0.16245271,-0.433296
1747679307.3494172,-0.53820723,0.793064,0.38737985,0.72038454,-0.16245271,-0.433296
1747679307.3499825,-0.53820723,0.793064,0.38737985,0.72038454,-0.16245271,-0.433296
1747679307.3505363,-0.53820723,0.793064,0.38737985,0.72038454,-0.16245271,-0.433296
1747679307.3510997,-0.53820723,0.793064,0.38737985,0.72038454,-0.16245271,-0.433296
1747679307.3516467,-0.4796335,0.85700697,0.32099628,0.71612346,-0.4085286,-0.3853591
1747679307.3521948,-0.4796335,0.85700697,0.32099628,0.71612346,-0.4085286,-0.3853591
1747679307.3527484,-0.4796335,0.85700697,0.32099628,0.71612346,-0.4085286,-0.3853591
1747679307.3845904,-0.20287259,0.9268074,0.6748793,0.69694877,-0.3733749,-1.0117341
1747679307.3867562,-0.20287259,0.9268074,0.6748793,0.69694877,-0.3733749,-1.0117341
1747679307.38806,-0.20287259,0.9268074,0.6748793,0.69694877,-0.3733749,-1.0117341
1747679307.3894389,-0.20287259,0.9268074,0.6748793,0.69694877,-0.3733749,-1.0117341
1747679307.3899992,-0.20287259,0.9268074,0.6748793,0.69694877,-0.3733749,-1.0117341
1747679307.390546,-0.20287259,0.9268074,0.6748793,0.69694877,-0.3733749,-1.0117341
1747679307.3910797,-0.20287259,0.9268074,0.6748793,0.69694877,-0.3733749,-1.0117341
1747679307.392896,-0.20287259,0.9268074,0.6748793,0.69694877,-0.3733749,-1.0117341
1747679307.3934546,-0.20287259,0.9268074,0.6748793,0.69694877,-0.3733749,-1.0117341
1747679307.3940032,-0.20287259,0.9268074,0.6748793,0.69694877,-0.3733749,-1.0117341
1747679307.3945453,-0.45571586,0.8716504,0.74712026,0.88763094,-0.17736639,-1.1502184
1747679307.3950841,-0.45571586,0.8716504,0.74712026,0.88763094,-0.17736639,-1.1502184
1747679307.3956199,-0.45571586,0.8716504,0.74712026,0.88763094,-0.17736639,-1.1502184
1747679307.3961544,-0.45571586,0.8716504,0.74712026,0.88763094,-0.17736639,-1.1502184
1747679307.3966892,-0.45571586,0.8716504,0.74712026,0.88763094,-0.17736639,-1.1502184
1747679307.397223,-0.45571586,0.8716504,0.74712026,0.88763094,-0.17736639,-1.1502184
1747679307.3977559,-0.45571586,0.8716504,0.74712026,0.88763094,-0.17736639,-1.1502184
1747679307.3982894,-0.45571586,0.8716504,0.74712026,0.88763094,-0.17736639,-1.1502184
1747679307.3988354,-0.45571586,0.8716504,0.74712026,0.88763094,-0.17736639,-1.1502184
1747679307.3993688,-0.45571586,0.8716504,0.74712026,0.88763094,-0.17736639,-1.1502184
1747679307.3999007,-0.45571586,0.8716504,0.74712026,0.88763094,-0.17736639,-1.1502184
1747679307.4004352,-0.45571586,0.8716504,0.74712026,0.88763094,-0.17736639,-1.1502184
1747679307.4009728,-0.45571586,0.8716504,0.74712026,0.88763094,-0.17736639,-1.1502184
1747679307.4015307,-0.45571586,0.8716504,0.74712026,0.88763094,-0.17736639,-1.1502184
1747679307.4020803,-0.45571586,0.8716504,0.74712026,0.88763094,-0.17736639,-1.1502184
1747679307.4027007,-0.45571586,0.8716504,0.74712026,0.88763094,-0.17736639,-1.1502184
1747679307.4038196,-0.45571586,0.8716504,0.74712026,0.88763094,-0.17736639,-1.1502184
1747679307.4050205,-0.60312647,0.822839,0.7607874,1.0101362,-0.14966954,-1.1480879
1747679307.4056196,-0.60312647,0.822839,0.7607874,1.0101362,-0.14966954,-1.1480879
1747679307.4061644,-0.60312647,0.822839,0.7607874,1.0101362,-0.14966954,-1.1480879
1747679307.4067018,-0.60312647,0.822839,0.7607874,1.0101362,-0.14966954,-1.1480879
1747679307.4078336,-0.60312647,0.822839,0.7607874,1.0101362,-0.14966954,-1.1480879
1747679307.4083893,-0.60312647,0.822839,0.7607874,1.0101362,-0.14966954,-1.1480879
1747679307.4089363,-0.60312647,0.822839,0.7607874,1.0101362,-0.14966954,-1.1480879
1747679307.4094691,-0.60312647,0.822839,0.7607874,1.0101362,-0.14966954,-1.1480879
1747679307.410005,-0.60312647,0.822839,0.7607874,1.0101362,-0.14966954,-1.1480879
1747679307.410555,-0.60312647,0.822839,0.7607874,1.0101362,-0.14966954,-1.1480879
1747679307.4110885,-0.60312647,0.822839,0.7607874,1.0101362,-0.14966954,-1.1480879
1747679307.4116085,-0.60312647,0.822839,0.7607874,1.0101362,-0.14966954,-1.1480879
1747679307.4121277,-0.60312647,0.822839,0.7607874,1.0101362,-0.14966954,-1.1480879
1747679307.412647,-0.60312647,0.822839,0.7607874,1.0101362,-0.14966954,-1.1480879
1747679307.4131658,-0.60312647,0.822839,0.7607874,1.0101362,-0.14966954,-1.1480879
1747679307.4136896,-0.60312647,0.822839,0.7607874,1.0101362,-0.14966954,-1.1480879
1747679307.4142292,-0.60312647,0.822839,0.7607874,1.0101362,-0.14966954,-1.1480879
1747679307.414757,-0.60312647,0.822839,0.7607874,1.0101362,-0.14966954,-1.1480879
1747679307.4152792,-0.60312647,0.822839,0.7607874,1.0101362,-0.14966954,-1.1480879
1747679307.4158108,-0.8027653,0.76084846,0.7388223,1.2732564,-0.32437277,-0.9105341
1747679307.4163337,-0.8027653,0.76084846,0.7388223,1.2732564,-0.32437277,-0.9105341
1747679307.416857,-0.8027653,0.76084846,0.7388223,1.2732564,-0.32437277,-0.9105341
1747679307.4173796,-0.8027653,0.76084846,0.7388223,1.2732564,-0.32437277,-0.9105341
1747679307.4178984,-0.8027653,0.76084846,0.7388223,1.2732564,-0.32437277,-0.9105341
1747679307.418426,-0.8027653,0.76084846,0.7388223,1.2732564,-0.32437277,-0.9105341
1747679307.4189591,-0.8027653,0.76084846,0.7388223,1.2732564,-0.32437277,-0.9105341
1747679307.4194922,-0.8027653,0.76084846,0.7388223,1.2732564,-0.32437277,-0.9105341
1747679307.420013,-0.8027653,0.76084846,0.7388223,1.2732564,-0.32437277,-0.9105341
1747679307.420532,-0.8027653,0.76084846,0.7388223,1.2732564,-0.32437277,-0.9105341
1747679307.4210508,-0.8027653,0.76084846,0.7388223,1.2732564,-0.32437277,-0.9105341
1747679307.4215693,-0.8027653,0.76084846,0.7388223,1.2732564,-0.32437277,-0.9105341
1747679307.422093,-0.8027653,0.76084846,0.7388223,1.2732564,-0.32437277,-0.9105341
1747679307.4235346,-0.8027653,0.76084846,0.7388223,1.2732564,-0.32437277,-0.9105341
1747679307.424139,-0.8027653,0.76084846,0.7388223,1.2732564,-0.32437277,-0.9105341
1747679307.42469,-0.8027653,0.76084846,0.7388223,1.2732564,-0.32437277,-0.9105341
1747679307.425245,-0.8027653,0.76084846,0.7388223,1.2732564,-0.32437277,-0.9105341
1747679307.425771,-0.80813456,0.74718124,0.5831138,1.3978922,-0.5107939,-0.6772414
1747679307.4262936,-0.80813456,0.74718124,0.5831138,1.3978922,-0.5107939,-0.6772414
1747679307.4268131,-0.80813456,0.74718124,0.5831138,1.3978922,-0.5107939,-0.6772414
1747679307.4273322,-0.80813456,0.74718124,0.5831138,1.3978922,-0.5107939,-0.6772414
1747679307.4278512,-0.80813456,0.74718124,0.5831138,1.3978922,-0.5107939,-0.6772414
1747679307.4283698,-0.80813456,0.74718124,0.5831138,1.3978922,-0.5107939,-0.6772414
1747679307.428888,-0.80813456,0.74718124,0.5831138,1.3978922,-0.5107939,-0.6772414
1747679307.4294062,-0.80813456,0.74718124,0.5831138,1.3978922,-0.5107939,-0.6772414
1747679307.4299247,-0.80813456,0.74718124,0.5831138,1.3978922,-0.5107939,-0.6772414
1747679307.4304516,-0.80813456,0.74718124,0.5831138,1.3978922,-0.5107939,-0.6772414
1747679307.4309723,-0.80813456,0.74718124,0.5831138,1.3978922,-0.5107939,-0.6772414
1747679307.4314911,-0.80813456,0.74718124,0.5831138,1.3978922,-0.5107939,-0.6772414
1747679307.43201,-0.80813456,0.74718124,0.5831138,1.3978922,-0.5107939,-0.6772414
1747679307.4325285,-0.80813456,0.74718124,0.5831138,1.3978922,-0.5107939,-0.6772414
1747679307.4330468,-0.80813456,0.74718124,0.5831138,1.3978922,-0.5107939,-0.6772414
1747679307.4335804,-0.80813456,0.74718124,0.5831138,1.3978922,-0.5107939,-0.6772414
1747679307.434187,-0.80813456,0.74718124,0.5831138,1.3978922,-0.5107939,-0.6772414
1747679307.434731,-0.80813456,0.74718124,0.5831138,1.3978922,-0.5107939,-0.6772414
1747679307.4352705,-0.80813456,0.74718124,0.5831138,1.3978922,-0.5107939,-0.6772414
1747679307.437966,-0.80813456,0.74718124,0.5831138,1.3978922,-0.5107939,-0.6772414
1747679307.4385548,-0.78372884,0.754503,0.48353842,1.3904353,-0.68017083,-0.4854939
1747679307.4391167,-0.78372884,0.754503,0.48353842,1.3904353,-0.68017083,-0.4854939
1747679307.4396782,-0.78372884,0.754503,0.48353842,1.3904353,-0.68017083,-0.4854939
1747679307.440251,-0.78372884,0.754503,0.48353842,1.3904353,-0.68017083,-0.4854939
1747679307.4408245,-0.78372884,0.754503,0.48353842,1.3904353,-0.68017083,-0.4854939
1747679307.441399,-0.78372884,0.754503,0.48353842,1.3904353,-0.68017083,-0.4854939
1747679307.44197,-0.78372884,0.754503,0.48353842,1.3904353,-0.68017083,-0.4854939
1747679307.442544,-0.78372884,0.754503,0.48353842,1.3904353,-0.68017083,-0.4854939
1747679307.4431157,-0.78372884,0.754503,0.48353842,1.3904353,-0.68017083,-0.4854939
1747679307.4436877,-0.78372884,0.754503,0.48353842,1.3904353,-0.68017083,-0.4854939
1747679307.4442437,-0.78372884,0.754503,0.48353842,1.3904353,-0.68017083,-0.4854939
1747679307.44482,-0.78372884,0.754503,0.48353842,1.3904353,-0.68017083,-0.4854939
1747679307.4453912,-0.78372884,0.754503,0.48353842,1.3904353,-0.68017083,-0.4854939
1747679307.4459617,-0.78372884,0.754503,0.48353842,1.3904353,-0.68017083,-0.4854939
1747679307.4465337,-0.78372884,0.754503,0.48353842,1.3904353,-0.68017083,-0.4854939
1747679307.4471173,-0.78372884,0.754503,0.48353842,1.3904353,-0.68017083,-0.4854939
1747679307.4476957,-0.78372884,0.754503,0.48353842,1.3904353,-0.68017083,-0.4854939
1747679307.44824,-0.78372884,0.754503,0.48353842,1.3904353,-0.68017083,-0.4854939
1747679307.4488182,-0.78372884,0.754503,0.48353842,1.3904353,-0.68017083,-0.4854939
1747679307.449366,-0.78372884,0.754503,0.48353842,1.3904353,-0.68017083,-0.4854939
1747679307.449889,-0.78372884,0.754503,0.48353842,1.3904353,-0.68017083,-0.4854939
1747679307.450411,-0.78372884,0.754503,0.48353842,1.3904353,-0.68017083,-0.4854939
1747679307.4509325,-0.78372884,0.754503,0.48353842,1.3904353,-0.68017083,-0.4854939
1747679307.4514537,-0.78372884,0.754503,0.48353842,1.3904353,-0.68017083,-0.4854939
1747679307.4519787,-0.78372884,0.754503,0.48353842,1.3904353,-0.68017083,-0.4854939
1747679307.4525025,-0.70709485,0.7427882,0.45083475,1.2785827,-0.74089086,-0.3534012
1747679307.4530241,-0.70709485,0.7427882,0.45083475,1.2785827,-0.74089086,-0.3534012
1747679307.4535782,-0.70709485,0.7427882,0.45083475,1.2785827,-0.74089086,-0.3534012
1747679307.4541495,-0.70709485,0.7427882,0.45083475,1.2785827,-0.74089086,-0.3534012
1747679307.4547305,-0.70709485,0.7427882,0.45083475,1.2785827,-0.74089086,-0.3534012
1747679307.455292,-0.7188096,0.7388833,0.51770645,1.2785827,-0.74089086,-0.3534012
1747679307.4558563,-0.7188096,0.7388833,0.51770645,1.2785827,-0.74089086,-0.3534012
1747679307.4563997,-0.7188096,0.7388833,0.51770645,1.2785827,-0.74089086,-0.3534012
1747679307.4569244,-0.7188096,0.7388833,0.51770645,1.2785827,-0.74089086,-0.3534012
1747679307.457446,-0.7188096,0.7388833,0.51770645,1.2785827,-0.74089086,-0.3534012
1747679307.457969,-0.7188096,0.7388833,0.51770645,1.2785827,-0.74089086,-0.3534012
1747679307.4584985,-0.7188096,0.7388833,0.51770645,1.2785827,-0.74089086,-0.3534012
1747679307.459022,-0.7188096,0.7388833,0.51770645,1.178448,-0.73876035,-0.316117
1747679307.4595437,-0.7188096,0.7388833,0.51770645,1.178448,-0.73876035,-0.316117
1747679307.4600646,-0.7188096,0.7388833,0.51770645,1.178448,-0.73876035,-0.316117
1747679307.4605865,-0.7188096,0.7388833,0.51770645,1.178448,-0.73876035,-0.316117
1747679307.4611077,-0.7188096,0.7388833,0.51770645,1.178448,-0.73876035,-0.316117
1747679307.461629,-0.7188096,0.7388833,0.51770645,1.178448,-0.73876035,-0.316117
1747679307.4621608,-0.7188096,0.7388833,0.51770645,1.178448,-0.73876035,-0.316117
1747679307.462682,-0.7188096,0.7388833,0.51770645,1.178448,-0.73876035,-0.316117
1747679307.463203,-0.7188096,0.7388833,0.51770645,1.178448,-0.73876035,-0.316117
1747679307.4637573,-0.7188096,0.7388833,0.51770645,1.178448,-0.73876035,-0.316117
1747679307.4643483,-0.7188096,0.7388833,0.51770645,1.178448,-0.73876035,-0.316117
1747679307.4649343,-0.7188096,0.7388833,0.51770645,1.178448,-0.73876035,-0.316117
1747679307.465437,-0.7188096,0.7388833,0.51770645,1.178448,-0.73876035,-0.316117
1747679307.4660056,-0.7256432,0.75352675,0.6538904,1.1699258,-0.7930888,-0.27883276
1747679307.4665675,-0.7256432,0.75352675,0.6538904,1.1699258,-0.7930888,-0.27883276
1747679307.4671276,-0.7256432,0.75352675,0.6538904,1.1699258,-0.7930888,-0.27883276
1747679307.4684315,-0.7256432,0.75352675,0.6538904,1.1699258,-0.7930888,-0.27883276
1747679307.4689891,-0.7256432,0.75352675,0.6538904,1.1699258,-0.7930888,-0.27883276
1747679307.4695396,-0.7256432,0.75352675,0.6538904,1.1699258,-0.7930888,-0.27883276
1747679307.4700978,-0.7256432,0.75352675,0.6538904,1.1699258,-0.7930888,-0.27883276
1747679307.4706569,-0.7256432,0.75352675,0.6538904,1.1699258,-0.7930888,-0.27883276
1747679307.4712322,-0.7256432,0.75352675,0.6538904,1.263669,-0.91878986,-0.2777675
1747679307.471803,-0.7256432,0.75352675,0.6538904,1.263669,-0.91878986,-0.2777675
1747679307.4723763,-0.7256432,0.75352675,0.6538904,1.263669,-0.91878986,-0.2777675
1747679307.4729297,-0.7256432,0.75352675,0.6538904,1.263669,-0.91878986,-0.2777675
1747679307.4734905,-0.70026124,0.7403476,0.82765913,1.263669,-0.91878986,-0.2777675
1747679307.4740663,-0.70026124,0.7403476,0.82765913,1.263669,-0.91878986,-0.2777675
1747679307.4746337,-0.70026124,0.7403476,0.82765913,1.263669,-0.91878986,-0.2777675
1747679307.4751675,-0.70026124,0.7403476,0.82765913,1.263669,-0.91878986,-0.2777675
1747679307.4756882,-0.70026124,0.7403476,0.82765913,1.263669,-0.91878986,-0.2777675
1747679307.4762073,-0.70026124,0.7403476,0.82765913,1.263669,-0.91878986,-0.2777675
1747679307.476726,-0.70026124,0.7403476,0.82765913,1.263669,-0.91878986,-0.2777675
1747679307.4772446,-0.70026124,0.7403476,0.82765913,1.263669,-0.91878986,-0.2777675
1747679307.4777634,-0.70026124,0.7403476,0.82765913,1.263669,-0.91878986,-0.2777675
1747679307.4782898,-0.70026124,0.7403476,0.82765913,1.263669,-0.91878986,-0.2777675
1747679307.478809,-0.70026124,0.7403476,0.82765913,1.263669,-0.91878986,-0.2777675
1747679307.4793274,-0.70026124,0.7403476,0.82765913,1.263669,-0.91878986,-0.2777675
1747679307.4798968,-0.70026124,0.7403476,0.82765913,1.263669,-0.91878986,-0.2777675
1747679307.4804544,-0.70026124,0.7403476,0.82765913,1.263669,-0.91878986,-0.2777675
1747679307.4810095,-0.70026124,0.7403476,0.82765913,1.263669,-0.91878986,-0.2777675
1747679307.481567,-0.70026124,0.7403476,0.82765913,1.263669,-0.91878986,-0.2777675
1747679307.4821239,-0.68073666,0.69348866,0.94041365,1.5683343,-1.2767185,-0.29055065
1747679307.4826806,-0.68073666,0.69348866,0.94041365,1.5683343,-1.2767185,-0.29055065
1747679307.4832373,-0.68073666,0.69348866,0.94041365,1.5683343,-1.2767185,-0.29055065
1747679307.4837942,-0.68073666,0.69348866,0.94041365,1.5683343,-1.2767185,-0.29055065
1747679307.4843569,-0.68073666,0.69348866,0.94041365,1.5683343,-1.2767185,-0.29055065
1747679307.4849198,-0.68073666,0.69348866,0.94041365,1.5683343,-1.2767185,-0.29055065
1747679307.485473,-0.68073666,0.69348866,0.94041365,1.5683343,-1.2767185,-0.29055065
1747679307.4860225,-0.68073666,0.69348866,0.94041365,1.5683343,-1.2767185,-0.29055065
1747679307.4865615,-0.68073666,0.69348866,0.94041365,1.5683343,-1.2767185,-0.29055065
1747679307.4871001,-0.68073666,0.69348866,0.94041365,1.5683343,-1.2767185,-0.29055065
1747679307.4876397,-0.68073666,0.69348866,0.94041365,1.5683343,-1.2767185,-0.29055065
1747679307.4881964,-0.68073666,0.69348866,0.94041365,1.5683343,-1.2767185,-0.29055065
1747679307.4887528,-0.68073666,0.69348866,0.94041365,1.5683343,-1.2767185,-0.29055065
1747679307.489317,-0.68073666,0.69348866,0.94041365,1.5683343,-1.2767185,-0.29055065
1747679307.4898596,-0.68073666,0.69348866,0.94041365,1.5683343,-1.2767185,-0.29055065
1747679307.4903836,-0.68073666,0.69348866,0.94041365,1.5683343,-1.2767185,-0.29055065
1747679307.4909058,-0.68073666,0.69348866,0.94041365,1.5683343,-1.2767185,-0.29055065
1747679307.4914277,-0.68073666,0.69348866,0.94041365,1.5683343,-1.2767185,-0.29055065
1747679307.4919488,-0.68073666,0.69348866,0.94041365,1.5683343,-1.2767185,-0.29055065
1747679307.4924703,-0.68073666,0.69348866,0.94041365,1.5683343,-1.2767185,-0.29055065
1747679307.4930084,-0.5635892,0.5778055,0.9882488,1.5683343,-1.2767185,-0.29055065
1747679307.4935684,-0.5635892,0.5778055,0.9882488,1.5683343,-1.2767185,-0.29055065
1747679307.4941454,-0.5635892,0.5778055,0.9882488,1.8868482,-1.553687,-0.29374644
1747679307.494709,-0.5635892,0.5778055,0.9882488,1.8868482,-1.553687,-0.29374644
1747679307.4952672,-0.5635892,0.5778055,0.9882488,1.8868482,-1.553687,-0.29374644
1747679307.4958587,-0.5635892,0.5778055,0.9882488,1.8868482,-1.553687,-0.29374644
1747679307.4963872,-0.5635892,0.5778055,0.9882488,1.8868482,-1.553687,-0.29374644
1747679307.49691,-0.5635892,0.5778055,0.9882488,1.8868482,-1.553687,-0.29374644
1747679307.497432,-0.5635892,0.5778055,0.9882488,1.8868482,-1.553687,-0.29374644
1747679307.4984741,-0.5635892,0.5778055,0.9882488,1.8868482,-1.553687,-0.29374644
1747679307.4990447,-0.5635892,0.5778055,0.9882488,1.8868482,-1.553687,-0.29374644
1747679307.4995794,-0.5635892,0.5778055,0.9882488,1.8868482,-1.553687,-0.29374644
1747679307.5001,-0.5635892,0.5778055,0.9882488,1.8868482,-1.553687,-0.29374644
1747679307.5006511,-0.5635892,0.5778055,0.9882488,1.8868482,-1.553687,-0.29374644
1747679307.5011957,-0.5635892,0.5778055,0.9882488,1.8868482,-1.553687,-0.29374644
1747679307.5017536,-0.5635892,0.5778055,0.9882488,1.8868482,-1.553687,-0.29374644
1747679307.5023167,-0.5635892,0.5778055,0.9882488,1.8868482,-1.553687,-0.29374644
1747679307.5028753,-0.5635892,0.5778055,0.9882488,1.8868482,-1.553687,-0.29374644
1747679307.5034118,-0.5635892,0.5778055,0.9882488,1.8868482,-1.553687,-0.29374644
1747679307.5039546,-0.5635892,0.5778055,0.9882488,1.8868482,-1.553687,-0.29374644
1747679307.5045125,-0.43667942,0.47090846,1.0038685,2.2298632,-1.7816534,-0.34807488
1747679307.5050662,-0.43667942,0.47090846,1.0038685,2.2298632,-1.7816534,-0.34807488
1747679307.5055902,-0.43667942,0.47090846,1.0038685,2.2298632,-1.7816534,-0.34807488
1747679307.5061102,-0.43667942,0.47090846,1.0038685,2.2298632,-1.7816534,-0.34807488
1747679307.5066295,-0.43667942,0.47090846,1.0038685,2.2298632,-1.7816534,-0.34807488
1747679307.5071483,-0.43667942,0.47090846,1.0038685,2.2298632,-1.7816534,-0.34807488
1747679307.5076673,-0.43667942,0.47090846,1.0038685,2.2298632,-1.7816534,-0.34807488
1747679307.5081859,-0.43667942,0.47090846,1.0038685,2.2298632,-1.7816534,-0.34807488
1747679307.5087044,-0.43667942,0.47090846,1.0038685,2.2298632,-1.7816534,-0.34807488
1747679307.5092237,-0.43667942,0.47090846,1.0038685,2.2298632,-1.7816534,-0.34807488
1747679307.5097578,-0.43667942,0.47090846,1.0038685,2.2298632,-1.7816534,-0.34807488
1747679307.5102944,-0.43667942,0.47090846,1.0038685,2.2298632,-1.7816534,-0.34807488
1747679307.5108194,-0.43667942,0.47090846,1.0038685,2.2298632,-1.7816534,-0.34807488
1747679307.5113385,-0.43667942,0.47090846,1.0038685,2.2298632,-1.7816534,-0.34807488
1747679307.5118575,-0.43667942,0.47090846,1.0038685,2.2298632,-1.7816534,-0.34807488
1747679307.5123765,-0.43667942,0.47090846,1.0038685,2.2298632,-1.7816534,-0.34807488
1747679307.5128963,-0.43667942,0.47090846,1.0038685,2.2298632,-1.7816534,-0.34807488
1747679307.5134175,-0.43667942,0.47090846,1.0038685,2.2298632,-1.7816534,-0.34807488
1747679307.5139387,-0.32197252,0.3820716,1.010214,2.2298632,-1.7816534,-0.34807488
1747679307.5144892,-0.32197252,0.3820716,1.010214,2.584596,-2.00962,-0.44820967
1747679307.5150323,-0.32197252,0.3820716,1.010214,2.584596,-2.00962,-0.44820967
1747679307.5155742,-0.32197252,0.3820716,1.010214,2.584596,-2.00962,-0.44820967
1747679307.516103,-0.32197252,0.3820716,1.010214,2.584596,-2.00962,-0.44820967
1747679307.5166326,-0.32197252,0.3820716,1.010214,2.584596,-2.00962,-0.44820967
1747679307.5171738,-0.32197252,0.3820716,1.010214,2.584596,-2.00962,-0.44820967
1747679307.5177221,-0.32197252,0.3820716,1.010214,2.584596,-2.00962,-0.44820967
1747679307.518261,-0.32197252,0.3820716,1.010214,2.584596,-2.00962,-0.44820967
1747679307.5187893,-0.32197252,0.3820716,1.010214,2.584596,-2.00962,-0.44820967
1747679307.5193167,-0.32197252,0.3820716,1.010214,2.584596,-2.00962,-0.44820967
1747679307.5198443,-0.32197252,0.3820716,1.010214,2.584596,-2.00962,-0.44820967
1747679307.5203722,-0.32197252,0.3820716,1.010214,2.584596,-2.00962,-0.44820967
1747679307.5208998,-0.32197252,0.3820716,1.010214,2.584596,-2.00962,-0.44820967
1747679307.5214274,-0.32197252,0.3820716,1.010214,2.584596,-2.00962,-0.44820967
1747679307.5219553,-0.32197252,0.3820716,1.010214,2.584596,-2.00962,-0.44820967
1747679307.522483,-0.32197252,0.3820716,1.010214,2.584596,-2.00962,-0.44820967
1747679307.523011,-0.32197252,0.3820716,1.010214,2.584596,-2.00962,-0.44820967
1747679307.5235445,-0.32197252,0.3820716,1.010214,2.584596,-2.00962,-0.44820967
1747679307.524093,-0.32197252,0.3820716,1.010214,2.584596,-2.00962,-0.44820967
1747679307.5246277,-0.32197252,0.3820716,1.010214,2.584596,-2.00962,-0.44820967
1747679307.5251715,-0.32197252,0.3820716,1.010214,2.584596,-2.00962,-0.44820967
1747679307.5257254,-0.32197252,0.3820716,1.010214,2.584596,-2.00962,-0.44820967
1747679307.526272,-0.32197252,0.3820716,1.010214,2.584596,-2.00962,-0.44820967
1747679307.526816,-0.28926885,0.3405819,0.9877607,2.8722172,-2.180062,-0.5440834
1747679307.527345,-0.28926885,0.3405819,0.9877607,2.8722172,-2.180062,-0.5440834
1747679307.5278964,-0.28926885,0.3405819,0.9877607,2.8722172,-2.180062,-0.5440834
1747679307.5284564,-0.28926885,0.3405819,0.9877607,2.8722172,-2.180062,-0.5440834
1747679307.5289931,-0.28926885,0.3405819,0.9877607,2.8722172,-2.180062,-0.5440834
1747679307.529533,-0.28926885,0.3405819,0.9877607,2.8722172,-2.180062,-0.5440834
1747679307.530072,-0.28926885,0.3405819,0.9877607,2.8722172,-2.180062,-0.5440834
1747679307.530618,-0.28926885,0.3405819,0.9877607,2.8722172,-2.180062,-0.5440834
1747679307.531142,-0.28926885,0.3405819,0.9877607,2.8722172,-2.180062,-0.5440834
1747679307.5316617,-0.28926885,0.3405819,0.9877607,2.8722172,-2.180062,-0.5440834
1747679307.532181,-0.28926885,0.3405819,0.9877607,2.8722172,-2.180062,-0.5440834
1747679307.532716,-0.28926885,0.3405819,0.9877607,2.8722172,-2.180062,-0.5440834
1747679307.5332825,-0.28926885,0.3405819,0.9877607,2.8722172,-2.180062,-0.5440834
1747679307.5338416,-0.28926885,0.3405819,0.9877607,2.8722172,-2.180062,-0.5440834
1747679307.5343935,-0.28926885,0.3405819,0.9877607,2.8722172,-2.180062,-0.5440834
1747679307.5349271,-0.28926885,0.3405819,0.9877607,2.8722172,-2.180062,-0.5440834
1747679307.5354474,-0.28926885,0.3405819,0.9877607,2.8722172,-2.180062,-0.5440834
1747679307.5359674,-0.28926885,0.3405819,0.9877607,2.8722172,-2.180062,-0.5440834
1747679307.5364876,-0.28926885,0.3405819,0.9877607,3.2194932,-2.3750052,-0.6942856
1747679307.537038,-0.28926885,0.3405819,0.9877607,3.2194932,-2.3750052,-0.6942856
1747679307.5375578,-0.2638869,0.28298438,0.937485,3.2194932,-2.3750052,-0.6942856
1747679307.5380769,-0.2638869,0.28298438,0.937485,3.2194932,-2.3750052,-0.6942856
1747679307.5385957,-0.2638869,0.28298438,0.937485,3.2194932,-2.3750052,-0.6942856
1747679307.5391145,-0.2638869,0.28298438,0.937485,3.2194932,-2.3750052,-0.6942856
1747679307.539633,-0.2638869,0.28298438,0.937485,3.2194932,-2.3750052,-0.6942856
1747679307.540152,-0.2638869,0.28298438,0.937485,3.2194932,-2.3750052,-0.6942856
1747679307.5406861,-0.2638869,0.28298438,0.937485,3.2194932,-2.3750052,-0.6942856
1747679307.5412147,-0.2638869,0.28298438,0.937485,3.2194932,-2.3750052,-0.6942856
1747679307.5417352,-0.2638869,0.28298438,0.937485,3.2194932,-2.3750052,-0.6942856
1747679307.542254,-0.2638869,0.28298438,0.937485,3.2194932,-2.3750052,-0.6942856
1747679307.5427725,-0.2638869,0.28298438,0.937485,3.2194932,-2.3750052,-0.6942856
1747679307.543291,-0.2638869,0.28298438,0.937485,3.2194932,-2.3750052,-0.6942856
1747679307.5438285,-0.2638869,0.28298438,0.937485,3.2194932,-2.3750052,-0.6942856
1747679307.544388,-0.2638869,0.28298438,0.937485,3.2194932,-2.3750052,-0.6942856
1747679307.5449321,-0.2638869,0.28298438,0.937485,3.2194932,-2.3750052,-0.6942856
1747679307.5454571,-0.2638869,0.28298438,0.937485,3.2194932,-2.3750052,-0.6942856
1747679307.5459764,-0.2638869,0.28298438,0.937485,3.2194932,-2.3750052,-0.6942856
1747679307.5465012,-0.31172213,0.19512378,0.78128827,3.2194932,-2.3750052,-0.6942856
1747679307.547024,-0.31172213,0.19512378,0.78128827,3.5497248,-2.4559653,-0.84555304
1747679307.5475733,-0.31172213,0.19512378,0.78128827,3.5497248,-2.4559653,-0.84555304
1747679307.5481238,-0.31172213,0.19512378,0.78128827,3.5497248,-2.4559653,-0.84555304
1747679307.5486913,-0.31172213,0.19512378,0.78128827,3.5497248,-2.4559653,-0.84555304
1747679307.5492249,-0.31172213,0.19512378,0.78128827,3.5497248,-2.4559653,-0.84555304
1747679307.549748,-0.31172213,0.19512378,0.78128827,3.5497248,-2.4559653,-0.84555304
1747679307.5502703,-0.31172213,0.19512378,0.78128827,3.5497248,-2.4559653,-0.84555304
1747679307.5508032,-0.31172213,0.19512378,0.78128827,3.5497248,-2.4559653,-0.84555304
1747679307.5513258,-0.31172213,0.19512378,0.78128827,3.5497248,-2.4559653,-0.84555304
1747679307.5518475,-0.31172213,0.19512378,0.78128827,3.5497248,-2.4559653,-0.84555304
1747679307.5523694,-0.31172213,0.19512378,0.78128827,3.5497248,-2.4559653,-0.84555304
1747679307.5528917,-0.31172213,0.19512378,0.78128827,3.6818175,-2.3867233,-0.8711193
1747679307.5534139,-0.31172213,0.19512378,0.78128827,3.6818175,-2.3867233,-0.8711193
1747679307.553958,-0.37273642,0.14533609,0.6538904,3.6818175,-2.3867233,-0.8711193
1747679307.554503,-0.37273642,0.14533609,0.6538904,3.6818175,-2.3867233,-0.8711193
1747679307.5550272,-0.37273642,0.14533609,0.6538904,3.6818175,-2.3867233,-0.8711193
1747679307.555577,-0.37273642,0.14533609,0.6538904,3.6818175,-2.3867233,-0.8711193
1747679307.5561407,-0.37273642,0.14533609,0.6538904,3.6818175,-2.3867233,-0.8711193
1747679307.5566788,-0.37273642,0.14533609,0.6538904,3.6818175,-2.3867233,-0.8711193
1747679307.5572112,-0.37273642,0.14533609,0.6538904,3.6818175,-2.3867233,-0.8711193
1747679307.5577598,-0.37273642,0.14533609,0.6538904,3.6818175,-2.3867233,-0.8711193
1747679307.5583036,-0.37273642,0.14533609,0.6538904,3.6818175,-2.3867233,-0.8711193
1747679307.5588276,-0.37273642,0.14533609,0.6538904,3.6818175,-2.3867233,-0.8711193
1747679307.5593495,-0.37273642,0.14533609,0.6538904,3.6818175,-2.3867233,-0.8711193
1747679307.5598712,-0.37273642,0.14533609,0.6538904,3.6818175,-2.3867233,-0.8711193
1747679307.5604212,-0.37273642,0.14533609,0.6538904,3.6818175,-2.3867233,-0.8711193
1747679307.560943,-0.37273642,0.14533609,0.6538904,3.6818175,-2.3867233,-0.8711193
1747679307.5614648,-0.37273642,0.14533609,0.6538904,3.6818175,-2.3867233,-0.8711193
1747679307.5619872,-0.37273642,0.14533609,0.6538904,3.7436028,-2.0671442,-0.81892145
1747679307.562509,-0.37273642,0.14533609,0.6538904,3.7436028,-2.0671442,-0.81892145
1747679307.563031,-0.47377613,0.106286936,0.46889502,3.7436028,-2.0671442,-0.81892145
1747679307.563566,-0.47377613,0.106286936,0.46889502,3.7436028,-2.0671442,-0.81892145
1747679307.5641403,-0.47377613,0.106286936,0.46889502,3.7436028,-2.0671442,-0.81892145
1747679307.5646935,-0.47377613,0.106286936,0.46889502,3.7436028,-2.0671442,-0.81892145
1747679307.5657008,-0.47377613,0.106286936,0.46889502,3.7436028,-2.0671442,-0.81892145
1747679307.5662231,-0.47377613,0.106286936,0.46889502,3.7436028,-2.0671442,-0.81892145
1747679307.566742,-0.47377613,0.106286936,0.46889502,3.7436028,-2.0671442,-0.81892145
1747679307.5672612,-0.47377613,0.106286936,0.46889502,3.7436028,-2.0671442,-0.81892145
1747679307.56778,-0.47377613,0.106286936,0.46889502,3.7436028,-2.0671442,-0.81892145
1747679307.568299,-0.47377613,0.106286936,0.46889502,3.7436028,-2.0671442,-0.81892145
1747679307.568818,-0.47377613,0.106286936,0.46889502,3.7436028,-2.0671442,-0.81892145
1747679307.569337,-0.47377613,0.106286936,0.46889502,3.7436028,-2.0671442,-0.81892145
1747679307.5698552,-0.47377613,0.106286936,0.46889502,3.7436028,-2.0671442,-0.81892145
1747679307.5703733,-0.47377613,0.106286936,0.46889502,3.7436028,-2.0671442,-0.81892145
1747679307.5709584,-0.47377613,0.106286936,0.46889502,3.7436028,-2.0671442,-0.81892145
1747679307.5715027,-0.47377613,0.106286936,0.46889502,3.7436028,-2.0671442,-0.81892145
1747679307.5720315,-0.47377613,0.106286936,0.46889502,3.7436028,-2.0671442,-0.81892145
1747679307.5725536,-0.47377613,0.106286936,0.46889502,3.7436028,-2.0671442,-0.81892145
1747679307.5730755,-0.47377613,0.106286936,0.46889502,3.7436028,-2.0671442,-0.81892145
1747679307.5736115,-0.47377613,0.106286936,0.46889502,3.7436028,-2.0671442,-0.81892145
1747679307.5741556,-0.5611486,0.080416866,0.3619979,3.7627776,-1.7454345,-0.68256766
1747679307.5746772,-0.5611486,0.080416866,0.3619979,3.7627776,-1.7454345,-0.68256766
1747679307.5751967,-0.5611486,0.080416866,0.3619979,3.7627776,-1.7454345,-0.68256766
1747679307.5757155,-0.5611486,0.080416866,0.3619979,3.7627776,-1.7454345,-0.68256766
1747679307.5762346,-0.5611486,0.080416866,0.3619979,3.7627776,-1.7454345,-0.68256766
1747679307.5767534,-0.5611486,0.080416866,0.3619979,3.7627776,-1.7454345,-0.68256766
1747679307.5772722,-0.5611486,0.080416866,0.3619979,3.7627776,-1.7454345,-0.68256766
1747679307.5777907,-0.5611486,0.080416866,0.3619979,3.7627776,-1.7454345,-0.68256766
1747679307.5783255,-0.5611486,0.080416866,0.3619979,3.7627776,-1.7454345,-0.68256766
1747679307.5788844,-0.5611486,0.080416866,0.3619979,3.7627776,-1.7454345,-0.68256766
1747679307.5794344,-0.5611486,0.080416866,0.3619979,3.7627776,-1.7454345,-0.68256766
1747679307.579968,-0.5611486,0.080416866,0.3619979,3.7627776,-1.7454345,-0.68256766
1747679307.5804884,-0.5611486,0.080416866,0.3619979,3.7627776,-1.7454345,-0.68256766
1747679307.5810084,-0.5611486,0.080416866,0.3619979,3.7627776,-1.7454345,-0.68256766
1747679307.5815272,-0.5611486,0.080416866,0.3619979,3.7627776,-1.7454345,-0.68256766
1747679307.5820465,-0.5611486,0.080416866,0.3619979,3.7627776,-1.7454345,-0.68256766
1747679307.5825663,-0.5611486,0.080416866,0.3619979,3.812845,-1.5579481,-0.56006235
1747679307.5830853,-0.5611486,0.080416866,0.3619979,3.812845,-1.5579481,-0.56006235
1747679307.5836048,-0.5611486,0.080416866,0.3619979,3.812845,-1.5579481,-0.56006235
1747679307.5841575,-0.5611486,0.080416866,0.3619979,3.812845,-1.5579481,-0.56006235
1747679307.5847037,-0.5899474,0.06674966,0.2838996,3.812845,-1.5579481,-0.56006235
1747679307.585236,-0.5899474,0.06674966,0.2838996,3.812845,-1.5579481,-0.56006235
1747679307.5857892,-0.5899474,0.06674966,0.2838996,3.812845,-1.5579481,-0.56006235
1747679307.5864344,-0.5899474,0.06674966,0.2838996,3.812845,-1.5579481,-0.56006235
1747679307.5869584,-0.5899474,0.06674966,0.2838996,3.812845,-1.5579481,-0.56006235
1747679307.5875044,-0.5899474,0.06674966,0.2838996,3.812845,-1.5579481,-0.56006235
1747679307.5880687,-0.5899474,0.06674966,0.2838996,3.812845,-1.5579481,-0.56006235
1747679307.5885944,-0.5899474,0.06674966,0.2838996,3.812845,-1.5579481,-0.56006235
1747679307.5891144,-0.5899474,0.06674966,0.2838996,3.812845,-1.5579481,-0.56006235
1747679307.5896335,-0.5899474,0.06674966,0.2838996,3.812845,-1.5579481,-0.56006235
1747679307.5901525,-0.5899474,0.06674966,0.2838996,3.812845,-1.5579481,-0.56006235
1747679307.5906715,-0.5899474,0.06674966,0.2838996,3.812845,-1.5579481,-0.56006235
1747679307.5911906,-0.5899474,0.06674966,0.2838996,3.812845,-1.5579481,-0.56006235
1747679307.5917094,-0.5899474,0.06674966,0.2838996,3.812845,-1.5579481,-0.56006235
1747679307.5922284,-0.5899474,0.06674966,0.2838996,3.812845,-1.5579481,-0.56006235
1747679307.5927467,-0.5899474,0.06674966,0.2838996,3.812845,-1.5579481,-0.56006235
1747679307.5932853,-0.6636527,0.042343933,0.18041931,4.015245,-1.513207,-0.44820967
1747679307.5938365,-0.6636527,0.042343933,0.18041931,4.015245,-1.513207,-0.44820967
1747679307.5943768,-0.6636527,0.042343933,0.18041931,4.015245,-1.513207,-0.44820967
1747679307.5949411,-0.6636527,0.042343933,0.18041931,4.015245,-1.513207,-0.44820967
1747679307.5954926,-0.6636527,0.042343933,0.18041931,4.015245,-1.513207,-0.44820967
1747679307.5960267,-0.6636527,0.042343933,0.18041931,4.015245,-1.513207,-0.44820967
1747679307.5965471,-0.6636527,0.042343933,0.18041931,4.015245,-1.513207,-0.44820967
1747679307.5970664,-0.6636527,0.042343933,0.18041931,4.015245,-1.513207,-0.44820967
1747679307.5975854,-0.6636527,0.042343933,0.18041931,4.015245,-1.513207,-0.44820967
1747679307.5981045,-0.6636527,0.042343933,0.18041931,4.015245,-1.513207,-0.44820967
1747679307.598627,-0.6636527,0.042343933,0.18041931,4.015245,-1.513207,-0.44820967
1747679307.599146,-0.6636527,0.042343933,0.18041931,4.015245,-1.513207,-0.44820967
1747679307.599665,-0.6636527,0.042343933,0.18041931,4.015245,-1.513207,-0.44820967
1747679307.6001837,-0.6636527,0.042343933,0.18041931,4.015245,-1.513207,-0.44820967
1747679307.6007028,-0.6636527,0.042343933,0.18041931,4.015245,-1.513207,-0.44820967
1747679307.6012404,-0.6636527,0.042343933,0.18041931,4.015245,-1.513207,-0.44820967
1747679307.6017795,-0.8042296,0.051618107,0.0032337585,4.3369546,-1.848765,-0.4364918
1747679307.6023011,-0.8042296,0.051618107,0.0032337585,4.3369546,-1.848765,-0.4364918
1747679307.6028209,-0.8042296,0.051618107,0.0032337585,4.3369546,-1.848765,-0.4364918
1747679307.6033728,-0.8042296,0.051618107,0.0032337585,4.3369546,-1.848765,-0.4364918
1747679307.6039312,-0.8042296,0.051618107,0.0032337585,4.3369546,-1.848765,-0.4364918
1747679307.6044538,-0.8042296,0.051618107,0.0032337585,4.3369546,-1.848765,-0.4364918
1747679307.6049733,-0.8042296,0.051618107,0.0032337585,4.3369546,-1.848765,-0.4364918
1747679307.605492,-0.8042296,0.051618107,0.0032337585,4.3369546,-1.848765,-0.4364918
1747679307.6060114,-0.8042296,0.051618107,0.0032337585,4.3369546,-1.848765,-0.4364918
1747679307.60653,-0.8042296,0.051618107,0.0032337585,4.3369546,-1.848765,-0.4364918
1747679307.6070487,-0.8042296,0.051618107,0.0032337585,4.3369546,-1.848765,-0.4364918
1747679307.6075675,-0.8042296,0.051618107,0.0032337585,4.3369546,-1.848765,-0.4364918
1747679307.6080863,-0.8042296,0.051618107,0.0032337585,4.3369546,-1.848765,-0.4364918
1747679307.6086047,-0.8042296,0.051618107,0.0032337585,4.3369546,-1.848765,-0.4364918
1747679307.6091235,-0.8042296,0.051618107,0.0032337585,4.3369546,-1.848765,-0.4364918
1747679307.6096423,-0.8042296,0.051618107,0.0032337585,4.3369546,-1.848765,-0.4364918
1747679307.610173,-0.8042296,0.051618107,0.0032337585,4.3369546,-1.848765,-0.4364918
1747679307.6107285,-0.8042296,0.051618107,0.0032337585,4.3369546,-1.848765,-0.4364918
1747679307.6112788,-0.8042296,0.051618107,0.0032337585,4.3369546,-1.848765,-0.4364918
1747679307.6118124,-0.8042296,0.051618107,0.0032337585,4.3369546,-1.848765,-0.4364918
1747679307.6123345,-0.8042296,0.051618107,0.0032337585,4.3369546,-1.848765,-0.4364918
1747679307.6128561,-0.8042296,0.051618107,0.0032337585,4.501005,-2.1726053,-0.42903492
1747679307.6133754,-0.8042296,0.051618107,0.0032337585,4.501005,-2.1726053,-0.42903492
1747679307.6139133,-0.8042296,0.051618107,0.0032337585,4.501005,-2.1726053,-0.42903492
1747679307.6144547,-0.8042296,0.051618107,0.0032337585,4.501005,-2.1726053,-0.42903492
1747679307.6149762,-0.8042296,0.051618107,0.0032337585,4.501005,-2.1726053,-0.42903492
1747679307.6154952,-0.8042296,0.051618107,0.0032337585,4.501005,-2.1726053,-0.42903492
1747679307.6160586,-0.8042296,0.051618107,0.0032337585,4.501005,-2.1726053,-0.42903492
1747679307.616623,-0.8042296,0.051618107,0.0032337585,4.501005,-2.1726053,-0.42903492
1747679307.6171732,-0.8042296,0.051618107,0.0032337585,4.501005,-2.1726053,-0.42903492
1747679307.617714,-0.8042296,0.051618107,0.0032337585,4.501005,-2.1726053,-0.42903492
1747679307.618248,-0.8042296,0.051618107,0.0032337585,4.501005,-2.1726053,-0.42903492
1747679307.6187682,-0.8042296,0.051618107,0.0032337585,4.501005,-2.1726053,-0.42903492
1747679307.6192873,-0.8042296,0.051618107,0.0032337585,4.501005,-2.1726053,-0.42903492
1747679307.619806,-0.8042296,0.051618107,0.0032337585,4.501005,-2.1726053,-0.42903492
1747679307.6203249,-0.8042296,0.051618107,0.0032337585,4.501005,-2.1726053,-0.42903492
1747679307.620847,-0.8042296,0.051618107,0.0032337585,4.501005,-2.1726053,-0.42903492
1747679307.6213686,-0.8042296,0.051618107,0.0032337585,4.501005,-2.1726053,-0.42903492
1747679307.6218877,-0.8042296,0.051618107,0.0032337585,4.501005,-2.1726053,-0.42903492
1747679307.622407,-0.8042296,0.051618107,0.0032337585,4.501005,-2.1726053,-0.42903492
1747679307.6229258,-0.8042296,0.051618107,0.0032337585,4.501005,-2.1726053,-0.42903492
1747679307.6234446,-0.8042296,0.051618107,0.0032337585,4.501005,-2.1726053,-0.42903492
1747679307.623997,-0.8042296,0.051618107,0.0032337585,4.501005,-2.1726053,-0.42903492
1747679307.6245625,-0.8042296,0.051618107,0.0032337585,4.501005,-2.1726053,-0.42903492
1747679307.6250932,-1.2088765,0.063820966,-0.64644665,4.553203,-2.903376,-0.25646222
1747679307.625613,-1.2088765,0.063820966,-0.64644665,4.553203,-2.903376,-0.25646222
1747679307.6261475,-1.2088765,0.063820966,-0.64644665,4.553203,-2.903376,-0.25646222
1747679307.6267118,-1.2088765,0.063820966,-0.64644665,4.553203,-2.903376,-0.25646222
1747679307.627263,-1.2088765,0.063820966,-0.64644665,4.553203,-2.903376,-0.25646222
1747679307.6277964,-1.2088765,0.063820966,-0.64644665,4.553203,-2.903376,-0.25646222
1747679307.6283166,-1.2088765,0.063820966,-0.64644665,4.553203,-2.903376,-0.25646222
1747679307.628836,-1.2088765,0.063820966,-0.64644665,4.553203,-2.903376,-0.25646222
1747679307.6293554,-1.2088765,0.063820966,-0.64644665,4.553203,-2.903376,-0.25646222
1747679307.6298745,-1.2088765,0.063820966,-0.64644665,4.553203,-2.903376,-0.25646222
1747679307.6303933,-1.2088765,0.063820966,-0.64644665,4.553203,-2.903376,-0.25646222
1747679307.630912,-1.2088765,0.063820966,-0.64644665,4.553203,-2.903376,-0.25646222
1747679307.6314483,-1.2088765,0.063820966,-0.64644665,4.553203,-2.903376,-0.25646222
1747679307.6319976,-1.2088765,0.063820966,-0.64644665,4.553203,-2.903376,-0.25646222
1747679307.632559,-1.2088765,0.063820966,-0.64644665,4.553203,-2.903376,-0.25646222
1747679307.633118,-1.2088765,0.063820966,-0.64644665,4.553203,-2.903376,-0.25646222
1747679307.6336687,-1.2088765,0.063820966,-0.64644665,4.553203,-2.903376,-0.25646222
1747679307.6342304,-1.2088765,0.063820966,-0.64644665,4.553203,-2.903376,-0.25646222
1747679307.6347892,-1.2088765,0.063820966,-0.64644665,4.553203,-2.903376,-0.25646222
1747679307.6353502,-1.2386516,0.0647972,-1.032057,4.201666,-3.2921972,0.07163898
1747679307.6359057,-1.2386516,0.0647972,-1.032057,4.201666,-3.2921972,0.07163898
1747679307.6364596,-1.2386516,0.0647972,-1.032057,4.201666,-3.2921972,0.07163898
1747679307.6370132,-1.2386516,0.0647972,-1.032057,4.201666,-3.2921972,0.07163898
1747679307.6375852,-1.2386516,0.0647972,-1.032057,4.201666,-3.2921972,0.07163898
1747679307.638133,-1.2386516,0.0647972,-1.032057,4.201666,-3.2921972,0.07163898
1747679307.6386838,-1.2386516,0.0647972,-1.032057,4.201666,-3.2921972,0.07163898
1747679307.6392488,-1.2386516,0.0647972,-1.032057,4.201666,-3.2921972,0.07163898
1747679307.639806,-1.2386516,0.0647972,-1.032057,4.201666,-3.2921972,0.07163898
1747679307.6403537,-1.2386516,0.0647972,-1.032057,4.201666,-3.2921972,0.07163898
1747679307.640905,-1.2386516,0.0647972,-1.032057,4.201666,-3.2921972,0.07163898
1747679307.6414776,-1.2386516,0.0647972,-1.032057,4.201666,-3.2921972,0.07163898
1747679307.6420279,-1.2386516,0.0647972,-1.032057,4.201666,-3.2921972,0.07163898
1747679307.6425805,-1.2386516,0.0647972,-1.032057,4.201666,-3.2921972,0.07163898
1747679307.6431315,-1.2386516,0.0647972,-1.032057,4.201666,-3.2921972,0.07163898
1747679307.6436925,-1.2386516,0.0647972,-1.032057,4.201666,-3.2921972,0.07163898
1747679307.6442485,-1.2386516,0.0647972,-1.032057,4.201666,-3.2921972,0.07163898
1747679307.644806,-1.2386516,0.0647972,-1.032057,4.201666,-3.2921972,0.07163898
1747679307.6453545,-1.2386516,0.0647972,-1.032057,4.201666,-3.2921972,0.07163898
1747679307.6458917,-1.0492631,0.09115539,-1.2936865,3.5039184,-3.2197595,0.41145808
1747679307.6465893,-1.0492631,0.09115539,-1.2936865,3.5039184,-3.2197595,0.41145808
1747679307.6471465,-1.0492631,0.09115539,-1.2936865,3.5039184,-3.2197595,0.41145808
1747679307.647704,-1.0492631,0.09115539,-1.2936865,3.5039184,-3.2197595,0.41145808
1747679307.648266,-1.0492631,0.09115539,-1.2936865,3.5039184,-3.2197595,0.41145808
1747679307.648814,-1.0492631,0.09115539,-1.2936865,3.5039184,-3.2197595,0.41145808
1747679307.6493657,-1.0492631,0.09115539,-1.2936865,3.5039184,-3.2197595,0.41145808
1747679307.649927,-1.0492631,0.09115539,-1.2936865,3.5039184,-3.2197595,0.41145808
1747679307.6510901,-1.0492631,0.09115539,-1.2936865,3.5039184,-3.2197595,0.41145808
1747679307.6517158,-1.0492631,0.09115539,-1.2936865,3.5039184,-3.2197595,0.41145808
1747679307.6522708,-1.0492631,0.09115539,-1.2936865,3.5039184,-3.2197595,0.41145808
1747679307.6528287,-1.0492631,0.09115539,-1.2936865,3.5039184,-3.2197595,0.41145808
1747679307.6534932,-1.0492631,0.09115539,-1.2936865,3.5039184,-3.2197595,0.41145808
1747679307.655175,-1.0492631,0.09115539,-1.2936865,3.5039184,-3.2197595,0.41145808
1747679307.657541,-1.0492631,0.09115539,-1.2936865,3.5039184,-3.2197595,0.41145808
1747679307.6581156,-1.0492631,0.09115539,-1.2936865,3.5039184,-3.2197595,0.41145808
1747679307.6586754,-1.0492631,0.09115539,-1.2936865,3.5039184,-3.2197595,0.41145808
1747679307.659232,-1.0492631,0.09115539,-1.2936865,3.5039184,-3.2197595,0.41145808
1747679307.659858,-1.0492631,0.09115539,-1.2936865,3.5039184,-3.2197595,0.41145808
1747679307.6604571,-1.0492631,0.09115539,-1.2936865,3.5039184,-3.2197595,0.41145808
1747679307.6610153,-1.0492631,0.09115539,-1.2936865,3.5039184,-3.2197595,0.41145808
1747679307.6617482,-0.6763437,0.17071804,-1.4010717,2.4333284,-2.5102937,0.6724477
1747679307.6623313,-0.6763437,0.17071804,-1.4010717,2.4333284,-2.5102937,0.6724477
1747679307.6636539,-0.6763437,0.17071804,-1.4010717,2.4333284,-2.5102937,0.6724477
1747679307.664292,-0.47084746,0.23417293,-1.3971667,2.4333284,-2.5102937,0.6724477
1747679307.6648567,-0.47084746,0.23417293,-1.3971667,2.4333284,-2.5102937,0.6724477
1747679307.6656713,-0.47084746,0.23417293,-1.3971667,2.4333284,-2.5102937,0.6724477
1747679307.6659365,-0.47084746,0.23417293,-1.3971667,1.5001575,-1.497228,0.7331677
1747679307.666498,-0.47084746,0.23417293,-1.3971667,1.5001575,-1.497228,0.7331677
1747679307.6670547,-0.47084746,0.23417293,-1.3971667,1.5001575,-1.497228,0.7331677
1747679307.6676068,-0.47084746,0.23417293,-1.3971667,1.5001575,-1.497228,0.7331677
1747679307.668161,-0.47084746,0.23417293,-1.3971667,1.5001575,-1.497228,0.7331677
1747679307.668716,-0.47084746,0.23417293,-1.3971667,1.5001575,-1.497228,0.7331677
1747679307.6692674,-0.47084746,0.23417293,-1.3971667,1.5001575,-1.497228,0.7331677
1747679307.6698148,-0.47084746,0.23417293,-1.3971667,1.5001575,-1.497228,0.7331677
1747679307.6703534,-0.47084746,0.23417293,-1.3971667,1.5001575,-1.497228,0.7331677
1747679307.6708891,-0.47084746,0.23417293,-1.3971667,1.5001575,-1.497228,0.7331677
1747679307.6714249,-0.47084746,0.23417293,-1.3971667,1.5001575,-1.497228,0.7331677
1747679307.6719606,-0.47084746,0.23417293,-1.3971667,1.5001575,-1.497228,0.7331677
1747679307.6724958,-0.47084746,0.23417293,-1.3971667,1.5001575,-1.497228,0.7331677
1747679307.6730359,-0.28585204,0.30446142,-1.2892934,0.6511424,-0.3499391,0.6884266
1747679307.6736724,-0.28585204,0.30446142,-1.2892934,0.6511424,-0.3499391,0.6884266
1747679307.6742325,-0.28585204,0.30446142,-1.2892934,0.6511424,-0.3499391,0.6884266
1747679307.6747763,-0.28585204,0.30446142,-1.2892934,0.6511424,-0.3499391,0.6884266
1747679307.6753025,-0.28585204,0.30446142,-1.2892934,0.6511424,-0.3499391,0.6884266
1747679307.675825,-0.28585204,0.30446142,-1.2892934,0.6511424,-0.3499391,0.6884266
1747679307.676348,-0.28585204,0.30446142,-1.2892934,0.6511424,-0.3499391,0.6884266
1747679307.676968,-0.28585204,0.30446142,-1.2892934,0.6511424,-0.3499391,0.6884266
1747679307.6775198,-0.28585204,0.30446142,-1.2892934,0.6511424,-0.3499391,0.6884266
1747679307.6780584,-0.28585204,0.30446142,-1.2892934,0.6511424,-0.3499391,0.6884266
1747679307.6786025,-0.28585204,0.30446142,-1.2892934,0.6511424,-0.3499391,0.6884266
1747679307.6791515,-0.28585204,0.30446142,-1.2892934,0.6511424,-0.3499391,0.6884266
1747679307.6797047,-0.28585204,0.30446142,-1.2892934,0.6511424,-0.3499391,0.6884266
1747679307.680241,-0.28585204,0.30446142,-1.2892934,0.6511424,-0.3499391,0.6884266
1747679307.6807806,-0.28585204,0.30446142,-1.2892934,0.6511424,-0.3499391,0.6884266
1747679307.681326,-0.28585204,0.30446142,-1.2892934,0.6511424,-0.3499391,0.6884266
1747679307.6818907,-0.28585204,0.30446142,-1.2892934,0.6511424,-0.3499391,0.6884266
1747679307.682458,-0.25851765,0.36303517,-1.1218702,0.6511424,-0.3499391,0.6884266
1747679307.6830752,-0.25851765,0.36303517,-1.1218702,0.6511424,-0.3499391,0.6884266
1747679307.6844788,-0.25851765,0.36303517,-1.1218702,0.14088112,0.5789708,0.5925529
1747679307.68519,-0.25851765,0.36303517,-1.1218702,0.14088112,0.5789708,0.5925529
1747679307.6857471,-0.25851765,0.36303517,-1.1218702,0.14088112,0.5789708,0.5925529
1747679307.6863003,-0.25851765,0.36303517,-1.1218702,0.14088112,0.5789708,0.5925529
1747679307.6869009,-0.25851765,0.36303517,-1.1218702,0.14088112,0.5789708,0.5925529
1747679307.6874652,-0.25851765,0.36303517,-1.1218702,0.14088112,0.5789708,0.5925529
1747679307.6880872,-0.25851765,0.36303517,-1.1218702,0.14088112,0.5789708,0.5925529
1747679307.688674,-0.25851765,0.36303517,-1.1218702,0.14088112,0.5789708,0.5925529
1747679307.6892347,-0.25851765,0.36303517,-1.1218702,0.14088112,0.5789708,0.5925529
1747679307.6897953,-0.25851765,0.36303517,-1.1218702,0.14088112,0.5789708,0.5925529
1747679307.6903434,-0.25851765,0.36303517,-1.1218702,0.14088112,0.5789708,0.5925529
1747679307.6909294,-0.25851765,0.36303517,-1.1218702,0.14088112,0.5789708,0.5925529
1747679307.6914806,-0.25851765,0.36303517,-1.1218702,0.14088112,0.5789708,0.5925529
1747679307.6920512,-0.25851765,0.36303517,-1.1218702,0.14088112,0.5789708,0.5925529
1747679307.6925964,-0.25851765,0.36303517,-1.1218702,0.14088112,0.5789708,0.5925529
1747679307.693143,-0.25851765,0.36303517,-1.1218702,0.14088112,0.5789708,0.5925529
1747679307.6937437,-0.25851765,0.36303517,-1.1218702,0.14088112,0.5789708,0.5925529
1747679307.6942792,-0.40251142,0.43234742,-0.8021552,-0.1105211,1.7646092,0.55846447
1747679307.6948085,-0.40251142,0.43234742,-0.8021552,-0.1105211,1.7646092,0.55846447
1747679307.6953375,-0.40251142,0.43234742,-0.8021552,-0.1105211,1.7646092,0.55846447
1747679307.6958663,-0.40251142,0.43234742,-0.8021552,-0.1105211,1.7646092,0.55846447
1747679307.6964061,-0.40251142,0.43234742,-0.8021552,-0.1105211,1.7646092,0.55846447
1747679307.696949,-0.40251142,0.43234742,-0.8021552,-0.1105211,1.7646092,0.55846447
1747679307.697478,-0.40251142,0.43234742,-0.8021552,-0.1105211,1.7646092,0.55846447
1747679307.6980464,-0.40251142,0.43234742,-0.8021552,-0.1105211,1.7646092,0.55846447
1747679307.6985707,-0.40251142,0.43234742,-0.8021552,-0.1105211,1.7646092,0.55846447
1747679307.6991637,-0.40251142,0.43234742,-0.8021552,-0.1105211,1.7646092,0.55846447
1747679307.699708,-0.40251142,0.43234742,-0.8021552,-0.1105211,1.7646092,0.55846447
1747679307.7002652,-0.40251142,0.43234742,-0.8021552,-0.1105211,1.7646092,0.55846447
1747679307.7008266,-0.40251142,0.43234742,-0.8021552,-0.1105211,1.7646092,0.55846447
1747679307.7014046,-0.40251142,0.43234742,-0.8021552,-0.1105211,1.7646092,0.55846447
1747679307.7019565,-0.40251142,0.43234742,-0.8021552,-0.1105211,1.7646092,0.55846447
1747679307.7025528,-0.40251142,0.43234742,-0.8021552,-0.1105211,1.7646092,0.55846447
1747679307.7031252,-0.5230757,0.4997072,-0.6249696,0.15259902,2.1374514,0.682035
1747679307.7036586,-0.5230757,0.4997072,-0.6249696,0.15259902,2.1374514,0.682035
1747679307.704224,-0.5230757,0.4997072,-0.6249696,0.15259902,2.1374514,0.682035
1747679307.7048116,-0.5230757,0.4997072,-0.6249696,0.15259902,2.1374514,0.682035
1747679307.7053728,-0.5230757,0.4997072,-0.6249696,0.15259902,2.1374514,0.682035
1747679307.7059329,-0.5230757,0.4997072,-0.6249696,0.15259902,2.1374514,0.682035
1747679307.7064912,-0.5230757,0.4997072,-0.6249696,0.15259902,2.1374514,0.682035
1747679307.7070389,-0.5230757,0.4997072,-0.6249696,0.15259902,2.1374514,0.682035
1747679307.7076426,-0.5230757,0.4997072,-0.6249696,0.15259902,2.1374514,0.682035
1747679307.7082539,-0.5230757,0.4997072,-0.6249696,0.15259902,2.1374514,0.682035
1747679307.708748,-0.5230757,0.4997072,-0.6249696,0.15259902,2.1374514,0.682035
1747679307.7092953,-0.5230757,0.4997072,-0.6249696,0.15259902,2.1374514,0.682035
1747679307.7099118,-0.5230757,0.4997072,-0.6249696,0.15259902,2.1374514,0.682035
1747679307.7104626,-0.5230757,0.4997072,-0.6249696,0.15259902,2.1374514,0.682035
1747679307.7110522,-0.5230757,0.4997072,-0.6249696,0.15259902,2.1374514,0.682035
1747679307.7115679,-0.5230757,0.4997072,-0.6249696,0.15259902,2.1374514,0.682035
1747679307.7120972,-0.5230757,0.4997072,-0.6249696,0.15259902,2.1374514,0.682035
1747679307.7126374,-0.5230757,0.4997072,-0.6249696,0.15259902,2.1374514,0.682035
1747679307.7131658,-0.5230757,0.4997072,-0.6249696,0.15259902,2.1374514,0.682035
1747679307.7137058,-0.5230757,0.4997072,-0.6249696,0.15259902,2.1374514,0.682035
1747679307.7142591,-0.5230757,0.4997072,-0.6249696,0.15259902,2.1374514,0.682035
1747679307.71478,-0.5230757,0.4997072,-0.6249696,0.15259902,2.1374514,0.682035
1747679307.7153163,-0.4718237,0.5802461,-0.5649315,0.15259902,2.1374514,0.682035
1747679307.7158453,-0.4718237,0.5802461,-0.5649315,0.15259902,2.1374514,0.682035
1747679307.7163892,-0.4718237,0.5802461,-0.5649315,1.1006837,2.0032282,1.0058752
1747679307.7169359,-0.4718237,0.5802461,-0.5649315,1.1006837,2.0032282,1.0058752
1747679307.7174468,-0.4718237,0.5802461,-0.5649315,1.1006837,2.0032282,1.0058752
1747679307.717995,-0.4718237,0.5802461,-0.5649315,1.1006837,2.0032282,1.0058752
1747679307.7185266,-0.4718237,0.5802461,-0.5649315,1.1006837,2.0032282,1.0058752
1747679307.71904,-0.4718237,0.5802461,-0.5649315,1.1006837,2.0032282,1.0058752
1747679307.7197926,-0.4718237,0.5802461,-0.5649315,1.1006837,2.0032282,1.0058752
1747679307.7203572,-0.4718237,0.5802461,-0.5649315,1.1006837,2.0032282,1.0058752
1747679307.7208993,-0.4718237,0.5802461,-0.5649315,1.1006837,2.0032282,1.0058752
1747679307.7214308,-0.4718237,0.5802461,-0.5649315,1.1006837,2.0032282,1.0058752
1747679307.721946,-0.4718237,0.5802461,-0.5649315,1.1006837,2.0032282,1.0058752
1747679307.722508,-0.4718237,0.5802461,-0.5649315,1.1006837,2.0032282,1.0058752
1747679307.7230828,-0.4718237,0.5802461,-0.5649315,1.1006837,2.0032282,1.0058752
1747679307.7236497,-0.4718237,0.5802461,-0.5649315,1.1006837,2.0032282,1.0058752
1747679307.7242048,-0.4718237,0.5802461,-0.5649315,1.1006837,2.0032282,1.0058752
1747679307.7247522,-0.4718237,0.5802461,-0.5649315,1.1006837,2.0032282,1.0058752
1747679307.7253065,-0.4718237,0.5802461,-0.5649315,1.1006837,2.0032282,1.0058752
1747679307.7258658,-0.4718237,0.5802461,-0.5649315,1.1006837,2.0032282,1.0058752
1747679307.7264302,-0.4718237,0.5802461,-0.5649315,1.1006837,2.0032282,1.0058752
1747679307.7270007,-0.4718237,0.5802461,-0.5649315,1.1006837,2.0032282,1.0058752
1747679307.727514,-0.3044004,0.6168547,-0.7889761,1.7142755,1.6729965,1.1124016
1747679307.7280793,-0.3044004,0.6168547,-0.7889761,1.7142755,1.6729965,1.1124016
1747679307.7286353,-0.3044004,0.6168547,-0.7889761,1.7142755,1.6729965,1.1124016
1747679307.7291903,-0.3044004,0.6168547,-0.7889761,1.7142755,1.6729965,1.1124016
1747679307.7297437,-0.3044004,0.6168547,-0.7889761,1.7142755,1.6729965,1.1124016
1747679307.7303064,-0.3044004,0.6168547,-0.7889761,1.7142755,1.6729965,1.1124016
1747679307.7308638,-0.3044004,0.6168547,-0.7889761,1.7142755,1.6729965,1.1124016
1747679307.7314312,-0.3044004,0.6168547,-0.7889761,1.7142755,1.6729965,1.1124016
1747679307.731975,-0.3044004,0.6168547,-0.7889761,1.7142755,1.6729965,1.1124016
1747679307.732529,-0.3044004,0.6168547,-0.7889761,1.7142755,1.6729965,1.1124016
1747679307.7330868,-0.3044004,0.6168547,-0.7889761,1.7142755,1.6729965,1.1124016
1747679307.733644,-0.3044004,0.6168547,-0.7889761,1.7142755,1.6729965,1.1124016
1747679307.7342024,-0.037889887,0.5616978,-1.513338,2.7656908,0.7249119,1.0175931
1747679307.7347567,-0.037889887,0.5616978,-1.513338,2.7656908,0.7249119,1.0175931
1747679307.7353246,-0.037889887,0.5616978,-1.513338,2.7656908,0.7249119,1.0175931
1747679307.735997,-0.037889887,0.5616978,-1.513338,2.7656908,0.7249119,1.0175931
1747679307.7365613,-0.037889887,0.5616978,-1.513338,2.7656908,0.7249119,1.0175931
1747679307.7371159,-0.037889887,0.5616978,-1.513338,2.7656908,0.7249119,1.0175931
1747679307.7376373,-0.037889887,0.5616978,-1.513338,2.7656908,0.7249119,1.0175931
1747679307.738489,-0.037889887,0.5616978,-1.513338,2.7656908,0.7249119,1.0175931
1747679307.73906,-0.037889887,0.5616978,-1.513338,2.7656908,0.7249119,1.0175931
1747679307.7396262,-0.037889887,0.5616978,-1.513338,2.7656908,0.7249119,1.0175931
1747679307.7401865,-0.037889887,0.5616978,-1.513338,2.7656908,0.7249119,1.0175931
1747679307.7407324,-0.037889887,0.5616978,-1.513338,2.7656908,0.7249119,1.0175931
1747679307.7412791,-0.037889887,0.5616978,-1.513338,2.7656908,0.7249119,1.0175931
1747679307.7418265,-0.037889887,0.5616978,-1.513338,2.7656908,0.7249119,1.0175931
1747679307.7423735,-0.037889887,0.5616978,-1.513338,2.7656908,0.7249119,1.0175931
1747679307.742919,-0.037889887,0.5616978,-1.513338,2.7656908,0.7249119,1.0175931
1747679307.7434685,-0.037889887,0.5616978,-1.513338,2.7656908,0.7249119,1.0175931
1747679307.7440104,-0.037889887,0.5616978,-1.513338,2.7656908,0.7249119,1.0175931
1747679307.7445579,-0.037889887,0.5616978,-1.513338,2.7656908,0.7249119,1.0175931
1747679307.7450972,-0.037889887,0.5616978,-1.513338,2.7656908,0.7249119,1.0175931
1747679307.7456493,-0.037889887,0.5616978,-1.513338,3.2141666,-0.2508696,0.71612346
1747679307.7461715,-0.037889887,0.5616978,-1.513338,3.2141666,-0.2508696,0.71612346
1747679307.746701,-0.037889887,0.5616978,-1.513338,3.2141666,-0.2508696,0.71612346
1747679307.747237,-0.050580863,0.4933617,-2.1713161,3.2141666,-0.2508696,0.71612346
1747679307.7477663,-0.050580863,0.4933617,-2.1713161,3.2141666,-0.2508696,0.71612346
1747679307.7482948,-0.050580863,0.4933617,-2.1713161,3.2141666,-0.2508696,0.71612346
1747679307.748835,-0.050580863,0.4933617,-2.1713161,3.2141666,-0.2508696,0.71612346
1747679307.749364,-0.050580863,0.4933617,-2.1713161,3.2141666,-0.2508696,0.71612346
1747679307.7499044,-0.050580863,0.4933617,-2.1713161,3.2141666,-0.2508696,0.71612346
1747679307.7504416,-0.050580863,0.4933617,-2.1713161,3.2141666,-0.2508696,0.71612346
1747679307.7510104,-0.050580863,0.4933617,-2.1713161,3.2141666,-0.2508696,0.71612346
1747679307.7516491,-0.050580863,0.4933617,-2.1713161,3.2141666,-0.2508696,0.71612346
1747679307.7522013,-0.050580863,0.4933617,-2.1713161,3.2141666,-0.2508696,0.71612346
1747679307.752751,-0.050580863,0.4933617,-2.1713161,3.2141666,-0.2508696,0.71612346
1747679307.7533088,-0.050580863,0.4933617,-2.1713161,3.2141666,-0.2508696,0.71612346
1747679307.7538555,-0.050580863,0.4933617,-2.1713161,3.2141666,-0.2508696,0.71612346
1747679307.754406,-0.050580863,0.4933617,-2.1713161,3.2141666,-0.2508696,0.71612346
1747679307.7549572,-0.050580863,0.4933617,-2.1713161,3.2141666,-0.2508696,0.71612346
1747679307.7555075,-0.050580863,0.4933617,-2.1713161,3.2141666,-0.2508696,0.71612346
1747679307.7560577,-0.050580863,0.4933617,-2.1713161,3.2141666,-0.2508696,0.71612346
1747679307.7566094,-0.050580863,0.4933617,-2.1713161,3.2141666,-0.2508696,0.71612346
1747679307.7572188,-0.050580863,0.4933617,-2.1713161,3.2141666,-0.2508696,0.71612346
1747679307.7577193,-0.12086935,0.323986,-2.8776178,3.1726215,-1.335308,0.47963494
1747679307.7582688,-0.12086935,0.323986,-2.8776178,3.1726215,-1.335308,0.47963494
1747679307.7588203,-0.12086935,0.323986,-2.8776178,3.1726215,-1.335308,0.47963494
1747679307.7593696,-0.12086935,0.323986,-2.8776178,3.1726215,-1.335308,0.47963494
1747679307.7599196,-0.12086935,0.323986,-2.8776178,3.1726215,-1.335308,0.47963494
1747679307.7604697,-0.12086935,0.323986,-2.8776178,3.1726215,-1.335308,0.47963494
1747679307.761022,-0.12086935,0.323986,-2.8776178,3.1726215,-1.335308,0.47963494
1747679307.7615721,-0.12086935,0.323986,-2.8776178,3.1726215,-1.335308,0.47963494
1747679307.7621236,-0.12086935,0.323986,-2.8776178,3.1726215,-1.335308,0.47963494
1747679307.7626736,-0.12086935,0.323986,-2.8776178,3.1726215,-1.335308,0.47963494
1747679307.7632651,-0.12086935,0.323986,-2.8776178,3.1726215,-1.335308,0.47963494
1747679307.7638001,-0.025687024,0.017450092,-3.567324,2.3715432,-2.599776,0.28682223
1747679307.7643797,-0.025687024,0.017450092,-3.567324,2.3715432,-2.599776,0.28682223
1747679307.7649262,-0.025687024,0.017450092,-3.567324,2.3715432,-2.599776,0.28682223
1747679307.7654705,-0.025687024,0.017450092,-3.567324,2.3715432,-2.599776,0.28682223
1747679307.7659948,-0.025687024,0.017450092,-3.567324,2.3715432,-2.599776,0.28682223
1747679307.7665513,-0.025687024,0.017450092,-3.567324,2.3715432,-2.599776,0.28682223
1747679307.767113,-0.025687024,0.017450092,-3.567324,2.3715432,-2.599776,0.28682223
1747679307.7676797,-0.025687024,0.017450092,-3.567324,2.3715432,-2.599776,0.28682223
1747679307.768292,-0.025687024,0.017450092,-3.567324,2.3715432,-2.599776,0.28682223
1747679307.768886,-0.025687024,0.017450092,-3.567324,2.3715432,-2.599776,0.28682223
1747679307.769478,-0.025687024,0.017450092,-3.567324,2.3715432,-2.599776,0.28682223
1747679307.7700086,-0.025687024,0.017450092,-3.567324,2.3715432,-2.599776,0.28682223
1747679307.770568,-0.025687024,0.017450092,-3.567324,2.3715432,-2.599776,0.28682223
1747679307.7711265,-0.025687024,0.017450092,-3.567324,2.3715432,-2.599776,0.28682223
1747679307.7716641,-0.025687024,0.017450092,-3.567324,2.3715432,-2.599776,0.28682223
1747679307.7721968,-0.025687024,0.017450092,-3.567324,2.3715432,-2.599776,0.28682223
1747679307.772733,0.070471525,-0.07626789,-3.7830706,2.3715432,-2.599776,0.28682223
1747679307.773269,0.070471525,-0.07626789,-3.7830706,1.4319806,-3.1153636,0.10679268
1747679307.7738209,0.070471525,-0.07626789,-3.7830706,1.4319806,-3.1153636,0.10679268
1747679307.7743702,0.070471525,-0.07626789,-3.7830706,1.4319806,-3.1153636,0.10679268
1747679307.7749212,0.070471525,-0.07626789,-3.7830706,1.4319806,-3.1153636,0.10679268
1747679307.7754736,0.070471525,-0.07626789,-3.7830706,1.4319806,-3.1153636,0.10679268
1747679307.7760253,0.070471525,-0.07626789,-3.7830706,1.4319806,-3.1153636,0.10679268
1747679307.776577,0.070471525,-0.07626789,-3.7830706,1.4319806,-3.1153636,0.10679268
1747679307.777127,0.070471525,-0.07626789,-3.7830706,1.4319806,-3.1153636,0.10679268
1747679307.7776816,0.070471525,-0.07626789,-3.7830706,1.4319806,-3.1153636,0.10679268
1747679307.7782326,0.070471525,-0.07626789,-3.7830706,1.4319806,-3.1153636,0.10679268
1747679307.7787843,0.070471525,-0.07626789,-3.7830706,1.4319806,-3.1153636,0.10679268
1747679307.779335,0.070471525,-0.07626789,-3.7830706,1.4319806,-3.1153636,0.10679268
1747679307.779892,0.070471525,-0.07626789,-3.7830706,1.4319806,-3.1153636,0.10679268
1747679307.780438,0.070471525,-0.07626789,-3.7830706,1.4319806,-3.1153636,0.10679268
1747679307.7809842,0.070471525,-0.07626789,-3.7830706,1.4319806,-3.1153636,0.10679268
1747679307.7815332,0.070471525,-0.07626789,-3.7830706,1.4319806,-3.1153636,0.10679268
1747679307.7820845,0.070471525,-0.07626789,-3.7830706,1.4319806,-3.1153636,0.10679268
1747679307.7826366,0.070471525,-0.07626789,-3.7830706,1.4319806,-3.1153636,0.10679268
1747679307.7831876,0.053387526,-0.053814627,-3.5780623,1.4319806,-3.1153636,0.10679268
1747679307.7837405,0.053387526,-0.053814627,-3.5780623,-0.15952323,-3.250652,-0.14247902
1747679307.7843583,0.053387526,-0.053814627,-3.5780623,-0.15952323,-3.250652,-0.14247902
1747679307.7849147,0.053387526,-0.053814627,-3.5780623,-0.15952323,-3.250652,-0.14247902
1747679307.7854767,0.053387526,-0.053814627,-3.5780623,-0.15952323,-3.250652,-0.14247902
1747679307.7860076,0.053387526,-0.053814627,-3.5780623,-0.15952323,-3.250652,-0.14247902
1747679307.78656,0.053387526,-0.053814627,-3.5780623,-0.15952323,-3.250652,-0.14247902
1747679307.7871115,0.053387526,-0.053814627,-3.5780623,-0.15952323,-3.250652,-0.14247902
1747679307.7876632,0.053387526,-0.053814627,-3.5780623,-0.15952323,-3.250652,-0.14247902
1747679307.7882147,0.053387526,-0.053814627,-3.5780623,-0.15952323,-3.250652,-0.14247902
1747679307.7888021,0.053387526,-0.053814627,-3.5780623,-0.15952323,-3.250652,-0.14247902
1747679307.7893531,0.053387526,-0.053814627,-3.5780623,-0.15952323,-3.250652,-0.14247902
1747679307.789904,0.053387526,-0.053814627,-3.5780623,-0.15952323,-3.250652,-0.14247902
1747679307.7904918,0.053387526,-0.053814627,-3.5780623,-0.15952323,-3.250652,-0.14247902
1747679307.7910454,0.053387526,-0.053814627,-3.5780623,-0.15952323,-3.250652,-0.14247902
1747679307.7915943,0.053387526,-0.053814627,-3.5780623,-0.15952323,-3.250652,-0.14247902
1747679307.792146,0.0070166457,-0.08017281,-3.2027023,-0.15952323,-3.250652,-0.14247902
1747679307.7926974,0.0070166457,-0.08017281,-3.2027023,-0.15952323,-3.250652,-0.14247902
1747679307.7932487,0.0070166457,-0.08017281,-3.2027023,-0.15952323,-3.250652,-0.14247902
1747679307.7938032,0.0070166457,-0.08017281,-3.2027023,-1.0649973,-3.0578394,-0.26391906
1747679307.7943316,0.0070166457,-0.08017281,-3.2027023,-1.0649973,-3.0578394,-0.26391906
1747679307.7948759,0.0070166457,-0.08017281,-3.2027023,-1.0649973,-3.0578394,-0.26391906
1747679307.7954013,0.0070166457,-0.08017281,-3.2027023,-1.0649973,-3.0578394,-0.26391906
1747679307.7959208,0.0070166457,-0.08017281,-3.2027023,-1.0649973,-3.0578394,-0.26391906
1747679307.7964401,0.0070166457,-0.08017281,-3.2027023,-1.0649973,-3.0578394,-0.26391906
1747679307.7969584,0.0070166457,-0.08017281,-3.2027023,-1.0649973,-3.0578394,-0.26391906
1747679307.797506,0.0070166457,-0.08017281,-3.2027023,-1.0649973,-3.0578394,-0.26391906
1747679307.79806,0.0070166457,-0.08017281,-3.2027023,-1.0649973,-3.0578394,-0.26391906
1747679307.7986164,0.0070166457,-0.08017281,-3.2027023,-1.0649973,-3.0578394,-0.26391906
1747679307.7991707,0.0070166457,-0.08017281,-3.2027023,-1.0649973,-3.0578394,-0.26391906
1747679307.7997236,0.0070166457,-0.08017281,-3.2027023,-1.0649973,-3.0578394,-0.26391906
1747679307.800252,0.0070166457,-0.08017281,-3.2027023,-1.0649973,-3.0578394,-0.26391906
1747679307.8008087,0.0070166457,-0.08017281,-3.2027023,-1.0649973,-3.0578394,-0.26391906
1747679307.8013773,0.0070166457,-0.08017281,-3.2027023,-1.0649973,-3.0578394,-0.26391906
1747679307.8019114,0.0070166457,-0.08017281,-3.2027023,-1.0649973,-3.0578394,-0.26391906
1747679307.802434,0.0070166457,-0.08017281,-3.2027023,-1.0649973,-3.0578394,-0.26391906
1747679307.802956,-0.102321,-0.16119981,-2.6530852,-1.8627466,-2.7350645,-0.34594437
1747679307.803508,-0.102321,-0.16119981,-2.6530852,-1.8627466,-2.7350645,-0.34594437
1747679307.8040695,-0.102321,-0.16119981,-2.6530852,-1.8627466,-2.7350645,-0.34594437
1747679307.804599,-0.102321,-0.16119981,-2.6530852,-1.8627466,-2.7350645,-0.34594437
1747679307.8051198,-0.102321,-0.16119981,-2.6530852,-1.8627466,-2.7350645,-0.34594437
1747679307.8056383,-0.102321,-0.16119981,-2.6530852,-1.8627466,-2.7350645,-0.34594437
1747679307.8061574,-0.102321,-0.16119981,-2.6530852,-1.8627466,-2.7350645,-0.34594437
1747679307.8066761,-0.102321,-0.16119981,-2.6530852,-1.8627466,-2.7350645,-0.34594437
1747679307.8071954,-0.102321,-0.16119981,-2.6530852,-1.8627466,-2.7350645,-0.34594437
1747679307.8077142,-0.102321,-0.16119981,-2.6530852,-1.8627466,-2.7350645,-0.34594437
1747679307.808233,-0.102321,-0.16119981,-2.6530852,-1.8627466,-2.7350645,-0.34594437
1747679307.8087516,-0.102321,-0.16119981,-2.6530852,-1.8627466,-2.7350645,-0.34594437
1747679307.8092706,-0.102321,-0.16119981,-2.6530852,-1.8627466,-2.7350645,-0.34594437
1747679307.809789,-0.102321,-0.16119981,-2.6530852,-1.8627466,-2.7350645,-0.34594437
1747679307.8103075,-0.102321,-0.16119981,-2.6530852,-1.8627466,-2.7350645,-0.34594437
1747679307.810826,-0.102321,-0.16119981,-2.6530852,-1.8627466,-2.7350645,-0.34594437
1747679307.8113441,-0.102321,-0.16119981,-2.6530852,-1.8627466,-2.7350645,-0.34594437
1747679307.811863,-0.102321,-0.16119981,-2.6530852,-1.8627466,-2.7350645,-0.34594437
1747679307.8123834,-0.102321,-0.16119981,-2.6530852,-1.8627466,-2.7350645,-0.34594437
1747679307.812905,-0.102321,-0.16119981,-2.6530852,-1.8627466,-2.7350645,-0.34594437
1747679307.8134377,-0.102321,-0.16119981,-2.6530852,-1.8627466,-2.7350645,-0.34594437
1747679307.8139977,-0.39665404,-0.14021088,-1.9404383,-2.2058947,-2.1981716,-0.20319904
1747679307.8146138,-0.39665404,-0.14021088,-1.9404383,-2.2058947,-2.1981716,-0.20319904
1747679307.815147,-0.39665404,-0.14021088,-1.9404383,-2.2058947,-2.1981716,-0.20319904
1747679307.8156674,-0.39665404,-0.14021088,-1.9404383,-2.2058947,-2.1981716,-0.20319904
1747679307.816187,-0.39665404,-0.14021088,-1.9404383,-2.2058947,-2.1981716,-0.20319904
1747679307.8167057,-0.39665404,-0.14021088,-1.9404383,-2.2058947,-2.1981716,-0.20319904
1747679307.8172252,-0.39665404,-0.14021088,-1.9404383,-2.2058947,-2.1981716,-0.20319904
1747679307.8177438,-0.39665404,-0.14021088,-1.9404383,-2.2058947,-2.1981716,-0.20319904
1747679307.8182626,-0.39665404,-0.14021088,-1.9404383,-2.2058947,-2.1981716,-0.20319904
1747679307.8187814,-0.39665404,-0.14021088,-1.9404383,-2.2058947,-2.1981716,-0.20319904
1747679307.8193002,-0.39665404,-0.14021088,-1.9404383,-2.2058947,-2.1981716,-0.20319904
1747679307.8198187,-0.39665404,-0.14021088,-1.9404383,-2.2058947,-2.1981716,-0.20319904
1747679307.8203368,-0.39665404,-0.14021088,-1.9404383,-2.2058947,-2.1981716,-0.20319904
1747679307.8208554,-0.39665404,-0.14021088,-1.9404383,-2.2058947,-2.1981716,-0.20319904
1747679307.821374,-0.39665404,-0.14021088,-1.9404383,-2.2058947,-2.1981716,-0.20319904
1747679307.8218935,-0.39665404,-0.14021088,-1.9404383,-2.2058947,-2.1981716,-0.20319904
1747679307.8224125,-0.3307586,-0.1572949,-1.645129,-2.2058947,-2.1981716,-0.20319904
1747679307.8229315,-0.3307586,-0.1572949,-1.645129,-2.2058947,-2.1981716,-0.20319904
1747679307.8234522,-0.3307586,-0.1572949,-1.645129,-2.2058947,-2.1981716,-0.20319904
1747679307.8239732,-0.3307586,-0.1572949,-1.645129,-2.2058947,-2.1981716,-0.20319904
1747679307.8245237,-0.3307586,-0.1572949,-1.645129,-2.2058947,-2.1981716,-0.20319904
1747679307.8250802,-0.3307586,-0.1572949,-1.645129,-2.2058947,-2.1981716,-0.20319904
1747679307.8256035,-0.3307586,-0.1572949,-1.645129,-2.2058947,-2.1981716,-0.20319904
1747679307.8261225,-0.3307586,-0.1572949,-1.645129,-2.2058947,-2.1981716,-0.20319904
1747679307.8266413,-0.3307586,-0.1572949,-1.645129,-2.2058947,-2.1981716,-0.20319904
1747679307.8271601,-0.3307586,-0.1572949,-1.645129,-2.2058947,-2.1981716,-0.20319904
1747679307.8276787,-0.3307586,-0.1572949,-1.645129,-2.2058947,-2.1981716,-0.20319904
1747679307.8281977,-0.3307586,-0.1572949,-1.645129,-2.2058947,-2.1981716,-0.20319904
1747679307.8287163,-0.3307586,-0.1572949,-1.645129,-2.2058947,-2.1981716,-0.20319904
1747679307.829247,-0.3307586,-0.1572949,-1.645129,-2.2058947,-2.1981716,-0.20319904
1747679307.829846,-0.3307586,-0.1572949,-1.645129,-2.2058947,-2.1981716,-0.20319904
1747679307.8303716,-0.3307586,-0.1572949,-1.645129,-2.2058947,-2.1981716,-0.20319904
1747679307.830926,-0.3307586,-0.1572949,-1.645129,-2.2058947,-2.1981716,-0.20319904
1747679307.8314826,-0.3307586,-0.1572949,-1.645129,-2.2058947,-2.1981716,-0.20319904
1747679307.8320227,-0.3307586,-0.1572949,-1.645129,-2.2058947,-2.1981716,-0.20319904
1747679307.832549,-0.3307586,-0.1572949,-1.645129,-2.2058947,-2.1981716,-0.20319904
1747679307.8330724,-0.3307586,-0.1572949,-1.645129,-2.2058947,-2.1981716,-0.20319904
1747679307.8336258,-0.3307586,-0.1572949,-1.645129,-2.2058947,-2.1981716,-0.20319904
1747679307.8341901,-0.17602628,-0.25296533,-1.402536,-2.2058947,-2.1981716,-0.20319904
1747679307.8348095,-0.17602628,-0.25296533,-1.402536,-2.2058947,-2.1981716,-0.20319904
1747679307.8353543,-0.17602628,-0.25296533,-1.402536,-2.2058947,-2.1981716,-0.20319904
1747679307.8358862,-0.17602628,-0.25296533,-1.402536,-2.2058947,-2.1981716,-0.20319904
1747679307.836449,-0.17602628,-0.25296533,-1.402536,-1.9054903,-2.3515694,0.18562219
1747679307.83697,-0.17602628,-0.25296533,-1.402536,-1.9054903,-2.3515694,0.18562219
1747679307.8375275,-0.17602628,-0.25296533,-1.402536,-1.9054903,-2.3515694,0.18562219
1747679307.8380475,-0.17602628,-0.25296533,-1.402536,-1.9054903,-2.3515694,0.18562219
1747679307.838567,-0.17602628,-0.25296533,-1.402536,-1.9054903,-2.3515694,0.18562219
1747679307.839086,-0.17602628,-0.25296533,-1.402536,-1.9054903,-2.3515694,0.18562219
1747679307.839605,-0.17602628,-0.25296533,-1.402536,-1.9054903,-2.3515694,0.18562219
1747679307.840124,-0.17602628,-0.25296533,-1.402536,-1.9054903,-2.3515694,0.18562219
1747679307.8406422,-0.17602628,-0.25296533,-1.402536,-1.9054903,-2.3515694,0.18562219
1747679307.841161,-0.17602628,-0.25296533,-1.402536,-1.9054903,-2.3515694,0.18562219
1747679307.8416796,-0.17602628,-0.25296533,-1.402536,-1.9054903,-2.3515694,0.18562219
1747679307.8421984,-0.17602628,-0.25296533,-1.402536,-1.9054903,-2.3515694,0.18562219
1747679307.8427172,-0.17602628,-0.25296533,-1.402536,-1.9054903,-2.3515694,0.18562219
1747679307.8432357,-0.17602628,-0.25296533,-1.402536,-1.9054903,-2.3515694,0.18562219
1747679307.8438313,-0.17602628,-0.25296533,-1.402536,-1.9054903,-2.3515694,0.18562219
1747679307.8443754,-0.17602628,-0.25296533,-1.402536,-1.9054903,-2.3515694,0.18562219
1747679307.8449237,-0.17602628,-0.25296533,-1.402536,-1.9054903,-2.3515694,0.18562219
1747679307.8455,-0.0349612,-0.31251532,-1.3146753,-1.9054903,-2.3515694,0.18562219
1747679307.846069,-0.0349612,-0.31251532,-1.3146753,-1.9054903,-2.3515694,0.18562219
1747679307.8466299,-0.0349612,-0.31251532,-1.3146753,-1.9054903,-2.3515694,0.18562219
1747679307.8471723,-0.0349612,-0.31251532,-1.3146753,-1.9054903,-2.3515694,0.18562219
1747679307.8477135,-0.0349612,-0.31251532,-1.3146753,-1.9054903,-2.3515694,0.18562219
1747679307.8482685,-0.0349612,-0.31251532,-1.3146753,-1.6784561,-2.6743443,0.2527338
1747679307.8488436,-0.0349612,-0.31251532,-1.3146753,-1.6784561,-2.6743443,0.2527338
1747679307.849404,-0.0349612,-0.31251532,-1.3146753,-1.6784561,-2.6743443,0.2527338
1747679307.8499467,-0.0349612,-0.31251532,-1.3146753,-1.6784561,-2.6743443,0.2527338
1747679307.8505113,-0.0349612,-0.31251532,-1.3146753,-1.6784561,-2.6743443,0.2527338
1747679307.8510811,-0.0349612,-0.31251532,-1.3146753,-1.6784561,-2.6743443,0.2527338
1747679307.8516414,-0.0349612,-0.31251532,-1.3146753,-1.6784561,-2.6743443,0.2527338
1747679307.8521998,-0.0349612,-0.31251532,-1.3146753,-1.6784561,-2.6743443,0.2527338
1747679307.8527672,-0.0349612,-0.31251532,-1.3146753,-1.6784561,-2.6743443,0.2527338
1747679307.8533256,-0.0349612,-0.31251532,-1.3146753,-1.6784561,-2.6743443,0.2527338
1747679307.853895,-0.0349612,-0.31251532,-1.3146753,-1.6784561,-2.6743443,0.2527338
1747679307.8544645,-0.0349612,-0.31251532,-1.3146753,-1.6784561,-2.6743443,0.2527338
1747679307.8550143,0.0660785,-0.41062632,-1.325414,-1.6784561,-2.6743443,0.2527338
1747679307.8555768,0.0660785,-0.41062632,-1.325414,-1.5037528,-3.230412,0.35073805
1747679307.8561318,0.0660785,-0.41062632,-1.325414,-1.5037528,-3.230412,0.35073805
1747679307.856714,0.0660785,-0.41062632,-1.325414,-1.5037528,-3.230412,0.35073805
1747679307.85727,0.0660785,-0.41062632,-1.325414,-1.5037528,-3.230412,0.35073805
1747679307.8578231,0.0660785,-0.41062632,-1.325414,-1.5037528,-3.230412,0.35073805
1747679307.8583813,0.0660785,-0.41062632,-1.325414,-1.5037528,-3.230412,0.35073805
1747679307.8589156,0.0660785,-0.41062632,-1.325414,-1.5037528,-3.230412,0.35073805
1747679307.859459,0.0660785,-0.41062632,-1.325414,-1.5037528,-3.230412,0.35073805
1747679307.8600504,0.0660785,-0.41062632,-1.325414,-1.5037528,-3.230412,0.35073805
1747679307.860636,0.0660785,-0.41062632,-1.325414,-1.5037528,-3.230412,0.35073805
1747679307.8611834,0.0660785,-0.41062632,-1.325414,-1.5037528,-3.230412,0.35073805
1747679307.861737,0.0660785,-0.41062632,-1.325414,-1.5037528,-3.230412,0.35073805
1747679307.86227,0.0660785,-0.41062632,-1.325414,-1.5037528,-3.230412,0.35073805
1747679307.862818,0.0660785,-0.41062632,-1.325414,-1.5037528,-3.230412,0.35073805
1747679307.8633559,0.0660785,-0.41062632,-1.325414,-1.5037528,-3.230412,0.35073805
1747679307.863893,0.0660785,-0.41062632,-1.325414,-1.5037528,-3.230412,0.35073805
1747679307.8644383,0.0660785,-0.41062632,-1.325414,-1.5037528,-3.230412,0.35073805
1747679307.8649979,0.0660785,-0.41062632,-1.325414,-1.5037528,-3.230412,0.35073805
1747679307.865555,0.0660785,-0.41062632,-1.325414,-1.5037528,-3.230412,0.35073805
1747679307.86607,0.0660785,-0.41062632,-1.325414,-1.5037528,-3.230412,0.35073805
1747679307.8665984,0.16907066,-0.52972627,-1.3029606,-1.568867,-3.6373427,0.4199802
1747679307.8671188,0.16907066,-0.52972627,-1.3029606,-1.568867,-3.6373427,0.4199802
1747679307.8676383,0.16907066,-0.52972627,-1.3029606,-1.568867,-3.6373427,0.4199802
1747679307.868157,0.16907066,-0.52972627,-1.3029606,-1.568867,-3.6373427,0.4199802
1747679307.868676,0.16907066,-0.52972627,-1.3029606,-1.568867,-3.6373427,0.4199802
1747679307.8691947,0.16907066,-0.52972627,-1.3029606,-1.568867,-3.6373427,0.4199802
1747679307.8697135,0.16907066,-0.52972627,-1.3029606,-1.568867,-3.6373427,0.4199802
1747679307.8702323,0.16907066,-0.52972627,-1.3029606,-1.568867,-3.6373427,0.4199802
1747679307.870751,0.16907066,-0.52972627,-1.3029606,-1.568867,-3.6373427,0.4199802
1747679307.8712754,0.25937185,-0.6463856,-1.2136357,-1.568867,-3.6373427,0.4199802
1747679307.871797,0.25937185,-0.6463856,-1.2136357,-1.775395,-3.8706355,0.4785697
1747679307.8723161,0.25937185,-0.6463856,-1.2136357,-1.775395,-3.8706355,0.4785697
1747679307.872835,0.25937185,-0.6463856,-1.2136357,-1.775395,-3.8706355,0.4785697
1747679307.8733537,0.25937185,-0.6463856,-1.2136357,-1.775395,-3.8706355,0.4785697
1747679307.8738723,0.25937185,-0.6463856,-1.2136357,-1.775395,-3.8706355,0.4785697
1747679307.8744059,0.25937185,-0.6463856,-1.2136357,-1.775395,-3.8706355,0.4785697
1747679307.8749576,0.25937185,-0.6463856,-1.2136357,-1.775395,-3.8706355,0.4785697
1747679307.8755026,0.25937185,-0.6463856,-1.2136357,-1.775395,-3.8706355,0.4785697
1747679307.8760517,0.25937185,-0.6463856,-1.2136357,-1.775395,-3.8706355,0.4785697
1747679307.876595,0.25937185,-0.6463856,-1.2136357,-1.775395,-3.8706355,0.4785697
1747679307.8771553,0.25937185,-0.6463856,-1.2136357,-1.775395,-3.8706355,0.4785697
1747679307.877707,0.25937185,-0.6463856,-1.2136357,-1.775395,-3.8706355,0.4785697
1747679307.8782446,0.25937185,-0.6463856,-1.2136357,-1.775395,-3.8706355,0.4785697
1747679307.878768,0.25937185,-0.6463856,-1.2136357,-1.775395,-3.8706355,0.4785697
1747679307.8792903,0.25937185,-0.6463856,-1.2136357,-1.775395,-3.8706355,0.4785697
1747679307.8798132,0.25937185,-0.6463856,-1.2136357,-1.775395,-3.8706355,0.4785697
1747679307.8803356,0.25937185,-0.6463856,-1.2136357,-1.775395,-3.8706355,0.4785697
1747679307.8808582,0.25937185,-0.6463856,-1.2136357,-1.775395,-3.8706355,0.4785697
1747679307.88138,0.25937185,-0.6463856,-1.2136357,-1.775395,-3.8706355,0.4785697
1747679307.8819284,0.3194099,-0.767438,-0.980317,-2.0811257,-3.8823533,0.56166023
1747679307.8824732,0.3194099,-0.767438,-0.980317,-2.0811257,-3.8823533,0.56166023
1747679307.883016,0.3194099,-0.767438,-0.980317,-2.0811257,-3.8823533,0.56166023
1747679307.8835566,0.3194099,-0.767438,-0.980317,-2.0811257,-3.8823533,0.56166023
1747679307.8840995,0.3194099,-0.767438,-0.980317,-2.0811257,-3.8823533,0.56166023
1747679307.88464,0.3194099,-0.767438,-0.980317,-2.0811257,-3.8823533,0.56166023
1747679307.885173,0.3194099,-0.767438,-0.980317,-2.0811257,-3.8823533,0.56166023
1747679307.8857057,0.3194099,-0.767438,-0.980317,-2.0811257,-3.8823533,0.56166023
1747679307.8862386,0.3194099,-0.767438,-0.980317,-2.0811257,-3.8823533,0.56166023
1747679307.8867736,0.3194099,-0.767438,-0.980317,-2.0811257,-3.8823533,0.56166023
1747679307.887307,0.3194099,-0.767438,-0.980317,-2.0811257,-3.8823533,0.56166023
1747679307.8878274,0.3194099,-0.767438,-0.980317,-2.0811257,-3.8823533,0.56166023
1747679307.8883467,0.3194099,-0.767438,-0.980317,-2.0811257,-3.8823533,0.56166023
1747679307.8888655,0.3194099,-0.767438,-0.980317,-2.0811257,-3.8823533,0.56166023
1747679307.8893845,0.3194099,-0.767438,-0.980317,-2.0811257,-3.8823533,0.56166023
1747679307.889903,0.3194099,-0.767438,-0.980317,-2.0811257,-3.8823533,0.56166023
1747679307.8904576,0.3194099,-0.767438,-0.980317,-2.0811257,-3.8823533,0.56166023
1747679307.8910127,0.3194099,-0.767438,-0.980317,-2.0811257,-3.8823533,0.56166023
1747679307.8915682,0.3194099,-0.767438,-0.980317,-2.0811257,-3.8823533,0.56166023
1747679307.8921354,0.3194099,-0.767438,-0.980317,-2.0811257,-3.8823533,0.56166023
1747679307.8934472,0.3194099,-0.767438,-0.980317,-2.0811257,-3.8823533,0.56166023
1747679307.8940363,0.3194099,-0.767438,-0.980317,-2.248372,-3.7992628,0.6394245
1747679307.8945844,0.3194099,-0.767438,-0.980317,-2.248372,-3.7992628,0.6394245
1747679307.8951185,0.3194099,-0.767438,-0.980317,-2.248372,-3.7992628,0.6394245
1747679307.8956442,0.3194099,-0.767438,-0.980317,-2.248372,-3.7992628,0.6394245
1747679307.8961713,0.3194099,-0.767438,-0.980317,-2.248372,-3.7992628,0.6394245
1747679307.8966956,0.3194099,-0.767438,-0.980317,-2.248372,-3.7992628,0.6394245
1747679307.8972201,0.3194099,-0.767438,-0.980317,-2.248372,-3.7992628,0.6394245
1747679307.897744,0.3194099,-0.767438,-0.980317,-2.248372,-3.7992628,0.6394245
1747679307.8982668,0.3194099,-0.767438,-0.980317,-2.248372,-3.7992628,0.6394245
1747679307.8987904,0.3194099,-0.767438,-0.980317,-2.248372,-3.7992628,0.6394245
1747679307.8993134,0.3194099,-0.767438,-0.980317,-2.248372,-3.7992628,0.6394245
1747679307.899837,0.3194099,-0.767438,-0.980317,-2.248372,-3.7992628,0.6394245
1747679307.900362,0.3194099,-0.767438,-0.980317,-2.248372,-3.7992628,0.6394245
1747679307.900885,0.3194099,-0.767438,-0.980317,-2.248372,-3.7992628,0.6394245
1747679307.9014118,0.35699475,-0.89971703,-0.52978724,-2.248372,-3.7992628,0.6394245
1747679307.9019356,0.35699475,-0.89971703,-0.52978724,-2.3667495,-3.622429,0.7768435
1747679307.9024587,0.35699475,-0.89971703,-0.52978724,-2.3667495,-3.622429,0.7768435
1747679307.9029808,0.35699475,-0.89971703,-0.52978724,-2.3667495,-3.622429,0.7768435
1747679307.903502,0.35699475,-0.89971703,-0.52978724,-2.3667495,-3.622429,0.7768435
1747679307.9040213,0.35699475,-0.89971703,-0.52978724,-2.3667495,-3.622429,0.7768435
1747679307.9045553,0.35699475,-0.89971703,-0.52978724,-2.3667495,-3.622429,0.7768435
1747679307.9051151,0.35699475,-0.89971703,-0.52978724,-2.3667495,-3.622429,0.7768435
1747679307.9056704,0.35699475,-0.89971703,-0.52978724,-2.3667495,-3.622429,0.7768435
1747679307.906221,0.35699475,-0.89971703,-0.52978724,-2.3667495,-3.622429,0.7768435
1747679307.9067702,0.35699475,-0.89971703,-0.52978724,-2.3667495,-3.622429,0.7768435
1747679307.9073331,0.35699475,-0.89971703,-0.52978724,-2.3667495,-3.622429,0.7768435
1747679307.907884,0.35699475,-0.89971703,-0.52978724,-2.3667495,-3.622429,0.7768435
1747679307.9084115,0.35699475,-0.89971703,-0.52978724,-2.3667495,-3.622429,0.7768435
1747679307.908931,0.35699475,-0.89971703,-0.52978724,-2.3667495,-3.622429,0.7768435
1747679307.9094505,0.35699475,-0.89971703,-0.52978724,-2.3667495,-3.622429,0.7768435
1747679307.9099693,0.35699475,-0.89971703,-0.52978724,-2.3667495,-3.622429,0.7768435
1747679307.9104884,0.35699475,-0.89971703,-0.52978724,-2.3667495,-3.622429,0.7768435
1747679307.9110074,0.35699475,-0.89971703,-0.52978724,-2.3667495,-3.622429,0.7768435
1747679307.9115262,0.35699475,-0.89971703,-0.52978724,-2.3667495,-3.622429,0.7768435
1747679307.9120448,0.35699475,-0.89971703,-0.52978724,-2.3667495,-3.622429,0.7768435
1747679307.9125636,0.35699475,-0.89971703,-0.52978724,-2.3667495,-3.622429,0.7768435
1747679307.9130821,0.35699475,-0.89971703,-0.52978724,-2.3667495,-3.622429,0.7768435
1747679307.9136014,0.35943532,-0.993435,-0.28670624,-2.3825953,-3.3848753,1.0506163
1747679307.914165,0.35943532,-0.993435,-0.28670624,-2.3825953,-3.3848753,1.0506163
1747679307.9147327,0.35943532,-0.993435,-0.28670624,-2.3825953,-3.3848753,1.0506163
1747679307.9152625,0.35943532,-0.993435,-0.28670624,-2.3825953,-3.3848753,1.0506163
1747679307.9157834,0.35943532,-0.993435,-0.28670624,-2.3825953,-3.3848753,1.0506163
1747679307.9163027,0.35943532,-0.993435,-0.28670624,-2.3825953,-3.3848753,1.0506163
1747679307.9168215,0.35943532,-0.993435,-0.28670624,-2.3825953,-3.3848753,1.0506163
1747679307.9173405,0.35943532,-0.993435,-0.28670624,-2.3825953,-3.3848753,1.0506163
1747679307.9178593,0.35943532,-0.993435,-0.28670624,-2.3825953,-3.3848753,1.0506163
1747679307.9183776,0.35943532,-0.993435,-0.28670624,-2.3825953,-3.3848753,1.0506163
1747679307.918897,0.35943532,-0.993435,-0.28670624,-2.3825953,-3.3848753,1.0506163
1747679307.9194152,0.35943532,-0.993435,-0.28670624,-2.3825953,-3.3848753,1.0506163
1747679307.9199343,0.35943532,-0.993435,-0.28670624,-2.3825953,-3.3848753,1.0506163
1747679307.9204528,0.35943532,-0.993435,-0.28670624,-2.3825953,-3.3848753,1.0506163
1747679307.9209974,0.35943532,-0.993435,-0.28670624,-2.3825953,-3.3848753,1.0506163
1747679307.9215932,0.35943532,-0.993435,-0.28670624,-2.3825953,-3.3848753,1.0506163
1747679307.922165,0.35943532,-0.993435,-0.28670624,-2.3825953,-3.3848753,1.0506163
1747679307.922739,0.35943532,-0.993435,-0.28670624,-2.3825953,-3.3848753,1.0506163
1747679307.923304,0.35943532,-0.993435,-0.28670624,-2.3825953,-3.3848753,1.0506163
1747679307.923861,0.35943532,-0.993435,-0.28670624,-2.3825953,-3.3848753,1.0506163
1747679307.9243984,0.35943532,-0.993435,-0.28670624,-2.3825953,-3.3848753,1.0506163
1747679307.9249926,0.35943532,-0.993435,-0.28670624,-2.3825953,-3.3848753,1.0506163
1747679307.9255354,0.37310252,-1.0427346,-0.17199935,-2.3198779,-3.1814098,1.3520858
1747679307.926074,0.37310252,-1.0427346,-0.17199935,-2.3198779,-3.1814098,1.3520858
1747679307.9266238,0.37310252,-1.0427346,-0.17199935,-2.3198779,-3.1814098,1.3520858
1747679307.9271512,0.37310252,-1.0427346,-0.17199935,-2.3198779,-3.1814098,1.3520858
1747679307.927671,0.37310252,-1.0427346,-0.17199935,-2.3198779,-3.1814098,1.3520858
1747679307.9281902,0.37310252,-1.0427346,-0.17199935,-2.3198779,-3.1814098,1.3520858
1747679307.928709,0.37310252,-1.0427346,-0.17199935,-2.3198779,-3.1814098,1.3520858
1747679307.929228,0.37310252,-1.0427346,-0.17199935,-2.3198779,-3.1814098,1.3520858
1747679307.9297466,0.37310252,-1.0427346,-0.17199935,-2.3198779,-3.1814098,1.3520858
1747679307.9302657,0.37310252,-1.0427346,-0.17199935,-2.3198779,-3.1814098,1.3520858
1747679307.9307845,0.37310252,-1.0427346,-0.17199935,-2.3198779,-3.1814098,1.3520858
1747679307.9313035,0.37310252,-1.0427346,-0.17199935,-2.3198779,-3.1814098,1.3520858
1747679307.931822,0.37310252,-1.0427346,-0.17199935,-2.3198779,-3.1814098,1.3520858
1747679307.9323406,0.37310252,-1.0427346,-0.17199935,-2.3198779,-3.1814098,1.3520858
1747679307.9328594,0.37310252,-1.0427346,-0.17199935,-2.3198779,-3.1814098,1.3520858
1747679307.9333923,0.37310252,-1.0427346,-0.17199935,-2.3198779,-3.1814098,1.3520858
1747679307.9339318,0.37310252,-1.0427346,-0.17199935,-2.3198779,-3.1814098,1.3520858
1747679307.934453,0.37310252,-1.0427346,-0.17199935,-2.3198779,-3.1814098,1.3520858
1747679307.934972,0.37310252,-1.0427346,-0.17199935,-2.3198779,-3.1814098,1.3520858
1747679307.935491,0.37310252,-1.0427346,-0.17199935,-2.3198779,-3.1814098,1.3520858
1747679307.9360216,0.37310252,-1.0427346,-0.17199935,-2.2655494,-3.0386646,1.5800523
1747679307.9365735,0.36431646,-1.078367,-0.11147315,-2.2655494,-3.0386646,1.5800523
1747679307.9371166,0.36431646,-1.078367,-0.11147315,-2.2655494,-3.0386646,1.5800523
1747679307.9376497,0.36431646,-1.078367,-0.11147315,-2.2655494,-3.0386646,1.5800523
1747679307.9381733,0.36431646,-1.078367,-0.11147315,-2.2655494,-3.0386646,1.5800523
1747679307.9387214,0.36431646,-1.078367,-0.11147315,-2.2655494,-3.0386646,1.5800523
1747679307.9392734,0.36431646,-1.078367,-0.11147315,-2.2655494,-3.0386646,1.5800523
1747679307.9398108,0.36431646,-1.078367,-0.11147315,-2.2655494,-3.0386646,1.5800523
1747679307.9403312,0.36431646,-1.078367,-0.11147315,-2.2655494,-3.0386646,1.5800523
1747679307.9408505,0.36431646,-1.078367,-0.11147315,-2.2655494,-3.0386646,1.5800523
1747679307.941369,0.36431646,-1.078367,-0.11147315,-2.2655494,-3.0386646,1.5800523
1747679307.9418874,0.36431646,-1.078367,-0.11147315,-2.2655494,-3.0386646,1.5800523
1747679307.942407,0.36431646,-1.078367,-0.11147315,-2.2655494,-3.0386646,1.5800523
1747679307.942926,0.36431646,-1.078367,-0.11147315,-2.2655494,-3.0386646,1.5800523
1747679307.9434621,0.36431646,-1.078367,-0.11147315,-2.2655494,-3.0386646,1.5800523
1747679307.9440138,0.36431646,-1.078367,-0.11147315,-2.2655494,-3.0386646,1.5800523
1747679307.9445393,0.36431646,-1.078367,-0.11147315,-2.2655494,-3.0386646,1.5800523
1747679307.9450583,0.36431646,-1.078367,-0.11147315,-2.2655494,-3.0386646,1.5800523
1747679307.9455771,0.36431646,-1.078367,-0.11147315,-2.2655494,-3.0386646,1.5800523
1747679307.946096,0.36431646,-1.078367,-0.11147315,-2.2655494,-3.0386646,1.5800523
1747679307.946617,0.39799634,-1.1149755,-0.10219897,-2.2655494,-3.0386646,1.5800523
1747679307.947136,0.39799634,-1.1149755,-0.10219897,-2.2655494,-3.0386646,1.5800523
1747679307.9476547,0.39799634,-1.1149755,-0.10219897,-2.2655494,-3.0386646,1.5800523
1747679307.9481728,0.39799634,-1.1149755,-0.10219897,-2.2655494,-3.0386646,1.5800523
1747679307.9486916,0.39799634,-1.1149755,-0.10219897,-2.2655494,-3.0386646,1.5800523
1747679307.9492102,0.39799634,-1.1149755,-0.10219897,-2.2655494,-3.0386646,1.5800523
1747679307.9497287,0.39799634,-1.1149755,-0.10219897,-2.2655494,-3.0386646,1.5800523
1747679307.950247,0.39799634,-1.1149755,-0.10219897,-2.2655494,-3.0386646,1.5800523
1747679307.950769,0.39799634,-1.1149755,-0.10219897,-2.2655494,-3.0386646,1.5800523
1747679307.951323,0.39799634,-1.1149755,-0.10219897,-2.2655494,-3.0386646,1.5800523
1747679307.9518821,0.39799634,-1.1149755,-0.10219897,-2.2655494,-3.0386646,1.5800523
1747679307.9524243,0.39799634,-1.1149755,-0.10219897,-2.2655494,-3.0386646,1.5800523
1747679307.9529521,0.39799634,-1.1149755,-0.10219897,-2.2655494,-3.0386646,1.5800523
1747679307.953516,0.39799634,-1.1149755,-0.10219897,-2.2655494,-3.0386646,1.5800523
1747679307.9540732,0.39799634,-1.1149755,-0.10219897,-2.2655494,-3.0386646,1.5800523
1747679307.9546332,0.39799634,-1.1149755,-0.10219897,-2.2655494,-3.0386646,1.5800523
1747679307.9551969,0.39799634,-1.1149755,-0.10219897,-2.2655494,-3.0386646,1.5800523
1747679307.9557548,0.49561927,-1.1920977,-0.13295019,-2.2655494,-3.0386646,1.5800523
1747679307.9563234,0.49561927,-1.1920977,-0.13295019,-2.2080252,-2.5497086,2.5771391
1747679307.9568596,0.49561927,-1.1920977,-0.13295019,-2.2080252,-2.5497086,2.5771391
1747679307.9573832,0.49561927,-1.1920977,-0.13295019,-2.2080252,-2.5497086,2.5771391
1747679307.957905,0.49561927,-1.1920977,-0.13295019,-2.2080252,-2.5497086,2.5771391
1747679307.9584267,0.49561927,-1.1920977,-0.13295019,-2.2080252,-2.5497086,2.5771391
1747679307.958948,0.49561927,-1.1920977,-0.13295019,-2.2080252,-2.5497086,2.5771391
1747679307.9594693,0.49561927,-1.1920977,-0.13295019,-2.2080252,-2.5497086,2.5771391
1747679307.959991,0.49561927,-1.1920977,-0.13295019,-2.2080252,-2.5497086,2.5771391
1747679307.9605122,0.49561927,-1.1920977,-0.13295019,-2.2080252,-2.5497086,2.5771391
1747679307.9610336,0.49561927,-1.1920977,-0.13295019,-2.2080252,-2.5497086,2.5771391
1747679307.9615548,0.49561927,-1.1920977,-0.13295019,-2.2080252,-2.5497086,2.5771391
1747679307.9620762,0.49561927,-1.1920977,-0.13295019,-2.2080252,-2.5497086,2.5771391
1747679307.9625974,0.49561927,-1.1920977,-0.13295019,-2.2080252,-2.5497086,2.5771391
1747679307.9631186,0.49561927,-1.1920977,-0.13295019,-2.2080252,-2.5497086,2.5771391
1747679307.9636397,0.49561927,-1.1920977,-0.13295019,-2.2080252,-2.5497086,2.5771391
1747679307.9641728,0.49561927,-1.1920977,-0.13295019,-2.2080252,-2.5497086,2.5771391
1747679307.9647186,0.49561927,-1.1920977,-0.13295019,-2.2080252,-2.5497086,2.5771391
1747679307.9652498,0.49561927,-1.1920977,-0.13295019,-2.2080252,-2.5497086,2.5771391
1747679307.965781,0.49561927,-1.1920977,-0.13295019,-2.2080252,-2.5497086,2.5771391
1747679307.9663112,0.67378104,-1.2755651,-0.2144653,-2.3272016,-2.442117,2.9862003
1747679307.9668603,0.67378104,-1.2755651,-0.2144653,-2.3272016,-2.442117,2.9862003
1747679307.967394,0.67378104,-1.2755651,-0.2144653,-2.3272016,-2.442117,2.9862003
1747679307.9679148,0.67378104,-1.2755651,-0.2144653,-2.3272016,-2.442117,2.9862003
1747679307.9684339,0.67378104,-1.2755651,-0.2144653,-2.3272016,-2.442117,2.9862003
1747679307.9689527,0.67378104,-1.2755651,-0.2144653,-2.3272016,-2.442117,2.9862003
1747679307.9694715,0.67378104,-1.2755651,-0.2144653,-2.3272016,-2.442117,2.9862003
1747679307.969993,0.67378104,-1.2755651,-0.2144653,-2.3272016,-2.442117,2.9862003
1747679307.9705298,0.67378104,-1.2755651,-0.2144653,-2.3272016,-2.442117,2.9862003
1747679307.9710674,0.67378104,-1.2755651,-0.2144653,-2.3272016,-2.442117,2.9862003
1747679307.9715915,0.67378104,-1.2755651,-0.2144653,-2.3272016,-2.442117,2.9862003
1747679307.9721153,0.67378104,-1.2755651,-0.2144653,-2.3272016,-2.442117,2.9862003
1747679307.9726386,0.67378104,-1.2755651,-0.2144653,-2.3272016,-2.442117,2.9862003
1747679307.9732492,0.67378104,-1.2755651,-0.2144653,-2.3272016,-2.442117,2.9862003
1747679307.973818,0.67378104,-1.2755651,-0.2144653,-2.3272016,-2.442117,2.9862003
1747679307.9743812,0.67378104,-1.2755651,-0.2144653,-2.3272016,-2.442117,2.9862003
1747679307.9749258,0.67378104,-1.2755651,-0.2144653,-2.3272016,-2.442117,2.9862003
1747679307.9754648,0.67378104,-1.2755651,-0.2144653,-2.3272016,-2.442117,2.9862003
1747679307.976012,0.9603042,-1.381486,-0.3013497,-2.5808675,-2.4602263,3.2194932
1747679307.9765615,0.9603042,-1.381486,-0.3013497,-2.5808675,-2.4602263,3.2194932
1747679307.9771013,0.9603042,-1.381486,-0.3013497,-2.5808675,-2.4602263,3.2194932
1747679307.9776428,0.9603042,-1.381486,-0.3013497,-2.5808675,-2.4602263,3.2194932
1747679307.9781861,0.9603042,-1.381486,-0.3013497,-2.5808675,-2.4602263,3.2194932
1747679307.9787292,0.9603042,-1.381486,-0.3013497,-2.5808675,-2.4602263,3.2194932
1747679307.9792676,0.9603042,-1.381486,-0.3013497,-2.5808675,-2.4602263,3.2194932
1747679307.9797926,0.9603042,-1.381486,-0.3013497,-2.5808675,-2.4602263,3.2194932
1747679307.980312,0.9603042,-1.381486,-0.3013497,-2.5808675,-2.4602263,3.2194932
1747679307.980831,0.9603042,-1.381486,-0.3013497,-2.5808675,-2.4602263,3.2194932
1747679307.98135,0.9603042,-1.381486,-0.3013497,-2.5808675,-2.4602263,3.2194932
1747679307.9818823,1.3224852,-1.5284085,-0.409223,-3.088865,-2.7872622,3.138533
1747679307.9824307,1.3224852,-1.5284085,-0.409223,-3.088865,-2.7872622,3.138533
1747679307.9829834,1.3224852,-1.5284085,-0.409223,-3.088865,-2.7872622,3.138533
1747679307.9835246,1.3224852,-1.5284085,-0.409223,-3.088865,-2.7872622,3.138533
1747679307.9847784,1.3224852,-1.5284085,-0.409223,-3.088865,-2.7872622,3.138533
1747679307.9853673,1.3224852,-1.5284085,-0.409223,-3.088865,-2.7872622,3.138533
1747679307.9859266,1.3224852,-1.5284085,-0.409223,-3.088865,-2.7872622,3.138533
1747679307.9864702,1.3224852,-1.5284085,-0.409223,-3.088865,-2.7872622,3.138533
1747679307.9870028,1.3224852,-1.5284085,-0.409223,-3.088865,-2.7872622,3.138533
1747679307.987535,1.3224852,-1.5284085,-0.409223,-3.088865,-2.7872622,3.138533
1747679307.9880674,1.3224852,-1.5284085,-0.409223,-3.088865,-2.7872622,3.138533
1747679307.9885995,1.3224852,-1.5284085,-0.409223,-3.088865,-2.7872622,3.138533
1747679307.989132,1.3224852,-1.5284085,-0.409223,-3.088865,-2.7872622,3.138533
1747679307.989664,1.3224852,-1.5284085,-0.409223,-3.088865,-2.7872622,3.138533
1747679307.9901962,1.3224852,-1.5284085,-0.409223,-3.088865,-2.7872622,3.138533
1747679307.990728,1.3224852,-1.5284085,-0.409223,-3.088865,-2.7872622,3.138533
1747679307.9912598,1.3224852,-1.5284085,-0.409223,-3.088865,-2.7872622,3.138533
1747679307.9917922,1.3224852,-1.5284085,-0.409223,-3.088865,-2.7872622,3.138533
1747679307.992324,1.3224852,-1.5284085,-0.409223,-3.088865,-2.7872622,3.138533
1747679307.9928901,1.3224852,-1.5284085,-0.409223,-3.088865,-2.7872622,3.138533
1747679307.9934554,1.6563555,-1.7446432,-0.50294095,-3.5767558,-3.2208247,2.8764782
1747679307.9940188,1.6563555,-1.7446432,-0.50294095,-3.5767558,-3.2208247,2.8764782
1747679307.9945745,1.6563555,-1.7446432,-0.50294095,-3.5767558,-3.2208247,2.8764782
1747679307.9951086,1.6563555,-1.7446432,-0.50294095,-3.5767558,-3.2208247,2.8764782
1747679307.995629,1.6563555,-1.7446432,-0.50294095,-3.5767558,-3.2208247,2.8764782
1747679307.996148,1.6563555,-1.7446432,-0.50294095,-3.5767558,-3.2208247,2.8764782
1747679307.9966674,1.6563555,-1.7446432,-0.50294095,-3.5767558,-3.2208247,2.8764782
1747679307.9972026,1.6563555,-1.7446432,-0.50294095,-3.5767558,-3.2208247,2.8764782
1747679307.9977326,1.6563555,-1.7446432,-0.50294095,-3.5767558,-3.2208247,2.8764782
1747679307.9982545,1.6563555,-1.7446432,-0.50294095,-3.5767558,-3.2208247,2.8764782
1747679307.9987738,1.6563555,-1.7446432,-0.50294095,-3.5767558,-3.2208247,2.8764782
1747679307.9992926,1.6563555,-1.7446432,-0.50294095,-3.5767558,-3.2208247,2.8764782
1747679307.9998116,1.6563555,-1.7446432,-0.50294095,-3.5767558,-3.2208247,2.8764782
1747679308.0003302,1.6563555,-1.7446432,-0.50294095,-3.5767558,-3.2208247,2.8764782
1747679308.000881,1.6563555,-1.7446432,-0.50294095,-3.5767558,-3.2208247,2.8764782
1747679308.0014226,1.8047423,-2.0599651,-0.5580979,-3.5767558,-3.2208247,2.8764782
1747679308.0019662,1.8047423,-2.0599651,-0.5580979,-4.5205793,-4.13056,2.3726084
1747679308.0025034,1.8047423,-2.0599651,-0.5580979,-4.5205793,-4.13056,2.3726084
1747679308.0030544,1.8047423,-2.0599651,-0.5580979,-4.5205793,-4.13056,2.3726084
1747679308.0035927,1.8047423,-2.0599651,-0.5580979,-4.5205793,-4.13056,2.3726084
1747679308.0041234,1.8047423,-2.0599651,-0.5580979,-4.5205793,-4.13056,2.3726084
1747679308.0046656,1.8047423,-2.0599651,-0.5580979,-4.5205793,-4.13056,2.3726084
1747679308.0052013,1.8047423,-2.0599651,-0.5580979,-4.5205793,-4.13056,2.3726084
1747679308.0057297,1.8047423,-2.0599651,-0.5580979,-4.5205793,-4.13056,2.3726084
1747679308.0062582,1.8047423,-2.0599651,-0.5580979,-4.5205793,-4.13056,2.3726084
1747679308.006786,1.8047423,-2.0599651,-0.5580979,-4.5205793,-4.13056,2.3726084
1747679308.007314,1.8047423,-2.0599651,-0.5580979,-4.5205793,-4.13056,2.3726084
1747679308.0078418,1.8047423,-2.0599651,-0.5580979,-4.5205793,-4.13056,2.3726084
1747679308.0083697,1.8047423,-2.0599651,-0.5580979,-4.5205793,-4.13056,2.3726084
1747679308.0088973,1.8047423,-2.0599651,-0.5580979,-4.5205793,-4.13056,2.3726084
1747679308.0094252,1.8047423,-2.0599651,-0.5580979,-4.5205793,-4.13056,2.3726084
1747679308.0099528,1.8047423,-2.0599651,-0.5580979,-4.5205793,-4.13056,2.3726084
1747679308.010482,1.8047423,-2.0599651,-0.5580979,-5.2556114,-4.7303033,2.1638167
1747679308.011012,1.6871067,-2.3591795,-0.51123893,-5.2556114,-4.7303033,2.1638167
1747679308.0115402,1.6871067,-2.3591795,-0.51123893,-5.2556114,-4.7303033,2.1638167
1747679308.012068,1.6871067,-2.3591795,-0.51123893,-5.2556114,-4.7303033,2.1638167
1747679308.0126162,1.6871067,-2.3591795,-0.51123893,-5.2556114,-4.7303033,2.1638167
1747679308.0131695,1.6871067,-2.3591795,-0.51123893,-5.2556114,-4.7303033,2.1638167
1747679308.0137038,1.6871067,-2.3591795,-0.51123893,-5.2556114,-4.7303033,2.1638167
1747679308.014243,1.6871067,-2.3591795,-0.51123893,-5.2556114,-4.7303033,2.1638167
1747679308.0147955,1.6871067,-2.3591795,-0.51123893,-5.2556114,-4.7303033,2.1638167
1747679308.0153234,1.6871067,-2.3591795,-0.51123893,-5.2556114,-4.7303033,2.1638167
1747679308.016313,1.6871067,-2.3591795,-0.51123893,-5.2556114,-4.7303033,2.1638167
1747679308.0168803,1.6871067,-2.3591795,-0.51123893,-5.2556114,-4.7303033,2.1638167
1747679308.0174382,1.6871067,-2.3591795,-0.51123893,-5.2556114,-4.7303033,2.1638167
1747679308.0179868,1.6871067,-2.3591795,-0.51123893,-5.2556114,-4.7303033,2.1638167
1747679308.0185268,1.6871067,-2.3591795,-0.51123893,-5.2556114,-4.7303033,2.1638167
1747679308.0190752,1.6871067,-2.3591795,-0.51123893,-5.2556114,-4.7303033,2.1638167
1747679308.0195985,1.6871067,-2.3591795,-0.51123893,-5.2556114,-4.7303033,2.1638167
1747679308.0201185,1.6871067,-2.3591795,-0.51123893,-5.2556114,-4.7303033,2.1638167
1747679308.0206382,1.6871067,-2.3591795,-0.51123893,-5.2556114,-4.7303033,2.1638167
1747679308.0211568,1.6871067,-2.3591795,-0.51123893,-5.2556114,-4.7303033,2.1638167
1747679308.0216756,1.6871067,-2.3591795,-0.51123893,-5.2556114,-4.7303033,2.1638167
1747679308.0222003,1.6871067,-2.3591795,-0.51123893,-6.193043,-5.3897014,2.2852569
1747679308.0227206,1.5021113,-2.6027486,-0.31257632,-6.193043,-5.3897014,2.2852569
1747679308.0232394,1.5021113,-2.6027486,-0.31257632,-6.193043,-5.3897014,2.2852569
1747679308.0237746,1.5021113,-2.6027486,-0.31257632,-6.193043,-5.3897014,2.2852569
1747679308.0243194,1.5021113,-2.6027486,-0.31257632,-6.193043,-5.3897014,2.2852569
1747679308.0248458,1.5021113,-2.6027486,-0.31257632,-6.193043,-5.3897014,2.2852569
1747679308.0253654,1.5021113,-2.6027486,-0.31257632,-6.193043,-5.3897014,2.2852569
1747679308.025884,1.5021113,-2.6027486,-0.31257632,-6.193043,-5.3897014,2.2852569
1747679308.0264027,1.5021113,-2.6027486,-0.31257632,-6.193043,-5.3897014,2.2852569
1747679308.0269215,1.5021113,-2.6027486,-0.31257632,-6.193043,-5.3897014,2.2852569
1747679308.0274396,1.5021113,-2.6027486,-0.31257632,-6.193043,-5.3897014,2.2852569
1747679308.0279908,1.5021113,-2.6027486,-0.31257632,-6.193043,-5.3897014,2.2852569
1747679308.0285435,1.5021113,-2.6027486,-0.31257632,-6.193043,-5.3897014,2.2852569
1747679308.02907,1.5021113,-2.6027486,-0.31257632,-6.193043,-5.3897014,2.2852569
1747679308.0295901,1.5021113,-2.6027486,-0.31257632,-6.193043,-5.3897014,2.2852569
1747679308.0301087,1.5021113,-2.6027486,-0.31257632,-6.193043,-5.3897014,2.2852569
1747679308.0306275,1.5021113,-2.6027486,-0.31257632,-6.193043,-5.3897014,2.2852569
1747679308.0311465,1.5021113,-2.6027486,-0.31257632,-6.193043,-5.3897014,2.2852569
1747679308.0316677,1.5021113,-2.6027486,-0.31257632,-6.193043,-5.3897014,2.2852569
1747679308.032217,1.5021113,-2.6027486,-0.31257632,-6.193043,-5.3897014,2.2852569
1747679308.0327609,1.5021113,-2.6027486,-0.31257632,-6.193043,-5.3897014,2.2852569
1747679308.033295,1.5021113,-2.6027486,-0.31257632,-6.193043,-5.3897014,2.2852569
1747679308.0338464,1.5021113,-2.6027486,-0.31257632,-6.193043,-5.3897014,2.2852569
1747679308.0344114,1.5069925,-2.8887837,0.1867648,-7.0995827,-5.7827835,2.8775434
1747679308.034942,1.5069925,-2.8887837,0.1867648,-7.0995827,-5.7827835,2.8775434
1747679308.0354617,1.5069925,-2.8887837,0.1867648,-7.0995827,-5.7827835,2.8775434
1747679308.0359814,1.5069925,-2.8887837,0.1867648,-7.0995827,-5.7827835,2.8775434
1747679308.0365,1.5069925,-2.8887837,0.1867648,-7.0995827,-5.7827835,2.8775434
1747679308.0370188,1.5069925,-2.8887837,0.1867648,-7.0995827,-5.7827835,2.8775434
1747679308.0377345,1.5069925,-2.8887837,0.1867648,-7.0995827,-5.7827835,2.8775434
1747679308.0382564,1.5069925,-2.8887837,0.1867648,-7.0995827,-5.7827835,2.8775434
1747679308.0387752,1.5069925,-2.8887837,0.1867648,-7.0995827,-5.7827835,2.8775434
1747679308.0392942,1.5069925,-2.8887837,0.1867648,-7.0995827,-5.7827835,2.8775434
1747679308.0398128,1.5069925,-2.8887837,0.1867648,-7.0995827,-5.7827835,2.8775434
1747679308.0403316,1.5069925,-2.8887837,0.1867648,-7.0995827,-5.7827835,2.8775434
1747679308.0408502,1.5069925,-2.8887837,0.1867648,-7.0995827,-5.7827835,2.8775434
1747679308.0413687,1.5069925,-2.8887837,0.1867648,-7.0995827,-5.7827835,2.8775434
1747679308.0419018,1.5069925,-2.8887837,0.1867648,-7.0995827,-5.7827835,2.8775434
1747679308.0424345,1.5069925,-2.8887837,0.1867648,-7.0995827,-5.7827835,2.8775434
1747679308.0429842,1.5069925,-2.8887837,0.1867648,-7.0995827,-5.7827835,2.8775434
1747679308.0435474,1.5069925,-2.8887837,0.1867648,-7.0995827,-5.7827835,2.8775434
1747679308.044097,1.5069925,-2.8887837,0.1867648,-7.0995827,-5.7827835,2.8775434
1747679308.04465,1.5069925,-2.8887837,0.1867648,-7.0995827,-5.7827835,2.8775434
1747679308.0452042,1.5069925,-2.8887837,0.1867648,-7.0995827,-5.7827835,2.8775434
1747679308.0457642,1.5069925,-2.8887837,0.1867648,-7.3829427,-5.7050195,3.3025837
1747679308.0463128,1.629021,-3.0547426,0.45815644,-7.3829427,-5.7050195,3.3025837
1747679308.0468655,1.629021,-3.0547426,0.45815644,-7.3829427,-5.7050195,3.3025837
1747679308.0474238,1.629021,-3.0547426,0.45815644,-7.3829427,-5.7050195,3.3025837
1747679308.0479674,1.629021,-3.0547426,0.45815644,-7.3829427,-5.7050195,3.3025837
1747679308.0485241,1.629021,-3.0547426,0.45815644,-7.3829427,-5.7050195,3.3025837
1747679308.0490754,1.629021,-3.0547426,0.45815644,-7.3829427,-5.7050195,3.3025837
1747679308.0496125,1.629021,-3.0547426,0.45815644,-7.3829427,-5.7050195,3.3025837
1747679308.0501354,1.629021,-3.0547426,0.45815644,-7.3829427,-5.7050195,3.3025837
1747679308.0506575,1.629021,-3.0547426,0.45815644,-7.3829427,-5.7050195,3.3025837
1747679308.0511792,1.629021,-3.0547426,0.45815644,-7.3829427,-5.7050195,3.3025837
1747679308.0517647,1.629021,-3.0547426,0.45815644,-7.3829427,-5.7050195,3.3025837
1747679308.0522866,1.629021,-3.0547426,0.45815644,-7.3829427,-5.7050195,3.3025837
1747679308.052808,1.629021,-3.0547426,0.45815644,-7.3829427,-5.7050195,3.3025837
1747679308.0533302,1.629021,-3.0547426,0.45815644,-7.3829427,-5.7050195,3.3025837
1747679308.0538516,1.629021,-3.0547426,0.45815644,-7.3829427,-5.7050195,3.3025837
1747679308.0544035,1.9907138,-3.3114908,0.8901378,-7.3829427,-5.7050195,3.3025837
1747679308.0549283,1.9907138,-3.3114908,0.8901378,-7.6119747,-5.129777,3.9662428
1747679308.05545,1.9907138,-3.3114908,0.8901378,-7.6119747,-5.129777,3.9662428
1747679308.0559714,1.9907138,-3.3114908,0.8901378,-7.6119747,-5.129777,3.9662428
1747679308.0564933,1.9907138,-3.3114908,0.8901378,-7.6119747,-5.129777,3.9662428
1747679308.0570147,1.9907138,-3.3114908,0.8901378,-7.6119747,-5.129777,3.9662428
1747679308.0575366,1.9907138,-3.3114908,0.8901378,-7.6119747,-5.129777,3.9662428
1747679308.058058,1.9907138,-3.3114908,0.8901378,-7.6119747,-5.129777,3.9662428
1747679308.058606,1.9907138,-3.3114908,0.8901378,-7.6119747,-5.129777,3.9662428
1747679308.0591507,1.9907138,-3.3114908,0.8901378,-7.6119747,-5.129777,3.9662428
1747679308.0596774,1.9907138,-3.3114908,0.8901378,-7.6119747,-5.129777,3.9662428
1747679308.060199,1.9907138,-3.3114908,0.8901378,-7.6119747,-5.129777,3.9662428
1747679308.0607207,1.9907138,-3.3114908,0.8901378,-7.6119747,-5.129777,3.9662428
1747679308.0612419,1.9907138,-3.3114908,0.8901378,-7.6119747,-5.129777,3.9662428
1747679308.061763,1.9907138,-3.3114908,0.8901378,-7.6119747,-5.129777,3.9662428
1747679308.0622842,1.9907138,-3.3114908,0.8901378,-7.6119747,-5.129777,3.9662428
1747679308.062807,1.9907138,-3.3114908,0.8901378,-7.6119747,-5.129777,3.9662428
1747679308.0633287,1.9907138,-3.3114908,0.8901378,-7.6119747,-5.129777,3.9662428
1747679308.063866,1.9907138,-3.3114908,0.8901378,-7.6119747,-5.129777,3.9662428
1747679308.064426,1.9907138,-3.3114908,0.8901378,-7.6119747,-5.129777,3.9662428
1747679308.0649786,1.9907138,-3.3114908,0.8901378,-7.6119747,-5.129777,3.9662428
1747679308.0655162,2.5852373,-3.5106416,1.2415802,-7.537406,-4.244543,4.3444114
1747679308.066523,2.5852373,-3.5106416,1.2415802,-7.537406,-4.244543,4.3444114
1747679308.067045,2.5852373,-3.5106416,1.2415802,-7.537406,-4.244543,4.3444114
1747679308.0675642,2.5852373,-3.5106416,1.2415802,-7.537406,-4.244543,4.3444114
1747679308.0680833,2.5852373,-3.5106416,1.2415802,-7.537406,-4.244543,4.3444114
1747679308.0686018,2.5852373,-3.5106416,1.2415802,-7.537406,-4.244543,4.3444114
1747679308.069121,2.5852373,-3.5106416,1.2415802,-7.537406,-4.244543,4.3444114
1747679308.0696392,2.5852373,-3.5106416,1.2415802,-7.537406,-4.244543,4.3444114
1747679308.0701578,2.5852373,-3.5106416,1.2415802,-7.537406,-4.244543,4.3444114
1747679308.0706773,2.5852373,-3.5106416,1.2415802,-7.537406,-4.244543,4.3444114
1747679308.0711966,2.5852373,-3.5106416,1.2415802,-7.537406,-4.244543,4.3444114
1747679308.0717158,2.5852373,-3.5106416,1.2415802,-7.537406,-4.244543,4.3444114
1747679308.0722344,2.5852373,-3.5106416,1.2415802,-7.537406,-4.244543,4.3444114
1747679308.0727534,2.5852373,-3.5106416,1.2415802,-7.537406,-4.244543,4.3444114
1747679308.073301,2.5852373,-3.5106416,1.2415802,-7.537406,-4.244543,4.3444114
1747679308.0738506,2.5852373,-3.5106416,1.2415802,-7.537406,-4.244543,4.3444114
1747679308.0743952,2.5852373,-3.5106416,1.2415802,-7.537406,-4.244543,4.3444114
1747679308.0749485,2.5852373,-3.5106416,1.2415802,-7.537406,-4.244543,4.3444114
1747679308.0755005,2.5852373,-3.5106416,1.2415802,-7.537406,-4.244543,4.3444114
1747679308.076042,2.5852373,-3.5106416,1.2415802,-7.537406,-4.244543,4.3444114
1747679308.0765738,2.5852373,-3.5106416,1.2415802,-7.3307447,-3.877027,4.2282977
1747679308.0770943,2.9488828,-3.6131454,1.3728831,-7.3307447,-3.877027,4.2282977
1747679308.0776134,2.9488828,-3.6131454,1.3728831,-7.3307447,-3.877027,4.2282977
1747679308.078134,2.9488828,-3.6131454,1.3728831,-7.3307447,-3.877027,4.2282977
1747679308.078653,2.9488828,-3.6131454,1.3728831,-7.3307447,-3.877027,4.2282977
1747679308.0791748,2.9488828,-3.6131454,1.3728831,-7.3307447,-3.877027,4.2282977
1747679308.079721,2.9488828,-3.6131454,1.3728831,-7.3307447,-3.877027,4.2282977
1747679308.0802665,2.9488828,-3.6131454,1.3728831,-7.3307447,-3.877027,4.2282977
1747679308.0808182,2.9488828,-3.6131454,1.3728831,-7.3307447,-3.877027,4.2282977
1747679308.0813527,2.9488828,-3.6131454,1.3728831,-7.3307447,-3.877027,4.2282977
1747679308.0818732,2.9488828,-3.6131454,1.3728831,-7.3307447,-3.877027,4.2282977
1747679308.0823922,2.9488828,-3.6131454,1.3728831,-7.3307447,-3.877027,4.2282977
1747679308.0829113,2.9488828,-3.6131454,1.3728831,-7.3307447,-3.877027,4.2282977
1747679308.083456,2.9488828,-3.6131454,1.3728831,-7.3307447,-3.877027,4.2282977
1747679308.0840125,2.9488828,-3.6131454,1.3728831,-7.3307447,-3.877027,4.2282977
1747679308.0845428,2.9488828,-3.6131454,1.3728831,-7.3307447,-3.877027,4.2282977
1747679308.0850625,2.9488828,-3.6131454,1.3728831,-7.3307447,-3.877027,4.2282977
1747679308.0855813,2.9488828,-3.6131454,1.3728831,-7.3307447,-3.877027,4.2282977
1747679308.0861006,2.9488828,-3.6131454,1.3728831,-7.3307447,-3.877027,4.2282977
1747679308.0866191,2.9488828,-3.6131454,1.3728831,-7.3307447,-3.877027,4.2282977
1747679308.0871391,3.15926,-3.6634212,1.4055867,-7.0431237,-4.261587,3.8703692
1747679308.0876584,3.15926,-3.6634212,1.4055867,-7.0431237,-4.261587,3.8703692
1747679308.0881772,3.15926,-3.6634212,1.4055867,-7.0431237,-4.261587,3.8703692
1747679308.088722,3.15926,-3.6634212,1.4055867,-7.0431237,-4.261587,3.8703692
1747679308.089267,3.15926,-3.6634212,1.4055867,-7.0431237,-4.261587,3.8703692
1747679308.0897934,3.15926,-3.6634212,1.4055867,-7.0431237,-4.261587,3.8703692
1747679308.0903132,3.15926,-3.6634212,1.4055867,-7.0431237,-4.261587,3.8703692
1747679308.0908322,3.15926,-3.6634212,1.4055867,-7.0431237,-4.261587,3.8703692
1747679308.0913506,3.15926,-3.6634212,1.4055867,-7.0431237,-4.261587,3.8703692
1747679308.0918694,3.15926,-3.6634212,1.4055867,-7.0431237,-4.261587,3.8703692
1747679308.0923886,3.2153933,-3.6068,1.4500052,-6.782134,-5.3215246,3.5891395
1747679308.0929077,3.2153933,-3.6068,1.4500052,-6.782134,-5.3215246,3.5891395
1747679308.0934262,3.2153933,-3.6068,1.4500052,-6.782134,-5.3215246,3.5891395
1747679308.0939581,3.2153933,-3.6068,1.4500052,-6.782134,-5.3215246,3.5891395
1747679308.0945077,3.2153933,-3.6068,1.4500052,-6.782134,-5.3215246,3.5891395
1747679308.0950625,3.2153933,-3.6068,1.4500052,-6.782134,-5.3215246,3.5891395
1747679308.0956056,3.2153933,-3.6068,1.4500052,-6.782134,-5.3215246,3.5891395
1747679308.0961394,3.2153933,-3.6068,1.4500052,-6.782134,-5.3215246,3.5891395
1747679308.0966597,3.2153933,-3.6068,1.4500052,-6.782134,-5.3215246,3.5891395
1747679308.0971787,3.2153933,-3.6068,1.4500052,-6.782134,-5.3215246,3.5891395
1747679308.097698,3.2153933,-3.6068,1.4500052,-6.782134,-5.3215246,3.5891395
1747679308.0982177,3.2153933,-3.6068,1.4500052,-6.782134,-5.3215246,3.5891395
1747679308.0987365,3.2153933,-3.6068,1.4500052,-6.782134,-5.3215246,3.5891395
1747679308.099255,3.2153933,-3.6068,1.4500052,-6.782134,-5.3215246,3.5891395
1747679308.0997732,3.2153933,-3.6068,1.4500052,-6.782134,-5.3215246,3.5891395
1747679308.1002917,3.2153933,-3.6068,1.4500052,-6.782134,-5.3215246,3.5891395
1747679308.10081,3.2153933,-3.6068,1.4500052,-6.782134,-5.3215246,3.5891395
1747679308.1013288,3.2153933,-3.6068,1.4500052,-6.782134,-5.3215246,3.5891395
1747679308.101849,3.2153933,-3.6068,1.4500052,-6.782134,-5.3215246,3.5891395
1747679308.10237,3.1573076,-3.453044,1.5500686,-6.5307317,-6.5050325,3.49007
1747679308.1028893,3.1573076,-3.453044,1.5500686,-6.5307317,-6.5050325,3.49007
1747679308.1034076,3.1573076,-3.453044,1.5500686,-6.5307317,-6.5050325,3.49007
1747679308.1039574,3.1573076,-3.453044,1.5500686,-6.5307317,-6.5050325,3.49007
1747679308.1045332,3.1573076,-3.453044,1.5500686,-6.5307317,-6.5050325,3.49007
1747679308.105081,3.1573076,-3.453044,1.5500686,-6.5307317,-6.5050325,3.49007
1747679308.10561,3.1573076,-3.453044,1.5500686,-6.5307317,-6.5050325,3.49007
1747679308.1061432,3.1573076,-3.453044,1.5500686,-6.5307317,-6.5050325,3.49007
1747679308.1066768,3.1573076,-3.453044,1.5500686,-6.5307317,-6.5050325,3.49007
1747679308.1071966,3.1573076,-3.453044,1.5500686,-6.5307317,-6.5050325,3.49007
1747679308.1077156,3.1573076,-3.453044,1.5500686,-6.5307317,-6.5050325,3.49007
1747679308.1082344,3.1573076,-3.453044,1.5500686,-6.5307317,-6.5050325,3.49007
1747679308.1087534,3.1573076,-3.453044,1.5500686,-6.5307317,-6.5050325,3.49007
1747679308.109272,3.1573076,-3.453044,1.5500686,-6.5307317,-6.5050325,3.49007
1747679308.109794,3.1573076,-3.453044,1.5500686,-6.5307317,-6.5050325,3.49007
1747679308.1103406,3.1573076,-3.453044,1.5500686,-6.5307317,-6.5050325,3.49007
1747679308.1108894,3.1573076,-3.453044,1.5500686,-6.5307317,-6.5050325,3.49007
1747679308.1114497,3.1573076,-3.453044,1.5500686,-6.5307317,-6.5050325,3.49007
1747679308.1120028,3.1573076,-3.453044,1.5500686,-6.5307317,-6.5050325,3.49007
1747679308.1125302,3.1573076,-3.453044,1.5500686,-6.5307317,-6.5050325,3.49007
1747679308.113052,3.0655422,-3.219237,1.6301193,-6.148302,-7.8227634,3.6743605
1747679308.1135824,3.0655422,-3.219237,1.6301193,-6.148302,-7.8227634,3.6743605
1747679308.1141179,3.0655422,-3.219237,1.6301193,-6.148302,-7.8227634,3.6743605
1747679308.1146395,3.0655422,-3.219237,1.6301193,-6.148302,-7.8227634,3.6743605
1747679308.1151586,3.0655422,-3.219237,1.6301193,-6.148302,-7.8227634,3.6743605
1747679308.1156774,3.0655422,-3.219237,1.6301193,-6.148302,-7.8227634,3.6743605
1747679308.1161962,3.0655422,-3.219237,1.6301193,-6.148302,-7.8227634,3.6743605
1747679308.1167147,3.0655422,-3.219237,1.6301193,-6.148302,-7.8227634,3.6743605
1747679308.1172335,3.0655422,-3.219237,1.6301193,-6.148302,-7.8227634,3.6743605
1747679308.117752,3.0655422,-3.219237,1.6301193,-6.148302,-7.8227634,3.6743605
1747679308.1182706,3.0655422,-3.219237,1.6301193,-6.148302,-7.8227634,3.6743605
1747679308.1187894,3.0655422,-3.219237,1.6301193,-6.148302,-7.8227634,3.6743605
1747679308.1193304,3.0655422,-3.219237,1.6301193,-6.148302,-7.8227634,3.6743605
1747679308.1198692,3.0655422,-3.219237,1.6301193,-6.148302,-7.8227634,3.6743605
1747679308.1203904,3.0655422,-3.219237,1.6301193,-6.148302,-7.8227634,3.6743605
1747679308.1209118,3.0655422,-3.219237,1.6301193,-6.148302,-7.8227634,3.6743605
1747679308.1214345,3.0655422,-3.219237,1.6301193,-6.148302,-7.8227634,3.6743605
1747679308.121954,3.0655422,-3.219237,1.6301193,-6.148302,-7.8227634,3.6743605
1747679308.1224732,3.0655422,-3.219237,1.6301193,-6.148302,-7.8227634,3.6743605
1747679308.122992,3.0655422,-3.219237,1.6301193,-6.148302,-7.8227634,3.6743605
1747679308.1235108,3.0655422,-3.219237,1.6301193,-6.148302,-7.8227634,3.6743605
1747679308.1240435,3.0655422,-3.219237,1.6301193,-6.148302,-7.8227634,3.6743605
1747679308.1245992,3.0655422,-3.219237,1.6301193,-5.8020916,-8.246738,4.1004663
1747679308.1251233,3.2256436,-3.0034904,1.6491557,-5.8020916,-8.246738,4.1004663
1747679308.1256435,3.2256436,-3.0034904,1.6491557,-5.8020916,-8.246738,4.1004663
1747679308.1261644,3.2256436,-3.0034904,1.6491557,-5.8020916,-8.246738,4.1004663
1747679308.1267138,3.2256436,-3.0034904,1.6491557,-5.8020916,-8.246738,4.1004663
1747679308.127258,3.2256436,-3.0034904,1.6491557,-5.8020916,-8.246738,4.1004663
1747679308.1277921,3.2256436,-3.0034904,1.6491557,-5.8020916,-8.246738,4.1004663
1747679308.1283123,3.2256436,-3.0034904,1.6491557,-5.8020916,-8.246738,4.1004663
1747679308.1288314,3.2256436,-3.0034904,1.6491557,-5.8020916,-8.246738,4.1004663
1747679308.1293504,3.2256436,-3.0034904,1.6491557,-5.8020916,-8.246738,4.1004663
1747679308.1298695,3.2256436,-3.0034904,1.6491557,-5.8020916,-8.246738,4.1004663
1747679308.1303883,3.2256436,-3.0034904,1.6491557,-5.8020916,-8.246738,4.1004663
1747679308.1309068,3.2256436,-3.0034904,1.6491557,-5.8020916,-8.246738,4.1004663
1747679308.1314259,3.2256436,-3.0034904,1.6491557,-5.8020916,-8.246738,4.1004663
1747679308.1319444,3.2256436,-3.0034904,1.6491557,-5.8020916,-8.246738,4.1004663
1747679308.1324635,3.2256436,-3.0034904,1.6491557,-5.8020916,-8.246738,4.1004663
1747679308.132982,3.2256436,-3.0034904,1.6491557,-5.8020916,-8.246738,4.1004663
1747679308.1335008,3.2256436,-3.0034904,1.6491557,-5.8020916,-8.246738,4.1004663
1747679308.1340196,3.2256436,-3.0034904,1.6491557,-5.8020916,-8.246738,4.1004663
1747679308.134566,3.2256436,-3.0034904,1.6491557,-5.8020916,-8.246738,4.1004663
1747679308.135124,3.2256436,-3.0034904,1.6491557,-5.8020916,-8.246738,4.1004663
1747679308.135653,3.2256436,-3.0034904,1.6491557,-5.8020916,-8.246738,4.1004663
1747679308.1361766,3.2256436,-3.0034904,1.6491557,-5.8020916,-8.246738,4.1004663
1747679308.136776,3.2256436,-3.0034904,1.6491557,-5.8020916,-8.246738,4.1004663
1747679308.137314,3.8226078,-2.8975697,1.5925345,-5.5442977,-7.533012,4.225102
1747679308.1378424,3.8226078,-2.8975697,1.5925345,-5.5442977,-7.533012,4.225102
1747679308.1383698,3.8226078,-2.8975697,1.5925345,-5.5442977,-7.533012,4.225102
1747679308.138897,3.8226078,-2.8975697,1.5925345,-5.5442977,-7.533012,4.225102
1747679308.139424,3.8226078,-2.8975697,1.5925345,-5.5442977,-7.533012,4.225102
1747679308.1399584,3.8226078,-2.8975697,1.5925345,-5.5442977,-7.533012,4.225102
1747679308.140494,3.8226078,-2.8975697,1.5925345,-5.5442977,-7.533012,4.225102
1747679308.1410234,3.8226078,-2.8975697,1.5925345,-5.5442977,-7.533012,4.225102
1747679308.1415658,3.8226078,-2.8975697,1.5925345,-5.5442977,-7.533012,4.225102
1747679308.1421258,3.8226078,-2.8975697,1.5925345,-5.5442977,-7.533012,4.225102
1747679308.1426816,3.8226078,-2.8975697,1.5925345,-5.5442977,-7.533012,4.225102
1747679308.1432316,3.8226078,-2.8975697,1.5925345,-5.5442977,-7.533012,4.225102
1747679308.1437812,3.8226078,-2.8975697,1.5925345,-5.5442977,-7.533012,4.225102
1747679308.1443193,3.8226078,-2.8975697,1.5925345,-5.5879736,-6.507163,3.9332197
1747679308.144845,3.8226078,-2.8975697,1.5925345,-5.5879736,-6.507163,3.9332197
1747679308.1453652,4.0656886,-2.9239278,1.4675772,-5.5879736,-6.507163,3.9332197
1747679308.1458845,4.0656886,-2.9239278,1.4675772,-5.5879736,-6.507163,3.9332197
1747679308.1464033,4.0656886,-2.9239278,1.4675772,-5.5879736,-6.507163,3.9332197
1747679308.1469219,4.0656886,-2.9239278,1.4675772,-5.5879736,-6.507163,3.9332197
1747679308.1474404,4.0656886,-2.9239278,1.4675772,-5.5879736,-6.507163,3.9332197
1747679308.147959,4.0656886,-2.9239278,1.4675772,-5.5879736,-6.507163,3.9332197
1747679308.1484776,4.0656886,-2.9239278,1.4675772,-5.5879736,-6.507163,3.9332197
1747679308.148996,4.0656886,-2.9239278,1.4675772,-5.5879736,-6.507163,3.9332197
1747679308.149515,4.0656886,-2.9239278,1.4675772,-5.5879736,-6.507163,3.9332197
1747679308.1500647,4.0656886,-2.9239278,1.4675772,-5.5879736,-6.507163,3.9332197
1747679308.1506162,4.0656886,-2.9239278,1.4675772,-5.5879736,-6.507163,3.9332197
1747679308.1511428,4.0656886,-2.9239278,1.4675772,-5.5879736,-6.507163,3.9332197
1747679308.1516647,4.0656886,-2.9239278,1.4675772,-5.5879736,-6.507163,3.9332197
1747679308.152186,4.0656886,-2.9239278,1.4675772,-5.5879736,-6.507163,3.9332197
1747679308.1527069,4.0656886,-2.9239278,1.4675772,-5.5879736,-6.507163,3.9332197
1747679308.1532278,4.0656886,-2.9239278,1.4675772,-5.5879736,-6.507163,3.9332197
1747679308.1537492,4.0656886,-2.9239278,1.4675772,-5.5879736,-6.507163,3.9332197
1747679308.154282,4.0656886,-2.9239278,1.4675772,-5.5879736,-6.507163,3.9332197
1747679308.1548228,4.0656886,-2.9239278,1.4675772,-5.5879736,-6.507163,3.9332197
1747679308.1553464,4.0656886,-2.9239278,1.4675772,-5.5879736,-6.507163,3.9332197
1747679308.1558688,4.0656886,-2.9239278,1.4675772,-5.5879736,-6.507163,3.9332197
