timestamp,acc_x,acc_y,acc_z,gyro_x,gyro_y,gyro_z
1747672445.1200504,-0.037401773,0.98733366,0.10817838,0.006391582,0.062317923,-0.046472125
1747672445.1208322,-0.037401773,0.98733366,0.10817838,0.006391582,0.062317923,-0.046472125
1747672445.1215587,-0.037401773,0.98733366,0.10817838,0.006391582,0.062317923,-0.046472125
1747672445.122297,-0.037401773,0.98733366,0.10817838,0.006391582,0.062317923,-0.046472125
1747672445.1232603,-0.026663255,0.9795238,0.15650171,-0.012783164,0.056991603,-0.0038615807
1747672445.1242313,-0.026663255,0.9795238,0.15650171,-0.012783164,0.056991603,-0.0038615807
1747672445.1251209,-0.026663255,0.9795238,0.15650171,-0.012783164,0.056991603,-0.0038615807
1747672445.1261766,-0.026663255,0.9795238,0.15650171,-0.012783164,0.056991603,-0.0038615807
1747672445.1269422,-0.026663255,0.9795238,0.15650171,-0.012783164,0.056991603,-0.0038615807
1747672445.1279695,0.006528531,0.9785476,0.18920538,-0.012783164,0.056991603,-0.0038615807
1747672445.1853864,0.016778937,1.0195491,0.11794066,0.13422322,-0.21678115,-0.040080544
1747672445.1932852,0.092924796,1.0415143,0.1159882,0.092677936,-0.12303795,-0.054994237
1747672445.1940982,0.092924796,1.0415143,0.1159882,0.092677936,-0.12303795,-0.054994237
1747672445.1949017,0.092924796,1.0415143,0.1159882,0.092677936,-0.12303795,-0.054994237
1747672445.1956952,0.092924796,1.0415143,0.1159882,0.092677936,-0.12303795,-0.054994237
1747672445.196476,0.092924796,1.0415143,0.1159882,0.092677936,-0.12303795,-0.054994237
1747672445.1972027,0.092924796,1.0415143,0.1159882,0.092677936,-0.12303795,-0.054994237
1747672445.1979187,0.092924796,1.0415143,0.1159882,0.092677936,-0.12303795,-0.054994237
1747672445.1986368,0.092924796,1.0415143,0.1159882,0.092677936,-0.12303795,-0.054994237
1747672445.199454,0.092924796,1.0415143,0.1159882,0.092677936,-0.12303795,-0.054994237
1747672445.2003741,0.092924796,1.0415143,0.1159882,0.092677936,-0.12303795,-0.054994237
1747672445.2011073,0.092924796,1.0415143,0.1159882,0.092677936,-0.12303795,-0.054994237
1747672445.2018337,0.30427837,1.0527409,0.15064433,0.018109482,0.15712638,-0.15619428
1747672445.2025983,0.30427837,1.0527409,0.15064433,0.018109482,0.15712638,-0.15619428
1747672445.2037349,0.30427837,1.0527409,0.15064433,0.018109482,0.15712638,-0.15619428
1747672445.2045562,0.30427837,1.0527409,0.15064433,0.018109482,0.15712638,-0.15619428
1747672445.2591941,0.099270284,1.0576221,0.07010544,0.08628636,-0.60879815,0.13675322
1747672445.259991,0.099270284,1.0576221,0.07010544,0.08628636,-0.60879815,0.13675322
1747672445.2608216,0.099270284,1.0576221,0.07010544,0.08628636,-0.60879815,0.13675322
1747672445.2615879,0.099270284,1.0576221,0.07010544,0.08628636,-0.60879815,0.13675322
1747672445.262305,0.099270284,1.0576221,0.07010544,0.08628636,-0.60879815,0.13675322
1747672445.2630048,0.099270284,1.0576221,0.07010544,0.08628636,-0.60879815,0.13675322
1747672445.2637212,0.099270284,1.0576221,0.07010544,0.08628636,-0.60879815,0.13675322
1747672445.2644699,0.099270284,1.0576221,0.07010544,0.08628636,-0.60879815,0.13675322
1747672445.2651887,0.099270284,1.0576221,0.07010544,0.08628636,-0.60879815,0.13675322
1747672445.2659173,0.099270284,1.0576221,0.07010544,0.08628636,-0.60879815,0.13675322
1747672445.2666533,0.099270284,1.0576221,0.07010544,0.08628636,-0.60879815,0.13675322
1747672445.2673812,0.099270284,1.0576221,0.07010544,0.08628636,-0.60879815,0.13675322
1747672445.2681804,0.099270284,1.0576221,0.07010544,0.08628636,-0.60879815,0.13675322
1747672445.2690403,0.10073463,1.0727535,0.056438237,0.08628636,-0.60879815,0.13675322
1747672445.3035164,0.027029341,1.0493242,0.15991852,0.0021305273,-0.25726116,-0.037950017
1747672445.3046134,0.027029341,1.0493242,0.15991852,0.0021305273,-0.25726116,-0.037950017
1747672445.30537,0.027029341,1.0493242,0.15991852,0.0021305273,-0.25726116,-0.037950017
1747672445.3061047,0.027029341,1.0493242,0.15991852,0.0021305273,-0.25726116,-0.037950017
1747672445.3068519,0.027029341,1.0493242,0.15991852,0.0021305273,-0.25726116,-0.037950017
1747672445.3075893,0.045089576,1.0405381,0.16821645,0.0117179,-0.17843166,-0.05392897
1747672445.308314,0.045089576,1.0405381,0.16821645,0.0117179,-0.17843166,-0.05392897
1747672445.309037,0.045089576,1.0405381,0.16821645,0.0117179,-0.17843166,-0.05392897
1747672445.309738,0.045089576,1.0405381,0.16821645,0.0117179,-0.17843166,-0.05392897
1747672445.3104763,0.045089576,1.0405381,0.16821645,0.0117179,-0.17843166,-0.05392897
1747672445.311209,0.045089576,1.0405381,0.16821645,0.0117179,-0.17843166,-0.05392897
1747672445.3121572,0.045089576,1.0405381,0.16821645,0.0117179,-0.17843166,-0.05392897
1747672445.3129182,0.045089576,1.0405381,0.16821645,0.0117179,-0.17843166,-0.05392897
1747672445.3136683,0.045089576,1.0405381,0.16821645,0.0117179,-0.17843166,-0.05392897
1747672445.3146045,0.045089576,1.0405381,0.16821645,0.0117179,-0.17843166,-0.05392897
1747672445.3156083,0.045089576,1.0405381,0.16821645,0.0117179,-0.17843166,-0.05392897
1747672445.3512952,-0.047652178,0.95609426,0.18334801,0.08415583,-0.07403582,-0.033688962
1747672445.352439,-0.047652178,0.95609426,0.18334801,0.08415583,-0.07403582,-0.033688962
1747672445.353207,-0.047652178,0.95609426,0.18334801,0.08415583,-0.07403582,-0.033688962
1747672445.3539937,-0.047652178,0.95609426,0.18334801,0.08415583,-0.07403582,-0.033688962
1747672445.3547392,-0.047652178,0.95609426,0.18334801,0.08415583,-0.07403582,-0.033688962
1747672445.355457,-0.047652178,0.95609426,0.18334801,0.08415583,-0.07403582,-0.033688962
1747672445.3561542,-0.047652178,0.95609426,0.18334801,0.08415583,-0.07403582,-0.033688962
1747672445.3568475,-0.047652178,0.95609426,0.18334801,0.08415583,-0.07403582,-0.033688962
1747672445.3575697,-0.102321,0.9131402,0.16138285,0.18002956,-0.21891168,0.062184766
1747672445.358324,-0.102321,0.9131402,0.16138285,0.18002956,-0.21891168,0.062184766
1747672445.3590324,-0.102321,0.9131402,0.16138285,0.18002956,-0.21891168,0.062184766
1747672445.3597357,-0.102321,0.9131402,0.16138285,0.18002956,-0.21891168,0.062184766
1747672445.3604634,-0.102321,0.9131402,0.16138285,0.18002956,-0.21891168,0.062184766
1747672445.3612385,-0.102321,0.9131402,0.16138285,0.18002956,-0.21891168,0.062184766
1747672445.362006,-0.102321,0.9131402,0.16138285,0.18002956,-0.21891168,0.062184766
1747672445.3627515,-0.102321,0.9131402,0.16138285,0.18002956,-0.21891168,0.062184766
1747672445.4003775,0.012385906,0.74425256,0.000793186,0.34408015,-0.5661876,0.24114905
1747672445.4017718,0.012385906,0.74425256,0.000793186,0.34194964,-0.6482129,0.2784333
1747672445.4025786,0.012385906,0.74425256,0.000793186,0.34194964,-0.6482129,0.2784333
1747672445.4033854,0.012385906,0.74425256,0.000793186,0.34194964,-0.6482129,0.2784333
1747672445.404141,0.012385906,0.74425256,0.000793186,0.34194964,-0.6482129,0.2784333
1747672445.404882,0.012385906,0.74425256,0.000793186,0.34194964,-0.6482129,0.2784333
1747672445.405639,0.012385906,0.74425256,0.000793186,0.34194964,-0.6482129,0.2784333
1747672445.406387,0.012385906,0.74425256,0.000793186,0.34194964,-0.6482129,0.2784333
1747672445.4071534,0.012385906,0.74425256,0.000793186,0.34194964,-0.6482129,0.2784333
1747672445.4078963,0.012385906,0.74425256,0.000793186,0.34194964,-0.6482129,0.2784333
1747672445.4090736,0.012385906,0.74425256,0.000793186,0.34194964,-0.6482129,0.2784333
1747672445.4098573,0.012385906,0.74425256,0.000793186,0.34194964,-0.6482129,0.2784333
1747672445.443762,-0.005674331,0.48408753,-0.11244938,0.2311622,-1.0338384,0.5309008
1747672445.444657,-0.000793186,0.3649876,-0.1807854,0.1054611,-1.2298468,0.69495136
1747672445.4454405,-0.000793186,0.3649876,-0.1807854,0.1054611,-1.2298468,0.69495136
1747672445.446193,-0.000793186,0.3649876,-0.1807854,0.1054611,-1.2298468,0.69495136
1747672445.4469173,-0.000793186,0.3649876,-0.1807854,-0.115048476,-1.3896364,0.8962862
1747672445.4476175,-0.000793186,0.3649876,-0.1807854,-0.115048476,-1.3896364,0.8962862
1747672445.4482956,0.005552302,0.2371016,-0.25351447,-0.115048476,-1.3896364,0.8962862
1747672445.4489768,0.005552302,0.2371016,-0.25351447,-0.115048476,-1.3896364,0.8962862
1747672445.4496763,0.005552302,0.2371016,-0.25351447,-0.115048476,-1.3896364,0.8962862
1747672445.4506137,0.005552302,0.2371016,-0.25351447,-0.115048476,-1.3896364,0.8962862
1747672445.4513223,0.005552302,0.2371016,-0.25351447,-0.115048476,-1.3896364,0.8962862
1747672445.4520104,0.005552302,0.2371016,-0.25351447,-0.115048476,-1.3896364,0.8962862
1747672445.452739,0.005552302,0.2371016,-0.25351447,-0.115048476,-1.3896364,0.8962862
1747672445.4534423,0.005552302,0.2371016,-0.25351447,-0.115048476,-1.3896364,0.8962862
1747672445.4541216,0.005552302,0.2371016,-0.25351447,-0.115048476,-1.3896364,0.8962862
1747672445.4549031,0.005552302,0.2371016,-0.25351447,-0.115048476,-1.3896364,0.8962862
1747672445.4556515,0.005552302,0.2371016,-0.25351447,-0.115048476,-1.3896364,0.8962862
1747672445.4804215,0.040208433,0.1424074,-0.2720628,-0.41758335,-1.4130722,1.1189263
1747672445.4818087,0.10610388,-0.025015868,-0.11293749,-1.0098699,-1.2106721,1.5301181
1747672445.4826229,0.10610388,-0.025015868,-0.11293749,-1.0098699,-1.2106721,1.5301181
1747672445.483357,0.10610388,-0.025015868,-0.11293749,-1.0098699,-1.2106721,1.5301181
1747672445.4840717,0.10610388,-0.025015868,-0.11293749,-1.0098699,-1.2106721,1.5301181
1747672445.484762,0.10610388,-0.025015868,-0.11293749,-1.0098699,-1.2106721,1.5301181
1747672445.485441,0.10610388,-0.025015868,-0.11293749,-1.0098699,-1.2106721,1.5301181
1747672445.4861593,0.10610388,-0.025015868,-0.11293749,-1.0098699,-1.2106721,1.5301181
1747672445.4869566,0.10610388,-0.025015868,-0.11293749,-1.0098699,-1.2106721,1.5301181
1747672445.5118191,0.19005957,-0.20903502,0.11354763,-1.3038827,-1.2841753,2.043575
1747672445.5126667,0.19005957,-0.20903502,0.11354763,-1.3038827,-1.2841753,2.043575
1747672445.5134215,0.19005957,-0.20903502,0.11354763,-1.3038827,-1.2841753,2.043575
1747672445.5141563,0.19005957,-0.20903502,0.11354763,-1.3038827,-1.2841753,2.043575
1747672445.5148807,0.19005957,-0.20903502,0.11354763,-1.3038827,-1.2841753,2.043575
1747672445.5156384,0.19005957,-0.20903502,0.11354763,-1.3038827,-1.2841753,2.043575
1747672445.516362,0.19005957,-0.20903502,0.11354763,-1.3038827,-1.2841753,2.043575
1747672445.5168915,0.19005957,-0.20903502,0.11354763,-1.3038827,-1.2841753,2.043575
1747672445.517631,0.19005957,-0.20903502,0.11354763,-1.3038827,-1.2841753,2.043575
1747672445.5183825,0.19005957,-0.20903502,0.11354763,-1.3038827,-1.2841753,2.043575
1747672445.5434222,0.40482998,-0.8006298,0.4293577,-0.977912,-2.5529044,2.4984426
1747672445.544298,0.40482998,-0.8006298,0.4293577,-0.977912,-2.5529044,2.4984426
1747672445.5450783,0.40482998,-0.8006298,0.4293577,-0.977912,-2.5529044,2.4984426
1747672445.5458212,0.40482998,-0.8006298,0.4293577,-0.977912,-2.5529044,2.4984426
1747672445.5466094,0.40482998,-0.8006298,0.4293577,-0.977912,-2.5529044,2.4984426
1747672445.5473328,0.41019922,-0.8757994,0.4928126,-0.7957519,-3.0418603,2.835066
1747672445.5480301,0.41019922,-0.8757994,0.4928126,-0.7957519,-3.0418603,2.835066
1747672445.548744,0.41019922,-0.8757994,0.4928126,-0.7957519,-3.0418603,2.835066
1747672445.549483,0.41019922,-0.8757994,0.4928126,-0.7957519,-3.0418603,2.835066
1747672445.550254,0.41019922,-0.8757994,0.4928126,-0.7957519,-3.0418603,2.835066
1747672445.5738902,0.5170963,-0.9236346,0.51136094,-0.62211394,-3.2368035,3.2004514
1747672445.5747325,0.5170963,-0.9236346,0.51136094,-0.62211394,-3.2368035,3.2004514
1747672445.5755174,0.5170963,-0.9236346,0.51136094,-0.62211394,-3.2368035,3.2004514
1747672445.5762439,0.5170963,-0.9236346,0.51136094,-0.62211394,-3.2368035,3.2004514
1747672445.577005,0.5170963,-0.9236346,0.51136094,-0.62211394,-3.2368035,3.2004514
1747672445.577734,0.76896334,-0.9900182,0.17505006,-0.585895,-2.854374,3.719235
1747672445.5784292,0.76896334,-0.9900182,0.17505006,-0.585895,-2.854374,3.719235
1747672445.5791087,0.76896334,-0.9900182,0.17505006,-0.585895,-2.854374,3.719235
1747672445.5798695,0.76896334,-0.9900182,0.17505006,-0.585895,-2.854374,3.719235
1747672445.5806046,0.76896334,-0.9900182,0.17505006,-0.585895,-2.854374,3.719235
1747672445.605055,0.90905225,-1.0529851,-0.17883295,-1.268729,-2.2833927,4.0611844
1747672445.6061988,0.90905225,-1.0529851,-0.17883295,-1.268729,-2.2833927,4.0611844
1747672445.6069865,0.90905225,-1.0529851,-0.17883295,-1.268729,-2.2833927,4.0611844
1747672445.6077378,0.90905225,-1.0529851,-0.17883295,-1.268729,-2.2833927,4.0611844
1747672445.608493,0.90905225,-1.0529851,-0.17883295,-1.268729,-2.2833927,4.0611844
1747672445.6092086,0.90905225,-1.0529851,-0.17883295,-1.268729,-2.2833927,4.0611844
1747672445.6099014,1.0667132,-1.1008202,-0.16663007,-1.8407756,-2.1044283,4.269976
1747672445.6106114,1.0667132,-1.1008202,-0.16663007,-1.8407756,-2.1044283,4.269976
1747672445.6113625,1.0667132,-1.1008202,-0.16663007,-1.8407756,-2.1044283,4.269976
1747672445.6121626,1.0667132,-1.1008202,-0.16663007,-1.8407756,-2.1044283,4.269976
1747672445.6359174,1.3136991,-1.2218726,-0.023124425,-2.4533021,-2.0128157,4.579968
1747672445.6368222,1.3136991,-1.2218726,-0.023124425,-2.4533021,-2.0128157,4.579968
1747672445.637608,1.5274932,-1.334139,0.37566513,-2.7931213,-1.8988324,4.9357657
1747672445.6384456,1.6417121,-1.4039392,0.76566863,-2.7121613,-1.7763271,5.3906336
1747672445.639252,1.6417121,-1.4039392,0.76566863,-2.7121613,-1.7763271,5.3906336
1747672445.6399925,1.6417121,-1.4039392,0.76566863,-2.7121613,-1.7763271,5.3906336
1747672445.6407118,1.6417121,-1.4039392,0.76566863,-2.7121613,-1.7763271,5.3906336
1747672445.6413946,1.6417121,-1.4039392,0.76566863,-2.7121613,-1.7763271,5.3906336
1747672445.6421902,1.6417121,-1.4039392,0.76566863,-2.7121613,-1.7763271,5.3906336
1747672445.6429548,1.6417121,-1.4039392,0.76566863,-2.7121613,-1.7763271,5.3906336
1747672445.6498098,1.6417121,-1.4039392,0.76566863,-2.7121613,-1.7763271,5.3906336
1747672445.6749115,2.2777252,-1.2086935,1.0048447,-1.7204008,-2.051165,6.204495
1747672445.6757736,2.7302074,-1.0852005,0.77347845,-1.2910995,-2.2940452,6.24391
1747672445.676528,2.7302074,-1.0852005,0.77347845,-1.2910995,-2.2940452,6.24391
1747672445.6773214,2.7302074,-1.0852005,0.77347845,-1.2910995,-2.2940452,6.24391
1747672445.678087,2.7302074,-1.0852005,0.77347845,-1.2910995,-2.2940452,6.24391
1747672445.6788204,2.8976307,-0.9783035,0.43423885,-1.1622026,-2.4122896,6.091577
1747672445.6795359,2.8976307,-0.9783035,0.43423885,-1.1622026,-2.4122896,6.091577
1747672445.6802533,2.8976307,-0.9783035,0.43423885,-1.1622026,-2.4122896,6.091577
1747672445.68096,2.8976307,-0.9783035,0.43423885,-1.1622026,-2.4122896,6.091577
1747672445.6816466,2.8976307,-0.9783035,0.43423885,-1.1622026,-2.4122896,6.091577
1747672445.682323,2.8976307,-0.9783035,0.43423885,-1.1622026,-2.4122896,6.091577
1747672445.683013,2.8976307,-0.9783035,0.43423885,-1.1622026,-2.4122896,6.091577
1747672445.6837676,2.8976307,-0.9783035,0.43423885,-1.1622026,-2.4122896,6.091577
1747672445.6844907,2.8976307,-0.9783035,0.43423885,-1.1622026,-2.4122896,6.091577
1747672445.6851926,2.8976307,-0.9783035,0.43423885,-1.1622026,-2.4122896,6.091577
1747672445.685891,2.8976307,-0.9783035,0.43423885,-1.1622026,-2.4122896,6.091577
1747672445.686628,2.8976307,-0.9783035,0.43423885,-1.1622026,-2.4122896,6.091577
1747672445.687343,2.8976307,-0.9783035,0.43423885,-1.1622026,-2.4122896,6.091577
1747672445.6880236,2.8976307,-0.9783035,0.43423885,-1.1622026,-2.4122896,6.091577
1747672445.6887286,2.8976307,-0.9783035,0.43423885,-1.1622026,-2.4122896,6.091577
1747672445.6894367,2.8976307,-0.9783035,0.43423885,-1.1622026,-2.4122896,6.091577
1747672445.6901798,2.8976307,-0.9783035,0.43423885,-1.1622026,-2.4122896,6.091577
1747672445.6909976,2.8976307,-0.9783035,0.43423885,-1.1622026,-2.4122896,6.091577
1747672445.7204874,2.7731614,-0.98172027,0.033008743,-1.7385103,-2.317481,6.386655
1747672445.7213807,3.6219926,-0.9856252,0.27511355,-2.9401276,-1.497228,7.5690975
1747672445.7221339,3.6219926,-0.9856252,0.27511355,-2.9401276,-1.497228,7.5690975
1747672445.7229187,3.6219926,-0.9856252,0.27511355,-2.9401276,-1.497228,7.5690975
1747672445.7236881,3.6219926,-0.9856252,0.27511355,-2.9401276,-1.497228,7.5690975
1747672445.7244904,3.6219926,-0.9856252,0.27511355,-2.9401276,-1.497228,7.5690975
1747672445.725257,3.6219926,-0.9856252,0.27511355,-2.9401276,-1.497228,7.5690975
1747672445.726135,3.6219926,-0.9856252,0.27511355,-2.9401276,-1.497228,7.5690975
1747672445.7269392,3.6219926,-0.9856252,0.27511355,-2.9401276,-1.497228,7.5690975
1747672445.7277029,3.6219926,-0.9856252,0.27511355,-2.9401276,-1.497228,7.5690975
1747672445.72844,3.6219926,-0.9856252,0.27511355,-2.9401276,-1.497228,7.5690975
1747672445.7291794,3.6219926,-0.9856252,0.27511355,-2.9401276,-1.497228,7.5690975
1747672445.7299573,3.6219926,-0.9856252,0.27511355,-2.9401276,-1.497228,7.5690975
1747672445.7306705,3.6219926,-0.9856252,0.27511355,-2.9401276,-1.497228,7.5690975
1747672445.7313771,3.6219926,-0.9856252,0.27511355,-2.9401276,-1.497228,7.5690975
1747672445.732065,3.6219926,-0.9856252,0.27511355,-2.9401276,-1.497228,7.5690975
1747672445.7327592,4.52354,-0.91777724,0.6914752,-3.385408,-1.06047,7.930222
1747672445.7334802,4.52354,-0.91777724,0.6914752,-3.385408,-1.06047,7.930222
1747672445.7341688,4.52354,-0.91777724,0.6914752,-3.385408,-1.06047,7.930222
1747672445.7348561,4.52354,-0.91777724,0.6914752,-3.385408,-1.06047,7.930222
1747672445.7356331,4.52354,-0.91777724,0.6914752,-3.385408,-1.06047,7.930222
1747672445.7364106,4.52354,-0.91777724,0.6914752,-3.385408,-1.06047,7.930222
1747672445.7371383,4.52354,-0.91777724,0.6914752,-3.385408,-1.06047,7.930222
1747672445.7378383,4.52354,-0.91777724,0.6914752,-3.385408,-1.06047,7.930222
1747672445.7385366,4.52354,-0.91777724,0.6914752,-3.385408,-1.06047,7.930222
1747672445.739299,4.52354,-0.91777724,0.6914752,-3.385408,-1.06047,7.930222
1747672445.7400813,4.52354,-0.91777724,0.6914752,-3.385408,-1.06047,7.930222
1747672445.7408383,4.52354,-0.91777724,0.6914752,-3.385408,-1.06047,7.930222
1747672445.7415576,4.52354,-0.91777724,0.6914752,-3.385408,-1.06047,7.930222
1747672445.7422595,5.5397944,-0.61563444,1.2459733,-3.5164354,-0.907072,7.684146
1747672445.7430537,5.5397944,-0.61563444,1.2459733,-3.5164354,-0.907072,7.684146
1747672445.743787,5.5397944,-0.61563444,1.2459733,-3.5164354,-0.907072,7.684146
1747672445.7444828,5.5397944,-0.61563444,1.2459733,-3.5164354,-0.907072,7.684146
1747672445.745187,5.5397944,-0.61563444,1.2459733,-3.5164354,-0.907072,7.684146
1747672445.745877,5.5397944,-0.61563444,1.2459733,-3.5164354,-0.907072,7.684146
1747672445.746563,5.5397944,-0.61563444,1.2459733,-3.5164354,-0.907072,7.684146
1747672445.7473028,5.5397944,-0.61563444,1.2459733,-3.5164354,-0.907072,7.684146
1747672445.7480392,5.5397944,-0.61563444,1.2459733,-3.5164354,-0.907072,7.684146
1747672445.7487342,5.5397944,-0.61563444,1.2459733,-3.4035172,-1.1201247,7.1195564
1747672445.7494404,5.9356556,-0.27737105,1.4348736,-3.4035172,-1.1201247,7.1195564
1747672445.750149,5.9356556,-0.27737105,1.4348736,-3.4035172,-1.1201247,7.1195564
1747672445.750844,5.9356556,-0.27737105,1.4348736,-3.4035172,-1.1201247,7.1195564
1747672445.7515557,5.9356556,-0.27737105,1.4348736,-3.4035172,-1.1201247,7.1195564
1747672445.7522633,5.9356556,-0.27737105,1.4348736,-3.4035172,-1.1201247,7.1195564
1747672445.752977,5.9356556,-0.27737105,1.4348736,-3.4035172,-1.1201247,7.1195564
1747672445.7536821,5.9356556,-0.27737105,1.4348736,-3.4035172,-1.1201247,7.1195564
1747672445.754401,5.9356556,-0.27737105,1.4348736,-3.4035172,-1.1201247,7.1195564
1747672445.7552116,5.9356556,-0.27737105,1.4348736,-3.4035172,-1.1201247,7.1195564
1747672445.7854779,5.2806053,0.2063504,1.4016818,-3.2597067,-1.375788,6.0319223
1747672445.7866526,4.9291635,0.37963104,1.3084519,-3.2916646,-1.3118721,5.9275265
1747672445.787434,4.9291635,0.37963104,1.3084519,-3.2916646,-1.3118721,5.9275265
1747672445.7883222,4.845207,0.51532686,1.2357228,-3.3907342,-1.238369,5.8231306
1747672445.7890763,4.845207,0.51532686,1.2357228,-3.3907342,-1.238369,5.8231306
1747672445.7897825,4.845207,0.51532686,1.2357228,-3.3907342,-1.238369,5.8231306
1747672445.7904813,4.845207,0.51532686,1.2357228,-3.3907342,-1.238369,5.8231306
1747672445.791178,4.845207,0.51532686,1.2357228,-3.3907342,-1.238369,5.8231306
1747672445.791878,4.845207,0.51532686,1.2357228,-3.3907342,-1.238369,5.8231306
1747672445.792612,4.845207,0.51532686,1.2357228,-3.3907342,-1.238369,5.8231306
1747672445.793312,4.845207,0.51532686,1.2357228,-3.3907342,-1.238369,5.8231306
1747672445.7940133,4.845207,0.51532686,1.2357228,-3.3907342,-1.238369,5.8231306
1747672445.79473,4.845207,0.51532686,1.2357228,-3.3907342,-1.238369,5.8231306
1747672445.7954297,4.845207,0.51532686,1.2357228,-3.3907342,-1.238369,5.8231306
1747672445.7961247,4.845207,0.51532686,1.2357228,-3.3907342,-1.238369,5.8231306
1747672445.7968187,4.845207,0.51532686,1.2357228,-3.3907342,-1.238369,5.8231306
1747672445.797514,4.845207,0.51532686,1.2357228,-3.3907342,-1.238369,5.8231306
1747672445.7982378,4.845207,0.51532686,1.2357228,-3.3907342,-1.238369,5.8231306
1747672445.7990594,4.845207,0.51532686,1.2357228,-3.3907342,-1.238369,5.8231306
1747672445.7998152,4.845207,0.51532686,1.2357228,-3.3907342,-1.238369,5.8231306
1747672445.8005366,4.845207,0.51532686,1.2357228,-3.3907342,-1.238369,5.8231306
1747672445.8012877,4.845207,0.51532686,1.2357228,-3.3907342,-1.238369,5.8231306
1747672445.802027,4.845207,0.51532686,1.2357228,-3.3907342,-1.238369,5.8231306
1747672445.802748,4.845207,0.51532686,1.2357228,-3.3907342,-1.238369,5.8231306
1747672445.8034856,4.845207,0.51532686,1.2357228,-3.3907342,-1.238369,5.8231306
1747672445.8043177,4.6514263,0.7896472,1.1991142,-3.5196311,-1.2777838,5.6079473
1747672445.8050768,4.6514263,0.7896472,1.1991142,-3.5196311,-1.2777838,5.6079473
1747672445.8058422,4.6514263,0.7896472,1.1991142,-3.5196311,-1.2777838,5.6079473
1747672445.8203154,4.499134,0.9028898,1.1712917,-3.6027217,-1.3022848,5.4641366
1747672445.835798,3.8431087,1.1318154,1.3421319,-3.8519933,-1.149952,4.798347
1747672445.8365645,3.8431087,1.1318154,1.3421319,-3.8519933,-1.149952,4.798347
1747672445.83735,3.8431087,1.1318154,1.3421319,-3.8519933,-1.149952,4.798347
1747672445.83814,3.8431087,1.1318154,1.3421319,-3.8519933,-1.149952,4.798347
1747672445.8389378,3.8431087,1.1318154,1.3421319,-3.8519933,-1.149952,4.798347
1747672445.8396838,3.8431087,1.1318154,1.3421319,-3.8519933,-1.149952,4.798347
1747672445.8404121,3.8431087,1.1318154,1.3421319,-3.8519933,-1.149952,4.798347
1747672445.841201,3.8431087,1.1318154,1.3421319,-3.8519933,-1.149952,4.798347
1747672445.8425093,3.8431087,1.1318154,1.3421319,-3.8519933,-1.149952,4.798347
1747672445.8434024,3.4301636,1.202104,1.5285915,-3.6740942,-1.1041458,4.4255047
1747672445.8442125,3.4301636,1.202104,1.5285915,-3.6740942,-1.1041458,4.4255047
1747672445.8450089,3.4301636,1.202104,1.5285915,-3.6740942,-1.1041458,4.4255047
1747672445.84628,3.4301636,1.202104,1.5285915,-3.6740942,-1.1041458,4.4255047
1747672445.8516934,2.9640143,1.2689756,1.5871652,-3.3406668,-1.0221205,4.0697064
1747672445.8525877,2.9640143,1.2689756,1.5871652,-3.3406668,-1.0221205,4.0697064
1747672445.8534534,2.9640143,1.2689756,1.5871652,-3.3406668,-1.0221205,4.0697064
1747672445.8561628,2.9640143,1.2689756,1.5871652,-3.3406668,-1.0221205,4.0697064
1747672445.8575127,2.9640143,1.2689756,1.5871652,-3.3406668,-1.0221205,4.0697064
1747672445.859847,2.9640143,1.2689756,1.5871652,-3.3406668,-1.0221205,4.0697064
1747672445.8633778,2.9640143,1.2689756,1.5871652,-3.3406668,-1.0221205,4.0697064
1747672445.864978,2.5178776,1.3700153,1.6262144,-3.3406668,-1.0221205,4.0697064
1747672445.86582,2.5178776,1.3700153,1.6262144,-3.3406668,-1.0221205,4.0697064
1747672445.8666403,2.5178776,1.3700153,1.6262144,-3.3406668,-1.0221205,4.0697064
1747672445.8676324,2.5178776,1.3700153,1.6262144,-3.3406668,-1.0221205,4.0697064
1747672445.8692458,2.5178776,1.3700153,1.6262144,-3.3406668,-1.0221205,4.0697064
1747672445.8711858,2.5178776,1.3700153,1.6262144,-3.3406668,-1.0221205,4.0697064
1747672445.8729286,2.5178776,1.3700153,1.6262144,-3.3406668,-1.0221205,4.0697064
1747672445.873926,2.2874875,1.4012547,1.6843,-2.4639547,-0.7483477,3.4124389
1747672445.8746963,2.2874875,1.4012547,1.6843,-2.4639547,-0.7483477,3.4124389
1747672445.8755114,2.2874875,1.4012547,1.6843,-2.4639547,-0.7483477,3.4124389
1747672445.876298,2.2874875,1.4012547,1.6843,-2.4639547,-0.7483477,3.4124389
1747672445.877101,2.2874875,1.4012547,1.6843,-2.4639547,-0.7483477,3.4124389
1747672445.8779817,2.2874875,1.4012547,1.6843,-2.4639547,-0.7483477,3.4124389
1747672445.8787372,1.9126157,1.3880756,1.7458025,-2.4639547,-0.7483477,3.4124389
1747672445.8806984,1.9126157,1.3880756,1.7458025,-2.4639547,-0.7483477,3.4124389
1747672445.8815088,1.9126157,1.3880756,1.7458025,-2.4639547,-0.7483477,3.4124389
1747672445.8823278,1.9126157,1.3880756,1.7458025,-2.4639547,-0.7483477,3.4124389
1747672445.8830988,1.9126157,1.3880756,1.7458025,-2.4639547,-0.7483477,3.4124389
1747672445.8841822,1.9126157,1.3880756,1.7458025,-1.7491629,-0.43302968,2.9490492
1747672445.8857222,1.9126157,1.3880756,1.7458025,-1.7491629,-0.43302968,2.9490492
1747672445.8864975,1.9126157,1.3880756,1.7458025,-1.7491629,-0.43302968,2.9490492
1747672445.887286,1.9126157,1.3880756,1.7458025,-1.7491629,-0.43302968,2.9490492
1747672445.888176,1.9126157,1.3880756,1.7458025,-1.7491629,-0.43302968,2.9490492
1747672445.8889582,1.9126157,1.3880756,1.7458025,-1.7491629,-0.43302968,2.9490492
1747672445.8899686,1.4537879,1.338776,1.7526362,-1.1845732,-0.2210422,2.709365
1747672445.8907845,1.4537879,1.338776,1.7526362,-1.1845732,-0.2210422,2.709365
1747672445.9006898,1.4537879,1.338776,1.7526362,-1.1845732,-0.2210422,2.709365
1747672445.9047856,0.9524944,1.3646461,1.5769149,-0.28549066,-0.010120004,2.4931164
1747672445.9087708,0.7626179,1.3563482,1.3577515,0.25992432,0.08788425,2.3961773
1747672445.9095476,0.7626179,1.3563482,1.3577515,0.25992432,0.08788425,2.3961773
1747672445.9103386,0.7626179,1.3563482,1.3577515,0.25992432,0.08788425,2.3961773
1747672445.9110785,0.7626179,1.3563482,1.3577515,0.25992432,0.08788425,2.3961773
1747672445.9117975,0.7626179,1.3563482,1.3577515,0.25992432,0.08788425,2.3961773
1747672445.9124968,0.7626179,1.3563482,1.3577515,0.25992432,0.08788425,2.3961773
1747672445.9131935,0.7626179,1.3563482,1.3577515,0.25992432,0.08788425,2.3961773
1747672445.913889,0.7626179,1.3563482,1.3577515,0.25992432,0.08788425,2.3961773
1747672445.9145885,0.7626179,1.3563482,1.3577515,0.25992432,0.08788425,2.3961773
1747672445.915335,0.7626179,1.3563482,1.3577515,0.25992432,0.08788425,2.3961773
1747672445.9172738,0.7626179,1.3563482,1.3577515,0.25992432,0.08788425,2.3961773
1747672445.9185534,0.7626179,1.3563482,1.3577515,0.25992432,0.08788425,2.3961773
1747672445.9201965,0.7626179,1.3563482,1.3577515,0.25992432,0.08788425,2.3961773
1747672445.922257,0.7626179,1.3563482,1.3577515,0.25992432,0.08788425,2.3961773
1747672445.9337072,0.618136,1.3304781,1.1019795,0.7041393,0.224238,2.2821941
1747672445.935161,0.43802178,1.3890519,0.7793358,1.1845732,0.5320992,2.0648804
1747672445.9362693,0.43802178,1.3890519,0.7793358,1.1845732,0.5320992,2.0648804
1747672445.9381318,0.43802178,1.3890519,0.7793358,1.1845732,0.5320992,2.0648804
1747672445.943823,0.43802178,1.3890519,0.7793358,1.1845732,0.5320992,2.0648804
1747672445.9461653,0.43802178,1.3890519,0.7793358,1.1845732,0.5320992,2.0648804
1747672445.9472091,0.43802178,1.3890519,0.7793358,1.1845732,0.5320992,2.0648804
1747672445.94842,0.27450338,1.4734956,0.5645654,1.519066,0.83250356,1.8049561
1747672445.9492218,0.27450338,1.4734956,0.5645654,1.519066,0.83250356,1.8049561
1747672445.9499917,0.27450338,1.4734956,0.5645654,1.519066,0.83250356,1.8049561
1747672445.9507291,0.27450338,1.4734956,0.5645654,1.519066,0.83250356,1.8049561
1747672445.9514382,0.052899405,1.517914,0.3815225,1.8801904,1.0679268,1.5024213
1747672445.9521716,0.052899405,1.517914,0.3815225,1.8801904,1.0679268,1.5024213
1747672445.9528804,0.052899405,1.517914,0.3815225,1.8801904,1.0679268,1.5024213
1747672445.95361,0.052899405,1.517914,0.3815225,1.8801904,1.0679268,1.5024213
1747672445.954347,0.052899405,1.517914,0.3815225,1.8801904,1.0679268,1.5024213
1747672445.9550877,0.052899405,1.517914,0.3815225,1.8801904,1.0679268,1.5024213
1747672445.9643633,0.052899405,1.517914,0.3815225,1.8801904,1.0679268,1.5024213
1747672445.9665174,0.052899405,1.517914,0.3815225,1.8801904,1.0679268,1.5024213
1747672445.96792,0.052899405,1.517914,0.3815225,1.8801904,1.0679268,1.5024213
1747672445.9688137,0.052899405,1.517914,0.3815225,1.8801904,1.0679268,1.5024213
1747672445.9749868,-0.46157324,1.5672135,-0.24570462,2.2977736,1.1467563,1.2148
1747672445.976164,-0.46157324,1.5672135,-0.24570462,2.2977736,1.1467563,1.2148
1747672445.976963,-0.46157324,1.5672135,-0.24570462,2.2977736,1.1467563,1.2148
1747672445.9778004,-0.46157324,1.5672135,-0.24570462,2.2977736,1.1467563,1.2148
1747672445.9785814,-0.46157324,1.5672135,-0.24570462,2.8591676,0.54168653,0.7354314
1747672445.979374,-0.6597477,1.5657493,-0.6698761,2.8591676,0.54168653,0.7354314
1747672445.9801466,-0.6597477,1.5657493,-0.6698761,2.8591676,0.54168653,0.7354314
1747672445.9809432,-0.6597477,1.5657493,-0.6698761,2.8591676,0.54168653,0.7354314
1747672445.9818,-0.6597477,1.5657493,-0.6698761,2.8591676,0.54168653,0.7354314
1747672445.9826348,-0.6597477,1.5657493,-0.6698761,2.8591676,0.54168653,0.7354314
1747672445.9844973,-0.6597477,1.5657493,-0.6698761,2.8591676,0.54168653,0.7354314
1747672445.985973,-0.6597477,1.5657493,-0.6698761,2.8591676,0.54168653,0.7354314
1747672445.9867783,-0.6597477,1.5657493,-0.6698761,2.8591676,0.54168653,0.7354314
1747672445.9876003,-0.6597477,1.5657493,-0.6698761,2.8591676,0.54168653,0.7354314
1747672445.9883914,-0.6597477,1.5657493,-0.6698761,2.8591676,0.54168653,0.7354314
1747672445.98918,-0.7934911,1.5925956,-1.0857497,2.784599,0.18269272,0.60120815
1747672445.9899657,-0.7934911,1.5925956,-1.0857497,2.784599,0.18269272,0.60120815
1747672445.9906867,-0.7934911,1.5925956,-1.0857497,2.784599,0.18269272,0.60120815
1747672445.991397,-0.7934911,1.5925956,-1.0857497,2.784599,0.18269272,0.60120815
1747672445.9920964,-0.7934911,1.5925956,-1.0857497,2.784599,0.18269272,0.60120815
1747672445.992794,-0.7934911,1.5925956,-1.0857497,2.784599,0.18269272,0.60120815
1747672445.9935422,-0.7934911,1.5925956,-1.0857497,2.784599,0.18269272,0.60120815
1747672445.994245,-0.7934911,1.5925956,-1.0857497,2.784599,0.18269272,0.60120815
1747672445.9949555,-0.7934911,1.5925956,-1.0857497,2.784599,0.18269272,0.60120815
1747672445.9956634,-0.7934911,1.5925956,-1.0857497,2.784599,0.18269272,0.60120815
1747672445.9964106,-0.7934911,1.5925956,-1.0857497,2.784599,0.18269272,0.60120815
1747672445.9971526,-0.7934911,1.5925956,-1.0857497,2.784599,0.18269272,0.60120815
1747672445.9978664,-0.7934911,1.5925956,-1.0857497,2.784599,0.18269272,0.60120815
1747672445.9985616,-0.7934911,1.5925956,-1.0857497,2.784599,0.18269272,0.60120815
1747672445.9992712,-0.7934911,1.5925956,-1.0857497,2.784599,0.18269272,0.60120815
1747672446.0000072,-0.7934911,1.5925956,-1.0857497,2.784599,0.18269272,0.60120815
1747672446.0007803,-0.7934911,1.5925956,-1.0857497,2.784599,0.18269272,0.60120815
1747672446.001525,-0.8310759,1.628716,-1.470872,2.2903168,-0.19334535,0.40946072
1747672446.0022798,-0.8310759,1.628716,-1.470872,2.2903168,-0.19334535,0.40946072
1747672446.0031025,-0.8310759,1.628716,-1.470872,2.2903168,-0.19334535,0.40946072
1747672446.0038488,-0.8310759,1.628716,-1.470872,2.2903168,-0.19334535,0.40946072
1747672446.0068972,-0.8310759,1.628716,-1.470872,2.2903168,-0.19334535,0.40946072
1747672446.0081105,-0.8310759,1.628716,-1.470872,2.2903168,-0.19334535,0.40946072
1747672446.0091746,-0.8310759,1.628716,-1.470872,2.2903168,-0.19334535,0.40946072
1747672446.010502,-0.8310759,1.628716,-1.470872,2.2903168,-0.19334535,0.40946072
1747672446.012485,-0.8310759,1.628716,-1.470872,2.2903168,-0.19334535,0.40946072
1747672446.0134077,-0.8310759,1.628716,-1.470872,2.2903168,-0.19334535,0.40946072
1747672446.014327,-0.8310759,1.628716,-1.470872,2.2903168,-0.19334535,0.40946072
1747672446.0166285,-0.81350386,1.684361,-1.5992461,1.5808512,-0.30839384,0.25819328
1747672446.021841,-0.81350386,1.684361,-1.5992461,1.5808512,-0.30839384,0.25819328
1747672446.0226152,-0.6509617,1.7238984,-1.5587326,0.9044088,-0.28069696,0.11757848
1747672446.0234535,-0.6509617,1.7238984,-1.5587326,0.9044088,-0.28069696,0.11757848
1747672446.0248806,-0.6509617,1.7238984,-1.5587326,0.9044088,-0.28069696,0.11757848
1747672446.02684,-0.6509617,1.7238984,-1.5587326,0.9044088,-0.28069696,0.11757848
1747672446.028089,-0.6509617,1.7238984,-1.5587326,0.9044088,-0.28069696,0.11757848
1747672446.0307062,-0.36053357,1.7102312,-1.1902062,-0.0117179,-0.21997695,-0.19347851
1747672446.034047,-0.36053357,1.7102312,-1.1902062,-0.0117179,-0.21997695,-0.19347851
1747672446.0348585,-0.36053357,1.7102312,-1.1902062,-0.0117179,-0.21997695,-0.19347851
1747672446.0358644,-0.36053357,1.7102312,-1.1902062,-0.0117179,-0.21997695,-0.19347851
1747672446.0366843,-0.36053357,1.7102312,-1.1902062,-0.0117179,-0.21997695,-0.19347851
1747672446.0374627,-0.36053357,1.7102312,-1.1902062,-0.0117179,-0.21997695,-0.19347851
1747672446.0382388,-0.36053357,1.7102312,-1.1902062,-0.0117179,-0.21997695,-0.19347851
1747672446.0390134,-0.36053357,1.7102312,-1.1902062,-0.0117179,-0.21997695,-0.19347851
1747672446.0397787,-0.36053357,1.7102312,-1.1902062,-0.0117179,-0.21997695,-0.19347851
1747672446.0405664,-0.20726562,1.6902184,-0.8875752,-0.0117179,-0.21997695,-0.19347851
1747672446.0413485,-0.20726562,1.6902184,-0.8875752,-0.46765074,-0.2093243,-0.44381547
1747672446.0420952,-0.20726562,1.6902184,-0.8875752,-0.46765074,-0.2093243,-0.44381547
1747672446.042811,-0.20726562,1.6902184,-0.8875752,-0.46765074,-0.2093243,-0.44381547
1747672446.0435297,-0.20726562,1.6902184,-0.8875752,-0.46765074,-0.2093243,-0.44381547
1747672446.0442617,-0.20726562,1.6902184,-0.8875752,-0.46765074,-0.2093243,-0.44381547
1747672446.0449812,-0.20726562,1.6902184,-0.8875752,-0.46765074,-0.2093243,-0.44381547
1747672446.0457006,-0.20726562,1.6902184,-0.8875752,-0.46765074,-0.2093243,-0.44381547
1747672446.0464163,-0.20726562,1.6902184,-0.8875752,-0.46765074,-0.2093243,-0.44381547
1747672446.047119,-0.20726562,1.6902184,-0.8875752,-0.46765074,-0.2093243,-0.44381547
1747672446.0478096,-0.20726562,1.6902184,-0.8875752,-0.46765074,-0.2093243,-0.44381547
1747672446.0485137,-0.20726562,1.6902184,-0.8875752,-0.46765074,-0.2093243,-0.44381547
1747672446.0492787,-0.20726562,1.6902184,-0.8875752,-0.46765074,-0.2093243,-0.44381547
1747672446.0500362,-0.20726562,1.6902184,-0.8875752,-0.46765074,-0.2093243,-0.44381547
1747672446.0519867,-0.20726562,1.6902184,-0.8875752,-0.46765074,-0.2093243,-0.44381547
1747672446.0528398,-0.20726562,1.6902184,-0.8875752,-0.8490151,-0.21465063,-0.75061136
1747672446.0536957,-0.20726562,1.6902184,-0.8875752,-0.8490151,-0.21465063,-0.75061136
1747672446.0545428,-0.20726562,1.6902184,-0.8875752,-0.8490151,-0.21465063,-0.75061136
1747672446.0555236,0.06754284,1.6433594,-0.43753365,-0.8490151,-0.21465063,-0.75061136
1747672446.0563493,0.06754284,1.6433594,-0.43753365,-0.8490151,-0.21465063,-0.75061136
1747672446.057153,0.06754284,1.6433594,-0.43753365,-0.8490151,-0.21465063,-0.75061136
1747672446.0579317,0.06754284,1.6433594,-0.43753365,-0.8490151,-0.21465063,-0.75061136
1747672446.058873,0.06754284,1.6433594,-0.43753365,-0.8490151,-0.21465063,-0.75061136
1747672446.0596788,0.06754284,1.6433594,-0.43753365,-0.8490151,-0.21465063,-0.75061136
1747672446.0607893,0.4419267,1.5720947,0.18920538,-0.896952,-0.21358536,-1.2310452
1747672446.0617785,0.4419267,1.5720947,0.18920538,-0.896952,-0.21358536,-1.2310452
1747672446.0629144,0.4419267,1.5720947,0.18920538,-0.896952,-0.21358536,-1.2310452
1747672446.063718,0.4419267,1.5720947,0.18920538,-0.896952,-0.21358536,-1.2310452
1747672446.0674908,0.4419267,1.5720947,0.18920538,-0.896952,-0.21358536,-1.2310452
1747672446.0684278,0.4419267,1.5720947,0.18920538,-0.896952,-0.21358536,-1.2310452
1747672446.0694337,0.6483991,1.4681263,0.4752405,-0.7147919,-0.14753902,-1.5793865
1747672446.0702362,0.6483991,1.4681263,0.4752405,-0.7147919,-0.14753902,-1.5793865
1747672446.0710866,0.6483991,1.4681263,0.4752405,-0.7147919,-0.14753902,-1.5793865
1747672446.0719073,0.6483991,1.4681263,0.4752405,-0.7147919,-0.14753902,-1.5793865
1747672446.0727284,0.6483991,1.4681263,0.4752405,-0.7147919,-0.14753902,-1.5793865
1747672446.0735219,0.6483991,1.4681263,0.4752405,-0.7147919,-0.14753902,-1.5793865
1747672446.0746706,0.6483991,1.4681263,0.4752405,-0.7147919,-0.14753902,-1.5793865
1747672446.0755298,0.6483991,1.4681263,0.4752405,-0.7147919,-0.14753902,-1.5793865
1747672446.0765512,0.6483991,1.4681263,0.4752405,-0.7147919,-0.14753902,-1.5793865
1747672446.0783606,0.7714039,1.3695272,0.6870822,-0.7147919,-0.14753902,-1.5793865
1747672446.0798168,0.7714039,1.3695272,0.6870822,-0.3632549,-0.085753724,-2.0225363
1747672446.0806134,0.7714039,1.3695272,0.6870822,-0.3632549,-0.085753724,-2.0225363
1747672446.0814407,0.7714039,1.3695272,0.6870822,-0.3632549,-0.085753724,-2.0225363
1747672446.0822272,0.7714039,1.3695272,0.6870822,-0.3632549,-0.085753724,-2.0225363
1747672446.0830145,0.7714039,1.3695272,0.6870822,-0.3632549,-0.085753724,-2.0225363
1747672446.0838108,0.7714039,1.3695272,0.6870822,-0.3632549,-0.085753724,-2.0225363
1747672446.0846648,0.7714039,1.3695272,0.6870822,-0.3632549,-0.085753724,-2.0225363
1747672446.0854332,0.7714039,1.3695272,0.6870822,-0.3632549,-0.085753724,-2.0225363
1747672446.0862267,0.7714039,1.3695272,0.6870822,-0.3632549,-0.085753724,-2.0225363
1747672446.0870175,0.7714039,1.3695272,0.6870822,-0.3632549,-0.085753724,-2.0225363
1747672446.0877607,0.7714039,1.3695272,0.6870822,-0.3632549,-0.085753724,-2.0225363
1747672446.088523,0.7714039,1.3695272,0.6870822,-0.3632549,-0.085753724,-2.0225363
1747672446.0892515,0.7714039,1.3695272,0.6870822,-0.3632549,-0.085753724,-2.0225363
1747672446.0899556,0.8104531,1.2972863,0.75004894,0.12144005,-0.23382537,-2.4518375
1747672446.0907135,0.8104531,1.2972863,0.75004894,0.12144005,-0.23382537,-2.4518375
1747672446.0914252,0.8104531,1.2972863,0.75004894,0.12144005,-0.23382537,-2.4518375
1747672446.0921478,0.8104531,1.2972863,0.75004894,0.12144005,-0.23382537,-2.4518375
1747672446.092917,0.8104531,1.2972863,0.75004894,0.12144005,-0.23382537,-2.4518375
1747672446.0936744,0.8104531,1.2972863,0.75004894,0.12144005,-0.23382537,-2.4518375
1747672446.0944088,0.8104531,1.2972863,0.75004894,0.12144005,-0.23382537,-2.4518375
1747672446.0951598,0.8104531,1.2972863,0.75004894,0.12144005,-0.23382537,-2.4518375
1747672446.095925,0.8104531,1.2972863,0.75004894,0.12144005,-0.23382537,-2.4518375
1747672446.096659,0.8104531,1.2972863,0.75004894,0.12144005,-0.23382537,-2.4518375
1747672446.0981238,0.8104531,1.2972863,0.75004894,0.12144005,-0.23382537,-2.4518375
1747672446.0999186,0.8104531,1.2972863,0.75004894,0.3749728,-0.3787012,-2.6947176
1747672446.1007152,0.8104531,1.2972863,0.75004894,0.3749728,-0.3787012,-2.6947176
1747672446.1017442,0.89245635,1.1820914,0.6670695,0.3749728,-0.3787012,-2.6947176
1747672446.1025784,0.89245635,1.1820914,0.6670695,0.3749728,-0.3787012,-2.6947176
1747672446.1033907,0.89245635,1.1820914,0.6670695,0.3749728,-0.3787012,-2.6947176
1747672446.1042378,0.89245635,1.1820914,0.6670695,0.3749728,-0.3787012,-2.6947176
1747672446.1052082,0.89245635,1.1820914,0.6670695,0.3749728,-0.3787012,-2.6947176
1747672446.106032,0.89245635,1.1820914,0.6670695,0.3749728,-0.3787012,-2.6947176
1747672446.10715,0.89245635,1.1820914,0.6670695,0.3749728,-0.3787012,-2.6947176
1747672446.1079514,0.89245635,1.1820914,0.6670695,0.3749728,-0.3787012,-2.6947176
1747672446.1087828,0.89245635,1.1820914,0.6670695,0.3749728,-0.3787012,-2.6947176
1747672446.1099043,0.89245635,1.1820914,0.6670695,0.3749728,-0.3787012,-2.6947176
1747672446.111086,0.89245635,1.1820914,0.6670695,0.3749728,-0.3787012,-2.6947176
1747672446.1136312,1.0398669,1.0522528,0.5133134,0.5816339,-0.361657,-3.0654292
1747672446.114457,1.0398669,1.0522528,0.5133134,0.5816339,-0.361657,-3.0654292
1747672446.1152663,1.0398669,1.0522528,0.5133134,0.5816339,-0.361657,-3.0654292
1747672446.116065,1.0398669,1.0522528,0.5133134,0.5816339,-0.361657,-3.0654292
1747672446.1168685,1.0398669,1.0522528,0.5133134,0.5816339,-0.361657,-3.0654292
1747672446.1176622,1.0398669,1.0522528,0.5133134,0.5816339,-0.361657,-3.0654292
1747672446.1181917,1.0398669,1.0522528,0.5133134,0.5816339,-0.361657,-3.0654292
1747672446.1189835,1.0398669,1.0522528,0.5133134,0.5816339,-0.361657,-3.0654292
1747672446.1197765,1.0398669,1.0522528,0.5133134,0.5816339,-0.361657,-3.0654292
1747672446.1205592,1.1155246,0.96048725,0.44888228,0.5816339,-0.361657,-3.0654292
1747672446.1215105,1.1155246,0.96048725,0.44888228,0.6210487,-0.16458324,-3.3818126
1747672446.1227534,1.1155246,0.96048725,0.44888228,0.6210487,-0.16458324,-3.3818126
1747672446.123648,1.1155246,0.96048725,0.44888228,0.6210487,-0.16458324,-3.3818126
1747672446.124787,1.1155246,0.96048725,0.44888228,0.6210487,-0.16458324,-3.3818126
1747672446.126626,1.1155246,0.96048725,0.44888228,0.6210487,-0.16458324,-3.3818126
1747672446.127461,1.1155246,0.96048725,0.44888228,0.6210487,-0.16458324,-3.3818126
1747672446.1285496,1.1155246,0.96048725,0.44888228,0.6210487,-0.16458324,-3.3818126
1747672446.1295028,1.1155246,0.96048725,0.44888228,0.6210487,-0.16458324,-3.3818126
1747672446.1305687,1.1155246,0.96048725,0.44888228,0.6210487,-0.16458324,-3.3818126
1747672446.1313653,1.1155246,0.96048725,0.44888228,0.6210487,-0.16458324,-3.3818126
1747672446.132143,1.1155246,0.96048725,0.44888228,0.6210487,-0.16458324,-3.3818126
1747672446.1329508,1.1155246,0.96048725,0.44888228,0.6210487,-0.16458324,-3.3818126
1747672446.133717,1.1155246,0.96048725,0.44888228,0.6210487,-0.16458324,-3.3818126
1747672446.134471,1.1155246,0.96048725,0.44888228,0.6210487,-0.16458324,-3.3818126
1747672446.1351943,1.1155246,0.96048725,0.44888228,0.6210487,-0.16458324,-3.3818126
1747672446.1358857,1.1155246,0.96048725,0.44888228,0.6210487,-0.16458324,-3.3818126
1747672446.1365957,1.1155246,0.96048725,0.44888228,0.6210487,-0.16458324,-3.3818126
1747672446.1373346,1.1101555,0.9126521,0.45864457,0.64235395,-0.077231616,-3.5554507
1747672446.1380422,1.1101555,0.9126521,0.45864457,0.64235395,-0.077231616,-3.5554507
1747672446.1388106,1.1101555,0.9126521,0.45864457,0.64235395,-0.077231616,-3.5554507
1747672446.139558,1.1101555,0.9126521,0.45864457,0.64235395,-0.077231616,-3.5554507
1747672446.1402895,1.1101555,0.9126521,0.45864457,0.64235395,-0.077231616,-3.5554507
1747672446.1410317,1.1101555,0.9126521,0.45864457,0.64235395,-0.077231616,-3.5554507
1747672446.1417954,1.1291919,0.85700697,0.5738396,0.7478151,-0.045273706,-3.7482634
1747672446.1425438,1.1291919,0.85700697,0.5738396,0.7478151,-0.045273706,-3.7482634
1747672446.1433115,1.1291919,0.85700697,0.5738396,0.7478151,-0.045273706,-3.7482634
1747672446.1459632,1.1291919,0.85700697,0.5738396,0.7478151,-0.045273706,-3.7482634
1747672446.1481676,1.1291919,0.85700697,0.5738396,0.7478151,-0.045273706,-3.7482634
1747672446.149179,1.1291919,0.85700697,0.5738396,0.7478151,-0.045273706,-3.7482634
1747672446.1501348,1.1291919,0.85700697,0.5738396,0.7478151,-0.045273706,-3.7482634
1747672446.1509476,1.1291919,0.85700697,0.5738396,0.7478151,-0.045273706,-3.7482634
1747672446.1521947,1.2912459,0.9477963,0.6885465,0.9257141,-0.03781686,-3.7567854
1747672446.1536155,1.2912459,0.9477963,0.6885465,0.9257141,-0.03781686,-3.7567854
1747672446.154751,1.2912459,0.9477963,0.6885465,0.9257141,-0.03781686,-3.7567854
1747672446.1556396,1.2912459,0.9477963,0.6885465,0.9257141,-0.03781686,-3.7567854
1747672446.1565316,1.2912459,0.9477963,0.6885465,0.9257141,-0.03781686,-3.7567854
1747672446.157488,1.2912459,0.9477963,0.6885465,0.9257141,-0.03781686,-3.7567854
1747672446.1603239,1.2912459,0.9477963,0.6885465,0.9257141,-0.03781686,-3.7567854
1747672446.161366,1.2912459,0.9477963,0.6885465,0.9257141,-0.03781686,-3.7567854
1747672446.1623213,1.2912459,0.9477963,0.6885465,0.9257141,-0.03781686,-3.7567854
1747672446.1632364,1.832565,1.1698884,0.75688255,1.095091,-0.042077914,-3.767438
1747672446.164051,1.832565,1.1698884,0.75688255,1.095091,-0.042077914,-3.767438
1747672446.1648757,1.832565,1.1698884,0.75688255,1.095091,-0.042077914,-3.767438
1747672446.1656764,1.832565,1.1698884,0.75688255,1.095091,-0.042077914,-3.767438
1747672446.166476,1.832565,1.1698884,0.75688255,1.095091,-0.042077914,-3.767438
1747672446.1674483,1.832565,1.1698884,0.75688255,1.095091,-0.042077914,-3.767438
1747672446.168274,1.832565,1.1698884,0.75688255,1.095091,-0.042077914,-3.767438
1747672446.1690886,1.832565,1.1698884,0.75688255,1.095091,-0.042077914,-3.767438
1747672446.1698735,1.832565,1.1698884,0.75688255,1.095091,-0.042077914,-3.767438
1747672446.171717,1.832565,1.1698884,0.75688255,1.095091,-0.042077914,-3.767438
1747672446.1725755,1.832565,1.1698884,0.75688255,1.095091,-0.042077914,-3.767438
1747672446.1737616,1.832565,1.1698884,0.75688255,1.095091,-0.042077914,-3.767438
1747672446.17456,1.832565,1.1698884,0.75688255,1.095091,-0.042077914,-3.767438
1747672446.1754017,1.832565,1.1698884,0.75688255,1.095091,-0.042077914,-3.767438
1747672446.1761873,2.800984,1.3324305,0.9228414,1.257011,-0.23489064,-3.9826212
1747672446.1770217,2.800984,1.3324305,0.9228414,1.257011,-0.23489064,-3.9826212
1747672446.1777873,2.800984,1.3324305,0.9228414,1.257011,-0.23489064,-3.9826212
1747672446.178564,3.875812,1.3778253,1.257688,1.5084133,-0.47777075,-4.6313667
1747672446.1793106,3.875812,1.3778253,1.257688,1.5084133,-0.47777075,-4.6313667
1747672446.1800494,3.875812,1.3778253,1.257688,1.5084133,-0.47777075,-4.6313667
1747672446.1808133,3.875812,1.3778253,1.257688,1.5084133,-0.47777075,-4.6313667
1747672446.18155,3.875812,1.3778253,1.257688,1.5084133,-0.47777075,-4.6313667
1747672446.1823308,3.875812,1.3778253,1.257688,1.5084133,-0.47777075,-4.6313667
1747672446.1830585,3.875812,1.3778253,1.257688,1.5084133,-0.47777075,-4.6313667
1747672446.183806,3.875812,1.3778253,1.257688,1.5084133,-0.47777075,-4.6313667
1747672446.1845615,3.875812,1.3778253,1.257688,1.5084133,-0.47777075,-4.6313667
1747672446.1852846,3.875812,1.3778253,1.257688,1.5084133,-0.47777075,-4.6313667
1747672446.1860251,3.875812,1.3778253,1.257688,1.5084133,-0.47777075,-4.6313667
1747672446.1867607,3.875812,1.3778253,1.257688,1.5084133,-0.47777075,-4.6313667
1747672446.1874866,3.875812,1.3778253,1.257688,1.7715335,-0.5640571,-5.561342
1747672446.1882195,4.4146905,1.270928,1.326024,1.7715335,-0.5640571,-5.561342
1747672446.1889827,4.4146905,1.270928,1.326024,1.7715335,-0.5640571,-5.561342
1747672446.18972,4.4146905,1.270928,1.326024,1.7715335,-0.5640571,-5.561342
1747672446.191367,4.4146905,1.270928,1.326024,1.7715335,-0.5640571,-5.561342
1747672446.1925097,4.4146905,1.270928,1.326024,1.7715335,-0.5640571,-5.561342
1747672446.1933064,4.4146905,1.270928,1.326024,1.7715335,-0.5640571,-5.561342
1747672446.194234,4.4146905,1.270928,1.326024,1.7715335,-0.5640571,-5.561342
1747672446.1950343,4.4146905,1.270928,1.326024,1.7715335,-0.5640571,-5.561342
1747672446.1958575,4.4146905,1.270928,1.326024,1.7715335,-0.5640571,-5.561342
1747672446.196669,4.4146905,1.270928,1.326024,1.7715335,-0.5640571,-5.561342
1747672446.197471,4.4146905,1.270928,1.326024,1.7715335,-0.5640571,-5.561342
1747672446.1982703,4.4146905,1.270928,1.326024,1.7715335,-0.5640571,-5.561342
1747672446.1990924,4.4146905,1.270928,1.326024,1.7715335,-0.5640571,-5.561342
1747672446.199899,4.4146905,1.270928,1.326024,1.7715335,-0.5640571,-5.561342
1747672446.2007043,4.4649663,1.2094257,1.2503663,1.7619461,-0.499076,-6.2473717
1747672446.2016666,4.4649663,1.2094257,1.2503663,1.7619461,-0.499076,-6.2473717
1747672446.2024925,4.4649663,1.2094257,1.2503663,1.7619461,-0.499076,-6.2473717
1747672446.203286,4.4649663,1.2094257,1.2503663,1.7619461,-0.499076,-6.2473717
1747672446.2040813,4.4649663,1.2094257,1.2503663,1.7619461,-0.499076,-6.2473717
1747672446.205984,4.4649663,1.2094257,1.2503663,1.7619461,-0.499076,-6.2473717
1747672446.2069032,4.4649663,1.2094257,1.2503663,1.7619461,-0.499076,-6.2473717
1747672446.2078838,4.4649663,1.2094257,1.2503663,1.7619461,-0.499076,-6.2473717
1747672446.2089684,4.564542,1.1152196,1.3255359,1.5531543,-0.3595265,-6.5222096
1747672446.209941,4.564542,1.1152196,1.3255359,1.5531543,-0.3595265,-6.5222096
1747672446.2109144,4.564542,1.1152196,1.3255359,1.5531543,-0.3595265,-6.5222096
1747672446.211855,4.564542,1.1152196,1.3255359,1.5531543,-0.3595265,-6.5222096
1747672446.2126672,4.564542,1.1152196,1.3255359,1.5531543,-0.3595265,-6.5222096
1747672446.2135952,4.564542,1.1152196,1.3255359,1.5531543,-0.3595265,-6.5222096
1747672446.214527,4.564542,1.1152196,1.3255359,1.5531543,-0.3595265,-6.5222096
1747672446.2153437,4.564542,1.1152196,1.3255359,1.5531543,-0.3595265,-6.5222096
1747672446.216289,4.564542,1.1152196,1.3255359,1.5531543,-0.3595265,-6.5222096
1747672446.2171283,4.564542,1.1152196,1.3255359,1.5531543,-0.3595265,-6.5222096
1747672446.21824,4.564542,1.1152196,1.3255359,1.5531543,-0.3595265,-6.5222096
1747672446.2191389,4.9081745,1.1733052,1.4177896,1.3379711,-0.05912213,-6.4870563
1747672446.220125,4.9081745,1.1733052,1.4177896,1.3379711,-0.05912213,-6.4870563
1747672446.2211385,4.9081745,1.1733052,1.4177896,1.3379711,-0.05912213,-6.4870563
1747672446.2221262,4.9081745,1.1733052,1.4177896,1.3379711,-0.05912213,-6.4870563
1747672446.2231412,4.9081745,1.1733052,1.4177896,1.3379711,-0.05912213,-6.4870563
1747672446.2238925,4.9081745,1.1733052,1.4177896,1.3379711,-0.05912213,-6.4870563
1747672446.2246346,4.9081745,1.1733052,1.4177896,1.3379711,-0.05912213,-6.4870563
1747672446.225395,4.9081745,1.1733052,1.4177896,1.3379711,-0.05912213,-6.4870563
1747672446.2261684,4.9081745,1.1733052,1.4177896,1.3379711,-0.05912213,-6.4870563
1747672446.2269568,4.9081745,1.1733052,1.4177896,1.3379711,-0.05912213,-6.4870563
1747672446.227726,4.9081745,1.1733052,1.4177896,1.3379711,-0.05912213,-6.4870563
1747672446.2284524,4.9081745,1.1733052,1.4177896,1.3379711,-0.05912213,-6.4870563
1747672446.2291703,5.567129,1.3168108,1.4680654,1.1323752,0.244478,-6.4487066
1747672446.2298584,5.567129,1.3168108,1.4680654,1.1323752,0.244478,-6.4487066
1747672446.2305536,5.567129,1.3168108,1.4680654,1.1323752,0.244478,-6.4487066
1747672446.2313118,5.567129,1.3168108,1.4680654,1.1323752,0.244478,-6.4487066
1747672446.2320626,5.567129,1.3168108,1.4680654,1.1323752,0.244478,-6.4487066
1747672446.2328043,5.567129,1.3168108,1.4680654,1.1323752,0.244478,-6.4487066
1747672446.2334948,5.567129,1.3168108,1.4680654,1.1323752,0.244478,-6.4487066
1747672446.2341943,5.567129,1.3168108,1.4680654,1.1323752,0.244478,-6.4487066
1747672446.2349217,5.567129,1.3168108,1.4680654,1.1323752,0.244478,-6.4487066
1747672446.235623,5.567129,1.3168108,1.4680654,1.1323752,0.244478,-6.4487066
1747672446.23636,5.567129,1.3168108,1.4680654,1.1323752,0.244478,-6.4487066
1747672446.2371128,5.567129,1.3168108,1.4680654,1.1323752,0.244478,-6.4487066
1747672446.238482,5.567129,1.3168108,1.4680654,1.1323752,0.244478,-6.4487066
1747672446.2397392,6.8210955,1.2265097,1.5461637,0.8170572,0.83463407,-6.813027
1747672446.2407699,6.8210955,1.2265097,1.5461637,0.8170572,0.83463407,-6.813027
1747672446.241566,6.8210955,1.2265097,1.5461637,0.8170572,0.83463407,-6.813027
1747672446.2423577,6.8210955,1.2265097,1.5461637,0.8170572,0.83463407,-6.813027
1747672446.2432623,6.8210955,1.2265097,1.5461637,0.8170572,0.83463407,-6.813027
1747672446.2461236,6.8210955,1.2265097,1.5461637,0.8170572,0.83463407,-6.813027
1747672446.2473414,6.8210955,1.2265097,1.5461637,0.8170572,0.83463407,-6.813027
1747672446.2483912,6.8210955,1.2265097,1.5461637,0.8170572,0.83463407,-6.813027
1747672446.249246,6.8210955,1.2265097,1.5461637,0.8170572,0.83463407,-6.813027
1747672446.2501614,6.8210955,1.2265097,1.5461637,0.8170572,0.83463407,-6.813027
1747672446.2510602,6.8210955,1.2265097,1.5461637,0.8170572,0.83463407,-6.813027
1747672446.2521667,6.8210955,1.2265097,1.5461637,0.8170572,0.83463407,-6.813027
1747672446.2531931,6.8210955,1.2265097,1.5461637,0.8170572,0.83463407,-6.813027
1747672446.2554371,6.8210955,1.2265097,1.5461637,0.8170572,0.83463407,-6.813027
1747672446.2571032,7.323853,1.0244303,1.5910702,0.71585715,1.149952,-7.2870693
1747672446.2582326,7.323853,1.0244303,1.5910702,0.71585715,1.149952,-7.2870693
1747672446.2593446,7.323853,1.0244303,1.5910702,0.71585715,1.149952,-7.2870693
1747672446.2604961,7.323853,1.0244303,1.5910702,0.71585715,1.149952,-7.2870693
1747672446.2616317,7.3912125,0.5807342,1.624262,0.67857295,1.7294555,-8.473773
1747672446.2628372,7.3912125,0.5807342,1.624262,0.67857295,1.7294555,-8.473773
1747672446.2638738,7.3912125,0.5807342,1.624262,0.67857295,1.7294555,-8.473773
1747672446.2664099,7.3912125,0.5807342,1.624262,0.67857295,1.7294555,-8.473773
1747672446.2676587,7.3912125,0.5807342,1.624262,0.67857295,1.7294555,-8.473773
1747672446.2684712,7.3912125,0.5807342,1.624262,0.67857295,1.7294555,-8.473773
1747672446.2695212,7.3912125,0.5807342,1.624262,0.67857295,1.7294555,-8.473773
1747672446.270339,7.3912125,0.5807342,1.624262,0.67857295,1.7294555,-8.473773
1747672446.271141,7.3912125,0.5807342,1.624262,0.67857295,1.7294555,-8.473773
1747672446.2719178,7.3912125,0.5807342,1.624262,0.67857295,1.7294555,-8.473773
1747672446.2726736,6.7386036,0.25320938,1.615964,0.67857295,1.7294555,-8.473773
1747672446.273489,6.7386036,0.25320938,1.615964,0.8064046,2.1832578,-9.132106
1747672446.2742918,6.7386036,0.25320938,1.615964,0.8064046,2.1832578,-9.132106
1747672446.2750418,6.7386036,0.25320938,1.615964,0.8064046,2.1832578,-9.132106
1747672446.2758396,6.7386036,0.25320938,1.615964,0.8064046,2.1832578,-9.132106
1747672446.2765903,6.7386036,0.25320938,1.615964,0.8064046,2.1832578,-9.132106
1747672446.277318,6.7386036,0.25320938,1.615964,0.8064046,2.1832578,-9.132106
1747672446.2780652,6.7386036,0.25320938,1.615964,0.8064046,2.1832578,-9.132106
1747672446.2787962,6.0044794,0.008175917,1.6720972,0.8064046,2.1832578,-9.132106
1747672446.2795277,6.0044794,0.008175917,1.6720972,1.1302447,2.2983062,-9.31107
1747672446.2802365,6.0044794,0.008175917,1.6720972,1.1302447,2.2983062,-9.31107
1747672446.280965,6.0044794,0.008175917,1.6720972,1.1302447,2.2983062,-9.31107
1747672446.2816732,6.0044794,0.008175917,1.6720972,1.1302447,2.2983062,-9.31107
1747672446.2823782,6.0044794,0.008175917,1.6720972,1.1302447,2.2983062,-9.31107
1747672446.2830873,6.0044794,0.008175917,1.6720972,1.1302447,2.2983062,-9.31107
1747672446.283899,6.0044794,0.008175917,1.6720972,1.1302447,2.2983062,-9.31107
1747672446.2847233,6.0044794,0.008175917,1.6720972,1.1302447,2.2983062,-9.31107
1747672446.2854998,6.0044794,0.008175917,1.6720972,1.1302447,2.2983062,-9.31107
1747672446.287999,5.8477945,-0.071874864,1.6950387,1.5893734,2.2791317,-9.182173
1747672446.2889204,5.8477945,-0.071874864,1.6950387,1.5893734,2.2791317,-9.182173
1747672446.2927139,5.8477945,-0.071874864,1.6950387,1.5893734,2.2791317,-9.182173
1747672446.2955554,5.8477945,-0.071874864,1.6950387,1.5893734,2.2791317,-9.182173
1747672446.3007686,5.8477945,-0.071874864,1.6950387,1.5893734,2.2791317,-9.182173
1747672446.3046722,5.891725,-0.22563092,1.6501321,2.0911126,2.297241,-9.023449
1747672446.307995,5.891725,-0.22563092,1.6501321,2.0911126,2.297241,-9.023449
1747672446.3097715,5.855604,-0.302753,1.6398817,2.5726118,2.3196115,-8.9041395
1747672446.311813,5.855604,-0.302753,1.6398817,2.5726118,2.3196115,-8.9041395
1747672446.3145335,5.855604,-0.302753,1.6398817,2.5726118,2.3196115,-8.9041395
1747672446.3179393,5.855604,-0.302753,1.6398817,2.5726118,2.3196115,-8.9041395
1747672446.3189406,5.855604,-0.302753,1.6398817,2.5726118,2.3196115,-8.9041395
1747672446.319735,5.6515727,-0.332528,1.6213332,3.0743508,2.2599568,-8.760328
1747672446.3205488,5.6515727,-0.332528,1.6213332,3.0743508,2.2599568,-8.760328
1747672446.321378,5.6515727,-0.332528,1.6213332,3.0743508,2.2599568,-8.760328
1747672446.3221838,5.6515727,-0.332528,1.6213332,3.0743508,2.2599568,-8.760328
1747672446.3229392,5.6515727,-0.332528,1.6213332,3.0743508,2.2599568,-8.760328
1747672446.3237615,5.6515727,-0.332528,1.6213332,3.0743508,2.2599568,-8.760328
1747672446.3245738,5.6515727,-0.332528,1.6213332,3.0743508,2.2599568,-8.760328
1747672446.3253248,5.6515727,-0.332528,1.6213332,3.0743508,2.2599568,-8.760328
1747672446.3260572,5.6515727,-0.332528,1.6213332,3.0743508,2.2599568,-8.760328
1747672446.3268113,5.6515727,-0.332528,1.6213332,3.5771554,2.184323,-8.58456
1747672446.3275936,5.6515727,-0.332528,1.6213332,3.5771554,2.184323,-8.58456
1747672446.3283417,5.6515727,-0.332528,1.6213332,3.5771554,2.184323,-8.58456
1747672446.3290982,5.3699303,-0.4535804,1.4773395,3.5771554,2.184323,-8.58456
1747672446.32987,5.3699303,-0.4535804,1.4773395,3.5771554,2.184323,-8.58456
1747672446.330651,5.3699303,-0.4535804,1.4773395,3.5771554,2.184323,-8.58456
1747672446.3314703,5.3699303,-0.4535804,1.4773395,3.5771554,2.184323,-8.58456
1747672446.3322296,5.3699303,-0.4535804,1.4773395,3.5771554,2.184323,-8.58456
1747672446.3347373,5.3699303,-0.4535804,1.4773395,3.5771554,2.184323,-8.58456
1747672446.3359234,5.3699303,-0.4535804,1.4773395,3.5771554,2.184323,-8.58456
1747672446.3374805,5.3699303,-0.4535804,1.4773395,3.5771554,2.184323,-8.58456
1747672446.338727,5.3699303,-0.4535804,1.4773395,3.5771554,2.184323,-8.58456
1747672446.3413794,5.3699303,-0.4535804,1.4773395,3.5771554,2.184323,-8.58456
1747672446.343959,5.1863995,-0.5102017,1.3201666,3.8956692,2.1342556,-8.430097
1747672446.346316,5.1863995,-0.5102017,1.3201666,3.8956692,2.1342556,-8.430097
1747672446.3503003,4.7544184,-0.630766,0.9950824,3.8956692,2.1342556,-8.430097
1747672446.3526838,4.7544184,-0.630766,0.9950824,3.8956692,2.1342556,-8.430097
1747672446.3539274,4.7544184,-0.630766,0.9950824,3.8956692,2.1342556,-8.430097
1747672446.355152,4.7544184,-0.630766,0.9950824,3.8956692,2.1342556,-8.430097
1747672446.3566349,4.7544184,-0.630766,0.9950824,3.8956692,2.1342556,-8.430097
1747672446.3571892,4.7544184,-0.630766,0.9950824,3.8956692,2.1342556,-8.430097
1747672446.3577428,4.7544184,-0.630766,0.9950824,3.8956692,2.1342556,-8.430097
1747672446.3592207,4.7544184,-0.630766,0.9950824,3.8956692,2.1342556,-8.430097
1747672446.3603709,4.7544184,-0.630766,0.9950824,4.2770333,2.2088242,-8.219174
1747672446.3612356,4.7544184,-0.630766,0.9950824,4.2770333,2.2088242,-8.219174
1747672446.3625202,4.3629503,-0.74498475,0.7700617,4.2770333,2.2088242,-8.219174
1747672446.3635604,4.3629503,-0.74498475,0.7700617,4.546545,2.1619525,-8.11904
1747672446.3645043,4.3629503,-0.74498475,0.7700617,4.546545,2.1619525,-8.11904
1747672446.36513,4.3629503,-0.74498475,0.7700617,4.546545,2.1619525,-8.11904
1747672446.365696,4.3629503,-0.74498475,0.7700617,4.546545,2.1619525,-8.11904
1747672446.3662376,4.3629503,-0.74498475,0.7700617,4.546545,2.1619525,-8.11904
1747672446.3668349,4.3629503,-0.74498475,0.7700617,4.546545,2.1619525,-8.11904
1747672446.3674076,4.3629503,-0.74498475,0.7700617,4.546545,2.1619525,-8.11904
1747672446.3679395,4.3629503,-0.74498475,0.7700617,4.546545,2.1619525,-8.11904
1747672446.3684933,4.3629503,-0.74498475,0.7700617,4.546545,2.1619525,-8.11904
1747672446.3690503,4.3629503,-0.74498475,0.7700617,4.546545,2.1619525,-8.11904
1747672446.369589,4.3629503,-0.74498475,0.7700617,4.546545,2.1619525,-8.11904
1747672446.370124,4.3629503,-0.74498475,0.7700617,4.546545,2.1619525,-8.11904
1747672446.3706734,4.3629503,-0.74498475,0.7700617,4.546545,2.1619525,-8.11904
1747672446.3712292,4.3629503,-0.74498475,0.7700617,4.546545,2.1619525,-8.11904
1747672446.3718114,3.6503031,-0.85627484,0.30391228,4.784099,1.7209334,-7.9027915
1747672446.3723412,3.6503031,-0.85627484,0.30391228,4.784099,1.7209334,-7.9027915
1747672446.3729048,3.6503031,-0.85627484,0.30391228,4.784099,1.7209334,-7.9027915
1747672446.3734565,3.6503031,-0.85627484,0.30391228,4.784099,1.7209334,-7.9027915
1747672446.3740122,3.6503031,-0.85627484,0.30391228,4.784099,1.7209334,-7.9027915
1747672446.3745625,3.6503031,-0.85627484,0.30391228,4.784099,1.7209334,-7.9027915
1747672446.3751178,3.6503031,-0.85627484,0.30391228,4.784099,1.7209334,-7.9027915
1747672446.3756487,3.6503031,-0.85627484,0.30391228,4.784099,1.7209334,-7.9027915
1747672446.3761897,3.6503031,-0.85627484,0.30391228,4.784099,1.7209334,-7.9027915
1747672446.376739,3.6503031,-0.85627484,0.30391228,4.784099,1.7209334,-7.9027915
1747672446.3773067,3.6503031,-0.85627484,0.30391228,4.784099,1.7209334,-7.9027915
1747672446.377835,3.6503031,-0.85627484,0.30391228,4.784099,1.7209334,-7.9027915
1747672446.3783832,3.6503031,-0.85627484,0.30391228,4.784099,1.7209334,-7.9027915
1747672446.380356,3.6503031,-0.85627484,0.30391228,4.784099,1.7209334,-7.9027915
1747672446.3809109,3.6503031,-0.85627484,0.30391228,4.784099,1.7209334,-7.9027915
1747672446.381543,3.6503031,-0.85627484,0.30391228,4.784099,1.7209334,-7.9027915
1747672446.3820667,3.6503031,-0.85627484,0.30391228,4.784099,1.7209334,-7.9027915
1747672446.383286,3.6503031,-0.85627484,0.30391228,4.784099,1.7209334,-7.9027915
1747672446.384264,3.0792093,-0.9275396,-0.06900719,4.784099,1.7209334,-7.9027915
1747672446.3848321,3.0792093,-0.9275396,-0.06900719,4.784099,1.7209334,-7.9027915
1747672446.3853736,3.0792093,-0.9275396,-0.06900719,4.784099,1.7209334,-7.9027915
1747672446.386965,3.0792093,-0.9275396,-0.06900719,4.7052693,1.2735227,-7.6535196
1747672446.387971,3.0792093,-0.9275396,-0.06900719,4.7052693,1.2735227,-7.6535196
1747672446.3890018,3.0792093,-0.9275396,-0.06900719,4.7052693,1.2735227,-7.6535196
1747672446.3899708,3.0792093,-0.9275396,-0.06900719,4.7052693,1.2735227,-7.6535196
1747672446.3910005,3.0792093,-0.9275396,-0.06900719,4.7052693,1.2735227,-7.6535196
1747672446.3923144,2.5618079,-1.0393178,-0.43509305,4.3345575,1.0061415,-7.379747
1747672446.3980515,2.5618079,-1.0393178,-0.43509305,4.3345575,1.0061415,-7.379747
1747672446.3991163,2.5618079,-1.0393178,-0.43509305,4.3345575,1.0061415,-7.379747
1747672446.4000056,2.5618079,-1.0393178,-0.43509305,4.3345575,1.0061415,-7.379747
1747672446.400964,2.11079,-1.1281546,-0.63033885,3.8487976,0.95287836,-7.1475196
1747672446.401965,2.11079,-1.1281546,-0.63033885,3.8487976,0.95287836,-7.1475196
1747672446.4029737,2.11079,-1.1281546,-0.63033885,3.8487976,0.95287836,-7.1475196
1747672446.4039938,2.11079,-1.1281546,-0.63033885,3.8487976,0.95287836,-7.1475196
1747672446.4049687,2.11079,-1.1281546,-0.63033885,3.8487976,0.95287836,-7.1475196
1747672446.4071438,2.11079,-1.1281546,-0.63033885,3.8487976,0.95287836,-7.1475196
1747672446.40896,1.3908212,-1.1579297,-0.59665895,3.038132,1.0072068,-6.6937175
1747672446.409987,1.3908212,-1.1579297,-0.59665895,3.038132,1.0072068,-6.6937175
1747672446.4110227,1.3908212,-1.1579297,-0.59665895,3.038132,1.0072068,-6.6937175
1747672446.4121766,1.3908212,-1.1579297,-0.59665895,3.038132,1.0072068,-6.6937175
1747672446.4127295,1.3908212,-1.1579297,-0.59665895,3.038132,1.0072068,-6.6937175
1747672446.4132876,1.3908212,-1.1579297,-0.59665895,3.038132,1.0072068,-6.6937175
1747672446.4138532,1.3908212,-1.1579297,-0.59665895,3.038132,1.0072068,-6.6937175
1747672446.4144366,1.3908212,-1.1579297,-0.59665895,3.038132,1.0072068,-6.6937175
1747672446.4149814,1.3908212,-1.1579297,-0.59665895,3.038132,1.0072068,-6.6937175
1747672446.4155376,1.3908212,-1.1579297,-0.59665895,3.038132,1.0072068,-6.6937175
1747672446.4160657,1.3908212,-1.1579297,-0.59665895,3.038132,1.0072068,-6.6937175
1747672446.416597,1.3908212,-1.1579297,-0.59665895,3.038132,1.0072068,-6.6937175
1747672446.4171312,1.3908212,-1.1579297,-0.59665895,3.038132,1.0072068,-6.6937175
1747672446.4176643,1.3908212,-1.1579297,-0.59665895,3.038132,1.0072068,-6.6937175
1747672446.4181964,0.96616167,-1.2501832,-0.43753365,2.5225444,1.14143,-6.2590895
1747672446.4187236,0.96616167,-1.2501832,-0.43753365,2.5225444,1.14143,-6.2590895
1747672446.4192438,0.96616167,-1.2501832,-0.43753365,2.5225444,1.14143,-6.2590895
1747672446.4197905,0.96616167,-1.2501832,-0.43753365,2.5225444,1.14143,-6.2590895
1747672446.4203322,0.96616167,-1.2501832,-0.43753365,2.5225444,1.14143,-6.2590895
1747672446.4208727,0.96616167,-1.2501832,-0.43753365,2.5225444,1.14143,-6.2590895
1747672446.4214175,0.96616167,-1.2501832,-0.43753365,2.5225444,1.14143,-6.2590895
1747672446.421949,0.96616167,-1.2501832,-0.43753365,2.5225444,1.14143,-6.2590895
1747672446.4224784,0.96616167,-1.2501832,-0.43753365,2.5225444,1.14143,-6.2590895
1747672446.4230077,0.96616167,-1.2501832,-0.43753365,2.5225444,1.14143,-6.2590895
1747672446.4235349,0.96616167,-1.2501832,-0.43753365,2.5225444,1.14143,-6.2590895
1747672446.4241316,0.96616167,-1.2501832,-0.43753365,2.5225444,1.14143,-6.2590895
1747672446.4246976,0.96616167,-1.2501832,-0.43753365,2.5225444,1.14143,-6.2590895
1747672446.425261,0.96616167,-1.2501832,-0.43753365,2.5225444,1.14143,-6.2590895
1747672446.427275,0.96616167,-1.2501832,-0.43753365,2.5225444,1.14143,-6.2590895
1747672446.4303088,0.64254177,-1.4293213,-0.3120882,2.1273315,1.16167,-5.711544
1747672446.4310856,0.64254177,-1.4293213,-0.3120882,2.1273315,1.16167,-5.711544
1747672446.4321344,0.64254177,-1.4293213,-0.3120882,2.1273315,1.16167,-5.711544
1747672446.4333622,0.64254177,-1.4293213,-0.3120882,2.1273315,1.16167,-5.711544
1747672446.4344187,0.64254177,-1.4293213,-0.3120882,2.1273315,1.16167,-5.711544
1747672446.4356725,0.64254177,-1.4293213,-0.3120882,2.1273315,1.16167,-5.711544
1747672446.436464,0.64254177,-1.4293213,-0.3120882,2.1273315,1.16167,-5.711544
1747672446.4372952,0.64254177,-1.4293213,-0.3120882,2.1273315,1.16167,-5.711544
1747672446.4383836,0.64254177,-1.4293213,-0.3120882,2.1273315,1.16167,-5.711544
1747672446.4400215,0.64254177,-1.4293213,-0.3120882,2.1273315,1.16167,-5.711544
1747672446.4406781,0.64254177,-1.4293213,-0.3120882,2.1273315,1.16167,-5.711544
1747672446.4416404,0.51953685,-1.539147,-0.10073463,1.9739336,0.9092025,-5.238567
1747672446.4426398,0.51953685,-1.539147,-0.10073463,1.9739336,0.9092025,-5.238567
1747672446.4441967,0.51953685,-1.539147,-0.10073463,1.9739336,0.9092025,-5.238567
1747672446.4452019,0.51953685,-1.539147,-0.10073463,1.9739336,0.9092025,-5.238567
1747672446.4462175,0.51953685,-1.539147,-0.10073463,1.9739336,0.9092025,-5.238567
1747672446.447196,0.51953685,-1.539147,-0.10073463,1.9739336,0.9092025,-5.238567
1747672446.4481964,0.51953685,-1.539147,-0.10073463,1.9739336,0.9092025,-5.238567
1747672446.44921,0.51953685,-1.539147,-0.10073463,1.9739336,0.9092025,-5.238567
1747672446.4502084,0.51953685,-1.539147,-0.10073463,1.9739336,0.9092025,-5.238567
1747672446.4512243,0.6073975,-1.6919268,-0.037279744,1.9600852,0.5566003,-4.987165
1747672446.4532373,0.6073975,-1.6919268,-0.037279744,1.9600852,0.5566003,-4.987165
1747672446.4541702,0.6073975,-1.6919268,-0.037279744,1.9600852,0.5566003,-4.987165
1747672446.4548085,0.6073975,-1.6919268,-0.037279744,1.9600852,0.5566003,-4.987165
1747672446.455383,0.6073975,-1.6919268,-0.037279744,1.9600852,0.5566003,-4.987165
1747672446.4558914,0.6073975,-1.6919268,-0.037279744,1.9600852,0.5566003,-4.987165
1747672446.4564402,0.6073975,-1.6919268,-0.037279744,1.9600852,0.5566003,-4.987165
1747672446.457062,0.6073975,-1.6919268,-0.037279744,1.9600852,0.5566003,-4.987165
1747672446.458742,0.6073975,-1.6919268,-0.037279744,1.9600852,0.5566003,-4.987165
1747672446.459983,0.6073975,-1.6919268,-0.037279744,1.9600852,0.5566003,-4.987165
1747672446.4605162,0.60983807,-1.8974231,-0.07681701,1.9355841,0.09321057,-4.816723
1747672446.4610636,0.60983807,-1.8974231,-0.07681701,1.9355841,0.09321057,-4.816723
1747672446.461588,0.60983807,-1.8974231,-0.07681701,1.9355841,0.09321057,-4.816723
1747672446.462123,0.60983807,-1.8974231,-0.07681701,1.9355841,0.09321057,-4.816723
1747672446.4626734,0.60983807,-1.8974231,-0.07681701,1.9355841,0.09321057,-4.816723
1747672446.4632127,0.60983807,-1.8974231,-0.07681701,1.9355841,0.09321057,-4.816723
1747672446.4637413,0.60983807,-1.8974231,-0.07681701,1.9355841,0.09321057,-4.816723
1747672446.4642699,0.60983807,-1.8974231,-0.07681701,1.9355841,0.09321057,-4.816723
1747672446.4648142,0.60983807,-1.8974231,-0.07681701,1.9355841,0.09321057,-4.816723
1747672446.4653406,0.60983807,-1.8974231,-0.07681701,1.9355841,0.09321057,-4.816723
1747672446.465894,0.60983807,-1.8974231,-0.07681701,1.9355841,0.09321057,-4.816723
1747672446.4664416,0.60983807,-1.8974231,-0.07681701,1.9355841,0.09321057,-4.816723
1747672446.4669738,0.60983807,-1.8974231,-0.07681701,1.9355841,0.09321057,-4.816723
1747672446.4675014,0.60983807,-1.8974231,-0.07681701,1.9355841,0.09321057,-4.816723
1747672446.4680455,0.60983807,-1.8974231,-0.07681701,1.9355841,0.09321057,-4.816723
1747672446.4686046,0.60983807,-1.8974231,-0.07681701,1.9355841,0.09321057,-4.816723
1747672446.4691608,0.60983807,-1.8974231,-0.07681701,1.9355841,0.09321057,-4.816723
1747672446.4696858,0.60983807,-1.8974231,-0.07681701,1.9355841,0.09321057,-4.816723
1747672446.4702544,0.60983807,-1.8974231,-0.07681701,1.9355841,0.09321057,-4.816723
1747672446.4708567,0.4307,-2.0995026,-0.12465224,1.9355841,0.09321057,-4.816723
1747672446.47161,0.4307,-2.0995026,-0.12465224,1.9355841,0.09321057,-4.816723
1747672446.4738915,0.4307,-2.0995026,-0.12465224,1.7811208,-0.5725792,-4.5440154
1747672446.4752836,0.4307,-2.0995026,-0.12465224,1.7811208,-0.5725792,-4.5440154
1747672446.4763138,0.4307,-2.0995026,-0.12465224,1.7811208,-0.5725792,-4.5440154
1747672446.477105,0.4307,-2.0995026,-0.12465224,1.7811208,-0.5725792,-4.5440154
1747672446.4780903,0.4307,-2.0995026,-0.12465224,1.7811208,-0.5725792,-4.5440154
1747672446.478932,0.4307,-2.0995026,-0.12465224,1.7811208,-0.5725792,-4.5440154
1747672446.4797642,0.4307,-2.0995026,-0.12465224,1.7811208,-0.5725792,-4.5440154
1747672446.4805777,0.4307,-2.0995026,-0.12465224,1.7811208,-0.5725792,-4.5440154
1747672446.4815035,0.4307,-2.0995026,-0.12465224,1.4210618,-1.3076111,-3.9634466
1747672446.4823692,0.4307,-2.0995026,-0.12465224,1.4210618,-1.3076111,-3.9634466
1747672446.4831734,0.4307,-2.0995026,-0.12465224,1.4210618,-1.3076111,-3.9634466
1747672446.4839628,0.4307,-2.0995026,-0.12465224,1.4210618,-1.3076111,-3.9634466
1747672446.4847863,0.4307,-2.0995026,-0.12465224,1.4210618,-1.3076111,-3.9634466
1747672446.4856055,0.36773324,-2.2522824,0.013972278,1.4210618,-1.3076111,-3.9634466
1747672446.4881754,0.36773324,-2.2522824,0.013972278,1.4210618,-1.3076111,-3.9634466
1747672446.4897902,0.36773324,-2.2522824,0.013972278,1.4210618,-1.3076111,-3.9634466
1747672446.4912019,0.36773324,-2.2522824,0.013972278,1.4210618,-1.3076111,-3.9634466
1747672446.492005,0.42435452,-2.306951,0.14918,1.0450237,-1.6644745,-3.2688947
1747672446.4929698,0.42435452,-2.306951,0.14918,1.0450237,-1.6644745,-3.2688947
1747672446.4937663,0.42435452,-2.306951,0.14918,1.0450237,-1.6644745,-3.2688947
1747672446.4945898,0.42435452,-2.306951,0.14918,1.0450237,-1.6644745,-3.2688947
1747672446.495382,0.42435452,-2.306951,0.14918,1.0450237,-1.6644745,-3.2688947
1747672446.496179,0.42435452,-2.306951,0.14918,1.0450237,-1.6644745,-3.2688947
1747672446.4969912,0.42435452,-2.306951,0.14918,1.0450237,-1.6644745,-3.2688947
1747672446.497792,0.42435452,-2.306951,0.14918,1.0450237,-1.6644745,-3.2688947
1747672446.4985838,0.42435452,-2.306951,0.14918,1.0450237,-1.6644745,-3.2688947
1747672446.500927,0.42435452,-2.306951,0.14918,1.0450237,-1.6644745,-3.2688947
1747672446.5017986,0.59568274,-2.2659495,0.21605167,0.70733505,-1.5888407,-2.7064354
1747672446.50262,0.59568274,-2.2659495,0.21605167,0.70733505,-1.5888407,-2.7064354
1747672446.5034392,0.59568274,-2.2659495,0.21605167,0.70733505,-1.5888407,-2.7064354
1747672446.5044484,0.59568274,-2.2659495,0.21605167,0.70733505,-1.5888407,-2.7064354
1747672446.5056686,0.59568274,-2.2659495,0.21605167,0.70733505,-1.5888407,-2.7064354
1747672446.5064752,0.59568274,-2.2659495,0.21605167,0.70733505,-1.5888407,-2.7064354
1747672446.5072298,0.59568274,-2.2659495,0.21605167,0.70733505,-1.5888407,-2.7064354
1747672446.5079732,0.59568274,-2.2659495,0.21605167,0.70733505,-1.5888407,-2.7064354
1747672446.508765,0.59568274,-2.2659495,0.21605167,0.70733505,-1.5888407,-2.7064354
1747672446.5095096,0.6508397,-2.1732078,0.23167135,0.70733505,-1.5888407,-2.7064354
1747672446.510231,0.6508397,-2.1732078,0.23167135,0.70733505,-1.5888407,-2.7064354
1747672446.5109966,0.6508397,-2.1732078,0.23167135,0.41971388,-1.380049,-2.3154836
1747672446.511703,0.6508397,-2.1732078,0.23167135,0.41971388,-1.380049,-2.3154836
1747672446.5124192,0.6508397,-2.1732078,0.23167135,0.41971388,-1.380049,-2.3154836
1747672446.513184,0.6508397,-2.1732078,0.23167135,0.41971388,-1.380049,-2.3154836
1747672446.513937,0.6508397,-2.1732078,0.23167135,0.41971388,-1.380049,-2.3154836
1747672446.5146513,0.6508397,-2.1732078,0.23167135,0.41971388,-1.380049,-2.3154836
1747672446.5154037,0.6508397,-2.1732078,0.23167135,0.41971388,-1.380049,-2.3154836
1747672446.5161226,0.6508397,-2.1732078,0.23167135,0.41971388,-1.380049,-2.3154836
1747672446.5169134,0.6508397,-2.1732078,0.23167135,0.06285056,-1.1382343,-1.8712687
1747672446.5176702,0.6508397,-2.1732078,0.23167135,0.06285056,-1.1382343,-1.8712687
1747672446.519352,0.6444942,-2.046786,0.25461274,0.06285056,-1.1382343,-1.8712687
1747672446.5215135,0.6444942,-2.046786,0.25461274,0.06285056,-1.1382343,-1.8712687
1747672446.5226579,0.6444942,-2.046786,0.25461274,0.06285056,-1.1382343,-1.8712687
1747672446.5237255,0.6444942,-2.046786,0.25461274,0.06285056,-1.1382343,-1.8712687
1747672446.5249538,0.6444942,-2.046786,0.25461274,0.06285056,-1.1382343,-1.8712687
1747672446.5257564,0.6444942,-2.046786,0.25461274,0.06285056,-1.1382343,-1.8712687
1747672446.526906,0.6444942,-2.046786,0.25461274,0.06285056,-1.1382343,-1.8712687
1747672446.5280385,0.5912897,-1.9755214,0.29512623,0.06285056,-1.1382343,-1.8712687
1747672446.5291214,0.5912897,-1.9755214,0.29512623,0.06285056,-1.1382343,-1.8712687
1747672446.5299246,0.5912897,-1.9755214,0.29512623,0.06285056,-1.1382343,-1.8712687
1747672446.5307176,0.5912897,-1.9755214,0.29512623,0.06285056,-1.1382343,-1.8712687
1747672446.5315168,0.5912897,-1.9755214,0.29512623,0.06285056,-1.1382343,-1.8712687
1747672446.5342574,0.5912897,-1.9755214,0.29512623,0.06285056,-1.1382343,-1.8712687
1747672446.5351472,0.5912897,-1.9755214,0.29512623,-0.2727075,-0.88789725,-1.4334453
1747672446.5359302,0.5912897,-1.9755214,0.29512623,-0.2727075,-0.88789725,-1.4334453
1747672446.5367246,0.5912897,-1.9755214,0.29512623,-0.2727075,-0.88789725,-1.4334453
1747672446.5375402,0.5912897,-1.9755214,0.29512623,-0.2727075,-0.88789725,-1.4334453
1747672446.538353,0.5346684,-1.8827797,0.4249647,-0.5741771,-0.5992108,-0.93064094
1747672446.539195,0.5346684,-1.8827797,0.4249647,-0.5741771,-0.5992108,-0.93064094
1747672446.5399904,0.5346684,-1.8827797,0.4249647,-0.5741771,-0.5992108,-0.93064094
1747672446.5407882,0.5346684,-1.8827797,0.4249647,-0.5741771,-0.5992108,-0.93064094
1747672446.5415788,0.5346684,-1.8827797,0.4249647,-0.5741771,-0.5992108,-0.93064094
1747672446.5423691,0.5346684,-1.8827797,0.4249647,-0.5741771,-0.5992108,-0.93064094
1747672446.5431528,0.5346684,-1.8827797,0.4249647,-0.5741771,-0.5992108,-0.93064094
1747672446.543922,0.5346684,-1.8827797,0.4249647,-0.5741771,-0.5992108,-0.93064094
1747672446.5447183,0.5346684,-1.8827797,0.4249647,-0.5741771,-0.5992108,-0.93064094
1747672446.5455115,0.5346684,-1.8827797,0.4249647,-0.5741771,-0.5992108,-0.93064094
1747672446.5463016,0.5346684,-1.8827797,0.4249647,-0.5741771,-0.5992108,-0.93064094
1747672446.5471654,0.5346684,-1.8827797,0.4249647,-0.5741771,-0.5992108,-0.93064094
1747672446.548589,0.5346684,-1.8827797,0.4249647,-0.5741771,-0.5992108,-0.93064094
1747672446.5495012,0.5346684,-1.8827797,0.4249647,-0.5741771,-0.5992108,-0.93064094
1747672446.5522044,0.52881104,-1.8427541,0.5235638,-0.64981085,-0.4085286,-0.6419545
1747672446.5529933,0.52881104,-1.8427541,0.5235638,-0.64981085,-0.4085286,-0.6419545
1747672446.5538018,0.52881104,-1.8427541,0.5235638,-0.64981085,-0.4085286,-0.6419545
1747672446.5545795,0.52881104,-1.8427541,0.5235638,-0.64981085,-0.4085286,-0.6419545
1747672446.5553308,0.52881104,-1.8427541,0.5235638,-0.64981085,-0.4085286,-0.6419545
1747672446.5560782,0.52881104,-1.8427541,0.5235638,-0.64981085,-0.4085286,-0.6419545
1747672446.556816,0.52881104,-1.8427541,0.5235638,-0.64981085,-0.4085286,-0.6419545
1747672446.5575602,0.52881104,-1.8427541,0.5235638,-0.64981085,-0.4085286,-0.6419545
1747672446.5583127,0.52881104,-1.8427541,0.5235638,-0.64981085,-0.4085286,-0.6419545
1747672446.5590026,0.52881104,-1.8427541,0.5235638,-0.64981085,-0.4085286,-0.6419545
1747672446.5597034,0.52881104,-1.8427541,0.5235638,-0.64981085,-0.4085286,-0.6419545
1747672446.5604079,0.52881104,-1.8427541,0.5235638,-0.64981085,-0.4085286,-0.6419545
1747672446.5611317,0.52881104,-1.8427541,0.5235638,-0.64981085,-0.4085286,-0.6419545
1747672446.5618904,0.5410139,-1.8554451,0.58506626,-0.6242445,-0.244478,-0.40653124
1747672446.5626142,0.5410139,-1.8554451,0.58506626,-0.6242445,-0.244478,-0.40653124
1747672446.5633156,0.5410139,-1.8554451,0.58506626,-0.6242445,-0.244478,-0.40653124
1747672446.5640914,0.5410139,-1.8554451,0.58506626,-0.6242445,-0.244478,-0.40653124
1747672446.5648413,0.5410139,-1.8554451,0.58506626,-0.6242445,-0.244478,-0.40653124
1747672446.5663383,0.5410139,-1.8554451,0.58506626,-0.6242445,-0.244478,-0.40653124
1747672446.5677733,0.5410139,-1.8554451,0.58506626,-0.6242445,-0.244478,-0.40653124
1747672446.568628,0.34283942,-1.8212771,0.61972237,-0.45273703,-0.17310534,-0.18389113
1747672446.5694838,0.34283942,-1.8212771,0.61972237,-0.45273703,-0.17310534,-0.18389113
1747672446.5703182,0.34283942,-1.8212771,0.61972237,-0.45273703,-0.17310534,-0.18389113
1747672446.5712693,0.34283942,-1.8212771,0.61972237,-0.45273703,-0.17310534,-0.18389113
1747672446.5720942,0.34283942,-1.8212771,0.61972237,-0.45273703,-0.17310534,-0.18389113
1747672446.572901,0.34283942,-1.8212771,0.61972237,-0.45273703,-0.17310534,-0.18389113
1747672446.5740077,0.34283942,-1.8212771,0.61972237,-0.45273703,-0.17310534,-0.18389113
1747672446.5748208,0.34283942,-1.8212771,0.61972237,-0.45273703,-0.17310534,-0.18389113
1747672446.575996,0.34283942,-1.8212771,0.61972237,-0.45273703,-0.17310534,-0.18389113
1747672446.5769775,0.34283942,-1.8212771,0.61972237,-0.45273703,-0.17310534,-0.18389113
1747672446.5777707,0.34283942,-1.8212771,0.61972237,-0.45273703,-0.17310534,-0.18389113
1747672446.5786011,0.34283942,-1.8212771,0.61972237,-0.45273703,-0.17310534,-0.18389113
1747672446.5801697,0.072912104,-1.7529413,0.5484576,-0.123570584,-0.26897907,0.24221432
1747672446.5836153,0.072912104,-1.7529413,0.5484576,-0.123570584,-0.26897907,0.24221432
1747672446.5846984,0.072912104,-1.7529413,0.5484576,-0.123570584,-0.26897907,0.24221432
1747672446.5856283,0.072912104,-1.7529413,0.5484576,-0.123570584,-0.26897907,0.24221432
1747672446.5864704,0.072912104,-1.7529413,0.5484576,-0.123570584,-0.26897907,0.24221432
1747672446.5873086,0.072912104,-1.7529413,0.5484576,-0.123570584,-0.26897907,0.24221432
1747672446.58814,0.072912104,-1.7529413,0.5484576,-0.123570584,-0.26897907,0.24221432
1747672446.5889318,0.072912104,-1.7529413,0.5484576,-0.123570584,-0.26897907,0.24221432
1747672446.5897355,0.072912104,-1.7529413,0.5484576,-0.123570584,-0.26897907,0.24221432
1747672446.5907779,0.072912104,-1.7529413,0.5484576,-0.123570584,-0.26897907,0.24221432
1747672446.5915627,0.072912104,-1.7529413,0.5484576,-0.123570584,-0.26897907,0.24221432
1747672446.5923772,0.072912104,-1.7529413,0.5484576,-0.123570584,-0.26897907,0.24221432
1747672446.5932617,0.072912104,-1.7529413,0.5484576,-0.123570584,-0.26897907,0.24221432
1747672446.594254,-0.06424807,-1.641651,0.4147143,0.13954954,-0.4000065,0.7183872
1747672446.595197,-0.06424807,-1.641651,0.4147143,0.13954954,-0.4000065,0.7183872
1747672446.5963023,-0.06424807,-1.641651,0.4147143,0.13954954,-0.4000065,0.7183872
1747672446.5972378,-0.06424807,-1.641651,0.4147143,0.13954954,-0.4000065,0.7183872
1747672446.5980449,-0.06424807,-1.641651,0.4147143,0.13954954,-0.4000065,0.7183872
1747672446.5988362,-0.06424807,-1.641651,0.4147143,0.13954954,-0.4000065,0.7183872
1747672446.5996356,-0.06424807,-1.641651,0.4147143,0.13954954,-0.4000065,0.7183872
1747672446.6003842,-0.06424807,-1.641651,0.4147143,0.13954954,-0.4000065,0.7183872
1747672446.6011474,-0.06424807,-1.641651,0.4147143,0.13954954,-0.4000065,0.7183872
1747672446.6018963,-0.07498659,-1.5025384,0.21507545,0.35579807,-0.5257076,1.2723242
1747672446.602631,-0.07498659,-1.5025384,0.21507545,0.35579807,-0.5257076,1.2723242
1747672446.60336,-0.07498659,-1.5025384,0.21507545,0.35579807,-0.5257076,1.2723242
1747672446.6040673,-0.07498659,-1.5025384,0.21507545,0.35579807,-0.5257076,1.2723242
1747672446.6047678,-0.07498659,-1.5025384,0.21507545,0.35579807,-0.5257076,1.2723242
1747672446.6055076,-0.07498659,-1.5025384,0.21507545,0.35579807,-0.5257076,1.2723242
1747672446.6062467,-0.07498659,-1.5025384,0.21507545,0.35579807,-0.5257076,1.2723242
1747672446.6070285,-0.07498659,-1.5025384,0.21507545,0.35579807,-0.5257076,1.2723242
1747672446.6077676,-0.07498659,-1.5025384,0.21507545,0.35579807,-0.5257076,1.2723242
1747672446.6084719,-0.07498659,-1.5025384,0.21507545,0.35579807,-0.5257076,1.2723242
1747672446.6091673,-0.03691366,-1.4073561,0.07645093,0.40799597,-0.5811013,1.5876423
1747672446.6098864,-0.03691366,-1.4073561,0.07645093,0.40799597,-0.5811013,1.5876423
1747672446.6106327,-0.03691366,-1.4073561,0.07645093,0.40799597,-0.5811013,1.5876423
1747672446.6113799,-0.03691366,-1.4073561,0.07645093,0.40799597,-0.5811013,1.5876423
1747672446.612212,-0.03691366,-1.4073561,0.07645093,0.40799597,-0.5811013,1.5876423
1747672446.613033,-0.03691366,-1.4073561,0.07645093,0.40799597,-0.5811013,1.5876423
1747672446.6145468,-0.03691366,-1.4073561,0.07645093,0.40799597,-0.5811013,1.5876423
1747672446.615981,-0.03691366,-1.4073561,0.07645093,0.40799597,-0.5811013,1.5876423
1747672446.6170785,0.014338363,-1.2814226,-0.0660785,0.37284228,-0.6226466,1.9263961
1747672446.6179142,0.014338363,-1.2814226,-0.0660785,0.37284228,-0.6226466,1.9263961
1747672446.6187317,0.014338363,-1.2814226,-0.0660785,0.37284228,-0.6226466,1.9263961
1747672446.6197443,0.014338363,-1.2814226,-0.0660785,0.37284228,-0.6226466,1.9263961
1747672446.6207507,0.014338363,-1.2814226,-0.0660785,0.37284228,-0.6226466,1.9263961
1747672446.621738,0.014338363,-1.2814226,-0.0660785,0.37284228,-0.6226466,1.9263961
1747672446.6227539,0.014338363,-1.2814226,-0.0660785,0.37284228,-0.6226466,1.9263961
1747672446.6237407,0.014338363,-1.2814226,-0.0660785,0.37284228,-0.6226466,1.9263961
1747672446.624742,0.014338363,-1.2814226,-0.0660785,0.37284228,-0.6226466,1.9263961
1747672446.6261213,0.014338363,-1.2814226,-0.0660785,0.37284228,-0.6226466,1.9263961
1747672446.6292021,0.014338363,-1.2814226,-0.0660785,0.23755379,-0.6695182,2.2225394
1747672446.6300998,0.014338363,-1.2814226,-0.0660785,0.23755379,-0.6695182,2.2225394
1747672446.631026,0.014338363,-1.2814226,-0.0660785,0.23755379,-0.6695182,2.2225394
1747672446.6318374,0.014338363,-1.2814226,-0.0660785,0.23755379,-0.6695182,2.2225394
1747672446.6326582,0.105127655,-1.1486554,-0.1910358,0.23755379,-0.6695182,2.2225394
1747672446.6334405,0.105127655,-1.1486554,-0.1910358,0.23755379,-0.6695182,2.2225394
1747672446.6342275,0.105127655,-1.1486554,-0.1910358,0.23755379,-0.6695182,2.2225394
1747672446.6350272,0.105127655,-1.1486554,-0.1910358,0.23755379,-0.6695182,2.2225394
1747672446.6358354,0.105127655,-1.1486554,-0.1910358,0.23755379,-0.6695182,2.2225394
1747672446.63664,0.105127655,-1.1486554,-0.1910358,0.23755379,-0.6695182,2.2225394
1747672446.6375759,0.105127655,-1.1486554,-0.1910358,0.23755379,-0.6695182,2.2225394
1747672446.6385186,0.105127655,-1.1486554,-0.1910358,0.23755379,-0.6695182,2.2225394
1747672446.6393118,0.105127655,-1.1486554,-0.1910358,0.23755379,-0.6695182,2.2225394
1747672446.6416085,0.16467762,-1.0280912,-0.34772056,-0.0234358,-0.6663224,2.479268
1747672446.6423938,0.16467762,-1.0280912,-0.34772056,-0.0234358,-0.6663224,2.479268
1747672446.6432023,0.16467762,-1.0280912,-0.34772056,-0.0234358,-0.6663224,2.479268
1747672446.6439936,0.16467762,-1.0280912,-0.34772056,-0.0234358,-0.6663224,2.479268
1747672446.6447482,0.16467762,-1.0280912,-0.34772056,-0.0234358,-0.6663224,2.479268
1747672446.645489,0.16467762,-1.0280912,-0.34772056,-0.0234358,-0.6663224,2.479268
1747672446.6462953,0.16467762,-1.0280912,-0.34772056,-0.0234358,-0.6663224,2.479268
1747672446.647061,0.16467762,-1.0280912,-0.34772056,-0.0234358,-0.6663224,2.479268
1747672446.6477852,0.16467762,-1.0280912,-0.34772056,-0.0234358,-0.6663224,2.479268
1747672446.6485236,0.16467762,-1.0280912,-0.34772056,-0.0234358,-0.6663224,2.479268
1747672446.649265,0.21397719,-0.9045982,-0.48878568,-0.45273703,-0.5864276,2.7509103
1747672446.650038,0.21397719,-0.9045982,-0.48878568,-0.45273703,-0.5864276,2.7509103
1747672446.650745,0.21397719,-0.9045982,-0.48878568,-0.45273703,-0.5864276,2.7509103
1747672446.6514847,0.21397719,-0.9045982,-0.48878568,-0.45273703,-0.5864276,2.7509103
1747672446.6522012,0.21397719,-0.9045982,-0.48878568,-0.45273703,-0.5864276,2.7509103
1747672446.6529388,0.21397719,-0.9045982,-0.48878568,-0.45273703,-0.5864276,2.7509103
1747672446.653658,0.21397719,-0.9045982,-0.48878568,-0.45273703,-0.5864276,2.7509103
1747672446.6543603,0.21397719,-0.9045982,-0.48878568,-0.45273703,-0.5864276,2.7509103
1747672446.65509,0.21397719,-0.9045982,-0.48878568,-0.45273703,-0.5864276,2.7509103
1747672446.6558187,0.21397719,-0.9045982,-0.48878568,-0.45273703,-0.5864276,2.7509103
1747672446.6565604,0.21397719,-0.9045982,-0.48878568,-0.45273703,-0.5864276,2.7509103
1747672446.6572993,0.21397719,-0.9045982,-0.48878568,-0.45273703,-0.5864276,2.7509103
1747672446.6581466,0.27011034,-0.79721296,-0.48634505,-0.45273703,-0.5864276,2.7509103
1747672446.6589148,0.27011034,-0.79721296,-0.48634505,-0.45273703,-0.5864276,2.7509103
1747672446.6605043,0.27011034,-0.79721296,-0.48634505,-0.45273703,-0.5864276,2.7509103
1747672446.6620939,0.27011034,-0.79721296,-0.48634505,-0.45273703,-0.5864276,2.7509103
1747672446.6628926,0.27011034,-0.79721296,-0.48634505,-0.45273703,-0.5864276,2.7509103
1747672446.6637013,0.27011034,-0.79721296,-0.48634505,-0.45273703,-0.5864276,2.7509103
1747672446.6646795,0.27011034,-0.79721296,-0.48634505,-0.45273703,-0.5864276,2.7509103
1747672446.6655328,0.27011034,-0.79721296,-0.48634505,-0.45273703,-0.5864276,2.7509103
1747672446.6663294,0.27011034,-0.79721296,-0.48634505,-0.45273703,-0.5864276,2.7509103
1747672446.667137,0.27011034,-0.79721296,-0.48634505,-0.45273703,-0.5864276,2.7509103
1747672446.6679258,0.27011034,-0.79721296,-0.48634505,-0.45273703,-0.5864276,2.7509103
1747672446.668834,0.27011034,-0.79721296,-0.48634505,-0.45273703,-0.5864276,2.7509103
1747672446.6697736,0.27011034,-0.79721296,-0.48634505,-0.45273703,-0.5864276,2.7509103
1747672446.6705675,0.27011034,-0.79721296,-0.48634505,-0.45273703,-0.5864276,2.7509103
1747672446.6714222,0.3194099,-0.7152098,-0.3418632,-1.4455627,-0.26897907,3.23454
1747672446.6724315,0.3194099,-0.7152098,-0.3418632,-1.4455627,-0.26897907,3.23454
1747672446.673637,0.3194099,-0.7152098,-0.3418632,-1.4455627,-0.26897907,3.23454
1747672446.6748571,0.3194099,-0.7152098,-0.3418632,-1.4455627,-0.26897907,3.23454
1747672446.6760578,0.3194099,-0.7152098,-0.3418632,-1.4455627,-0.26897907,3.23454
1747672446.6769838,0.3194099,-0.7152098,-0.3418632,-1.4455627,-0.26897907,3.23454
1747672446.6779218,0.3194099,-0.7152098,-0.3418632,-1.4455627,-0.26897907,3.23454
1747672446.6787374,0.3194099,-0.7152098,-0.3418632,-1.4455627,-0.26897907,3.23454
1747672446.679541,0.33063656,-0.58244264,-0.03679163,-1.8088176,-0.019707378,3.5242915
1747672446.680333,0.33063656,-0.58244264,-0.03679163,-1.8088176,-0.019707378,3.5242915
1747672446.6811323,0.33063656,-0.58244264,-0.03679163,-1.8088176,-0.019707378,3.5242915
1747672446.6819358,0.33063656,-0.58244264,-0.03679163,-1.8088176,-0.019707378,3.5242915
1747672446.6827416,0.33063656,-0.58244264,-0.03679163,-1.8088176,-0.019707378,3.5242915
1747672446.6835425,0.33063656,-0.58244264,-0.03679163,-1.8088176,-0.019707378,3.5242915
1747672446.6843264,0.33063656,-0.58244264,-0.03679163,-1.8088176,-0.019707378,3.5242915
1747672446.685157,0.33063656,-0.58244264,-0.03679163,-1.8088176,-0.019707378,3.5242915
1747672446.6859806,0.33063656,-0.58244264,-0.03679163,-1.8088176,-0.019707378,3.5242915
1747672446.6870987,0.33063656,-0.58244264,-0.03679163,-1.8088176,-0.019707378,3.5242915
1747672446.6884608,0.33063656,-0.58244264,-0.03679163,-1.8088176,-0.019707378,3.5242915
1747672446.6895337,0.33063656,-0.58244264,-0.03679163,-1.8088176,-0.019707378,3.5242915
1747672446.6903636,0.33063656,-0.58244264,-0.03679163,-1.8088176,-0.019707378,3.5242915
1747672446.6911612,0.33063656,-0.58244264,-0.03679163,-1.8088176,-0.019707378,3.5242915
1747672446.6919324,0.33063656,-0.58244264,-0.03679163,-1.8088176,-0.019707378,3.5242915
1747672446.6926904,0.37798366,-0.4999513,0.38298684,-1.8397104,0.120907426,3.9386792
1747672446.6934483,0.37798366,-0.4999513,0.38298684,-1.8397104,0.120907426,3.9386792
1747672446.6941988,0.37798366,-0.4999513,0.38298684,-1.8397104,0.120907426,3.9386792
1747672446.6949427,0.37798366,-0.4999513,0.38298684,-1.8397104,0.120907426,3.9386792
1747672446.6956851,0.37798366,-0.4999513,0.38298684,-1.8397104,0.120907426,3.9386792
1747672446.6963933,0.37798366,-0.4999513,0.38298684,-1.8397104,0.120907426,3.9386792
1747672446.6970851,0.37798366,-0.4999513,0.38298684,-1.8397104,0.120907426,3.9386792
1747672446.6977823,0.37798366,-0.4999513,0.38298684,-1.8397104,0.120907426,3.9386792
1747672446.698531,0.37798366,-0.4999513,0.38298684,-1.8397104,0.120907426,3.9386792
1747672446.6992726,0.37798366,-0.4999513,0.38298684,-1.8397104,0.120907426,3.9386792
1747672446.700056,0.37798366,-0.4999513,0.38298684,-1.8397104,0.120907426,3.9386792
1747672446.7008424,0.37798366,-0.4999513,0.38298684,-1.8397104,0.120907426,3.9386792
1747672446.701552,0.37798366,-0.4999513,0.38298684,-1.8397104,0.120907426,3.9386792
1747672446.7022865,0.37798366,-0.4999513,0.38298684,-1.8397104,0.120907426,3.9386792
1747672446.7030551,0.37798366,-0.4999513,0.38298684,-1.8397104,0.120907426,3.9386792
1747672446.703773,0.39848447,-0.42478165,0.6509617,-1.8397104,0.120907426,3.9386792
1747672446.7045162,0.39848447,-0.42478165,0.6509617,-1.8397104,0.120907426,3.9386792
1747672446.7052538,0.39848447,-0.42478165,0.6509617,-1.8397104,0.120907426,3.9386792
1747672446.7059844,0.39848447,-0.42478165,0.6509617,-1.8397104,0.120907426,3.9386792
1747672446.7075968,0.39848447,-0.42478165,0.6509617,-1.8397104,0.120907426,3.9386792
1747672446.709451,0.39848447,-0.42478165,0.6509617,-1.8397104,0.120907426,3.9386792
1747672446.71026,0.39848447,-0.42478165,0.6509617,-1.8397104,0.120907426,3.9386792
1747672446.711061,0.39848447,-0.42478165,0.6509617,-1.8397104,0.120907426,3.9386792
1747672446.7118504,0.39848447,-0.42478165,0.6509617,-1.8397104,0.120907426,3.9386792
1747672446.7128205,0.39848447,-0.42478165,0.6509617,-1.8397104,0.120907426,3.9386792
1747672446.7138994,0.43997422,-0.32764685,0.57725644,-1.8397104,0.120907426,3.9386792
1747672446.7149546,0.43997422,-0.32764685,0.57725644,-0.81599194,-0.14434323,4.9091344
1747672446.715757,0.43997422,-0.32764685,0.57725644,-0.81599194,-0.14434323,4.9091344
1747672446.716847,0.43997422,-0.32764685,0.57725644,-0.81599194,-0.14434323,4.9091344
1747672446.7178922,0.43997422,-0.32764685,0.57725644,-0.81599194,-0.14434323,4.9091344
1747672446.7211044,0.65718514,-0.34326652,0.22776644,-0.4953476,-0.4032023,5.3640018
1747672446.7220342,0.65718514,-0.34326652,0.22776644,-0.4953476,-0.4032023,5.3640018
1747672446.7228124,0.65718514,-0.34326652,0.22776644,-0.4953476,-0.4032023,5.3640018
1747672446.7239785,0.65718514,-0.34326652,0.22776644,-0.4953476,-0.4032023,5.3640018
1747672446.7254303,0.65718514,-0.34326652,0.22776644,-0.4953476,-0.4032023,5.3640018
1747672446.726398,0.65718514,-0.34326652,0.22776644,-0.4953476,-0.4032023,5.3640018
1747672446.727361,0.65718514,-0.34326652,0.22776644,-0.39627808,-0.6396908,5.903025
1747672446.7283978,0.65718514,-0.34326652,0.22776644,-0.39627808,-0.6396908,5.903025
1747672446.7293167,0.65718514,-0.34326652,0.22776644,-0.39627808,-0.6396908,5.903025
1747672446.7303784,0.65718514,-0.34326652,0.22776644,-0.39627808,-0.6396908,5.903025
1747672446.7314622,0.65718514,-0.34326652,0.22776644,-0.39627808,-0.6396908,5.903025
1747672446.732275,0.65718514,-0.34326652,0.22776644,-0.39627808,-0.6396908,5.903025
1747672446.7331192,0.65718514,-0.34326652,0.22776644,-0.39627808,-0.6396908,5.903025
1747672446.7341459,0.82607275,-0.33740917,-0.07340022,-0.39627808,-0.6396908,5.903025
1747672446.7353578,0.82607275,-0.33740917,-0.07340022,-0.39627808,-0.6396908,5.903025
1747672446.7362008,0.82607275,-0.33740917,-0.07340022,-0.39627808,-0.6396908,5.903025
1747672446.7371645,0.82607275,-0.33740917,-0.07340022,-0.39627808,-0.6396908,5.903025
1747672446.7379453,0.82607275,-0.33740917,-0.07340022,-0.39627808,-0.6396908,5.903025
1747672446.7387543,0.82607275,-0.33740917,-0.07340022,-0.63596237,-0.68549716,6.483594
1747672446.7395523,0.82607275,-0.33740917,-0.07340022,-0.63596237,-0.68549716,6.483594
1747672446.7403429,0.82607275,-0.33740917,-0.07340022,-0.63596237,-0.68549716,6.483594
1747672446.7411237,0.82607275,-0.33740917,-0.07340022,-0.63596237,-0.68549716,6.483594
1747672446.741945,0.82607275,-0.33740917,-0.07340022,-0.63596237,-0.68549716,6.483594
1747672446.742715,0.82607275,-0.33740917,-0.07340022,-0.63596237,-0.68549716,6.483594
1747672446.7434764,0.82607275,-0.33740917,-0.07340022,-0.63596237,-0.68549716,6.483594
1747672446.7442021,0.82607275,-0.33740917,-0.07340022,-0.63596237,-0.68549716,6.483594
1747672446.7449224,0.82607275,-0.33740917,-0.07340022,-0.63596237,-0.68549716,6.483594
1747672446.7456563,0.82607275,-0.33740917,-0.07340022,-0.63596237,-0.68549716,6.483594
1747672446.746343,0.82607275,-0.33740917,-0.07340022,-0.63596237,-0.68549716,6.483594
1747672446.7470627,0.82607275,-0.33740917,-0.07340022,-0.63596237,-0.68549716,6.483594
1747672446.7477891,0.82607275,-0.33740917,-0.07340022,-1.1014826,-0.5342297,7.1248827
1747672446.7485468,0.82607275,-0.33740917,-0.07340022,-1.1014826,-0.5342297,7.1248827
1747672446.7493098,1.3063774,-0.26321575,-0.5551692,-1.1014826,-0.5342297,7.1248827
1747672446.7501054,1.3063774,-0.26321575,-0.5551692,-1.1014826,-0.5342297,7.1248827
1747672446.750864,1.3063774,-0.26321575,-0.5551692,-1.1014826,-0.5342297,7.1248827
1747672446.7515872,1.3063774,-0.26321575,-0.5551692,-1.1014826,-0.5342297,7.1248827
1747672446.7523406,1.3063774,-0.26321575,-0.5551692,-1.1014826,-0.5342297,7.1248827
1747672446.7530684,1.3063774,-0.26321575,-0.5551692,-1.1014826,-0.5342297,7.1248827
1747672446.7547338,1.3063774,-0.26321575,-0.5551692,-1.1014826,-0.5342297,7.1248827
1747672446.7557201,1.3063774,-0.26321575,-0.5551692,-1.1014826,-0.5342297,7.1248827
1747672446.7565465,1.3063774,-0.26321575,-0.5551692,-1.1014826,-0.5342297,7.1248827
1747672446.7573938,1.3063774,-0.26321575,-0.5551692,-1.1014826,-0.5342297,7.1248827
1747672446.7582238,1.3063774,-0.26321575,-0.5551692,-1.1014826,-0.5342297,7.1248827
1747672446.7590177,1.3063774,-0.26321575,-0.5551692,-1.1014826,-0.5342297,7.1248827
1747672446.7599247,1.3063774,-0.26321575,-0.5551692,-1.1014826,-0.5342297,7.1248827
1747672446.760725,1.3063774,-0.26321575,-0.5551692,-1.1014826,-0.5342297,7.1248827
1747672446.7615201,1.3063774,-0.26321575,-0.5551692,-1.1014826,-0.5342297,7.1248827
1747672446.7623243,1.3063774,-0.26321575,-0.5551692,-1.1014826,-0.5342297,7.1248827
1747672446.7631567,1.3063774,-0.26321575,-0.5551692,-1.1014826,-0.5342297,7.1248827
1747672446.7640007,1.8442796,-0.12800802,-0.37066194,-1.5222617,-0.17204008,7.909982
1747672446.7648797,1.8442796,-0.12800802,-0.37066194,-1.5222617,-0.17204008,7.909982
1747672446.7656858,1.8442796,-0.12800802,-0.37066194,-1.5222617,-0.17204008,7.909982
1747672446.7664735,1.8442796,-0.12800802,-0.37066194,-1.5222617,-0.17204008,7.909982
1747672446.7672575,1.8442796,-0.12800802,-0.37066194,-1.5222617,-0.17204008,7.909982
1747672446.7685196,1.8442796,-0.12800802,-0.37066194,-1.5222617,-0.17204008,7.909982
1747672446.769317,1.8442796,-0.12800802,-0.37066194,-1.5222617,-0.17204008,7.909982
1747672446.770118,1.8442796,-0.12800802,-0.37066194,-1.5222617,-0.17204008,7.909982
1747672446.7716672,1.8442796,-0.12800802,-0.37066194,-1.5222617,-0.17204008,7.909982
1747672446.7725344,2.464673,-0.104090415,-0.153451,-1.5488933,-0.12836426,8.373372
1747672446.7733362,2.464673,-0.104090415,-0.153451,-1.5488933,-0.12836426,8.373372
1747672446.7742162,2.464673,-0.104090415,-0.153451,-1.5488933,-0.12836426,8.373372
1747672446.7750545,2.464673,-0.104090415,-0.153451,-1.5488933,-0.12836426,8.373372
1747672446.7758546,2.464673,-0.104090415,-0.153451,-1.5488933,-0.12836426,8.373372
1747672446.7767162,2.464673,-0.104090415,-0.153451,-1.5488933,-0.12836426,8.373372
1747672446.7775917,2.464673,-0.104090415,-0.153451,-1.5488933,-0.12836426,8.373372
1747672446.7787836,2.464673,-0.104090415,-0.153451,-1.5488933,-0.12836426,8.373372
1747672446.7816188,3.1021507,-0.05186216,-0.034839172,-1.3017522,-0.48096654,8.799478
1747672446.782505,3.1021507,-0.05186216,-0.034839172,-1.3017522,-0.48096654,8.799478
1747672446.7835488,3.1021507,-0.05186216,-0.034839172,-1.3017522,-0.48096654,8.799478
1747672446.7843428,3.1021507,-0.05186216,-0.034839172,-1.3017522,-0.48096654,8.799478
1747672446.7851639,3.1021507,-0.05186216,-0.034839172,-1.3017522,-0.48096654,8.799478
1747672446.785973,3.1021507,-0.05186216,-0.034839172,-1.3017522,-0.48096654,8.799478
1747672446.786797,3.1021507,-0.05186216,-0.034839172,-1.3017522,-0.48096654,8.799478
1747672446.7875943,3.1021507,-0.05186216,-0.034839172,-1.3017522,-0.48096654,8.799478
1747672446.7883582,3.1021507,-0.05186216,-0.034839172,-1.3017522,-0.48096654,8.799478
1747672446.7891169,3.1021507,-0.05186216,-0.034839172,-1.3017522,-0.48096654,8.799478
1747672446.789938,3.6634822,0.0311173,-0.090484224,-0.9906952,-1.1020153,9.042357
1747672446.7906756,3.6634822,0.0311173,-0.090484224,-0.9906952,-1.1020153,9.042357
1747672446.7913966,3.6634822,0.0311173,-0.090484224,-0.9906952,-1.1020153,9.042357
1747672446.7920902,3.6634822,0.0311173,-0.090484224,-0.9906952,-1.1020153,9.042357
1747672446.79281,3.6634822,0.0311173,-0.090484224,-0.9906952,-1.1020153,9.042357
1747672446.7935607,3.6634822,0.0311173,-0.090484224,-0.9906952,-1.1020153,9.042357
1747672446.794276,3.6634822,0.0311173,-0.090484224,-0.9906952,-1.1020153,9.042357
1747672446.7949972,3.6634822,0.0311173,-0.090484224,-0.9906952,-1.1020153,9.042357
1747672446.7957237,3.6634822,0.0311173,-0.090484224,-0.9906952,-1.1020153,9.042357
1747672446.796473,3.6634822,0.0311173,-0.090484224,-0.9906952,-1.1020153,9.042357
1747672446.797216,3.6634822,0.0311173,-0.090484224,-0.9906952,-1.1020153,9.042357
1747672446.7979136,3.6634822,0.0311173,-0.090484224,-0.9906952,-1.1020153,9.042357
1747672446.7986207,3.6634822,0.0311173,-0.090484224,-0.9906952,-1.1020153,9.042357
1747672446.799379,3.6634822,0.0311173,-0.090484224,-0.9906952,-1.1020153,9.042357
1747672446.8009906,3.6634822,0.0311173,-0.090484224,-0.9906952,-1.1020153,9.042357
1747672446.8020198,3.6634822,0.0311173,-0.090484224,-0.9906952,-1.1020153,9.042357
1747672446.8028612,3.6634822,0.0311173,-0.090484224,-0.9906952,-1.1020153,9.042357
1747672446.8036594,3.6634822,0.0311173,-0.090484224,-0.9906952,-1.1020153,9.042357
1747672446.804466,3.6634822,0.0311173,-0.090484224,-0.9906952,-1.1020153,9.042357
1747672446.8054712,4.5376954,0.19365942,-0.4199615,-0.86073303,-1.8551567,9.328913
1747672446.8064082,4.5376954,0.19365942,-0.4199615,-0.86073303,-1.8551567,9.328913
1747672446.8073595,4.5376954,0.19365942,-0.4199615,-0.86073303,-1.8551567,9.328913
1747672446.8082583,4.5376954,0.19365942,-0.4199615,-0.86073303,-1.8551567,9.328913
1747672446.8094876,4.5376954,0.19365942,-0.4199615,-0.86073303,-1.8551567,9.328913
1747672446.8163717,4.5376954,0.19365942,-0.4199615,-0.86073303,-1.8551567,9.328913
1747672446.8182392,4.5376954,0.19365942,-0.4199615,-0.86073303,-1.8551567,9.328913
1747672446.8192425,5.845842,0.49140924,-0.7509031,-2.2743378,-1.1339731,8.839957
1747672446.8203228,5.845842,0.49140924,-0.7509031,-2.2743378,-1.1339731,8.839957
1747672446.8213084,5.845842,0.49140924,-0.7509031,-2.2743378,-1.1339731,8.839957
1747672446.8223343,5.845842,0.49140924,-0.7509031,-2.2743378,-1.1339731,8.839957
1747672446.8232372,5.845842,0.49140924,-0.7509031,-2.2743378,-1.1339731,8.839957
1747672446.8243244,5.845842,0.49140924,-0.7509031,-2.2743378,-1.1339731,8.839957
1747672446.825286,5.845842,0.49140924,-0.7509031,-2.2743378,-1.1339731,8.839957
1747672446.826174,5.845842,0.49140924,-0.7509031,-2.2743378,-1.1339731,8.839957
1747672446.8281903,5.845842,0.49140924,-0.7509031,-2.2743378,-1.1339731,8.839957
1747672446.829523,5.845842,0.49140924,-0.7509031,-2.2743378,-1.1339731,8.839957
1747672446.8305876,5.845842,0.49140924,-0.7509031,-2.2743378,-1.1339731,8.839957
1747672446.831664,5.845842,0.49140924,-0.7509031,-2.2743378,-1.1339731,8.839957
1747672446.832562,5.845842,0.49140924,-0.7509031,-2.2743378,-1.1339731,8.839957
1747672446.833451,5.845842,0.49140924,-0.7509031,-2.2743378,-1.1339731,8.839957
1747672446.8343425,5.7101464,0.6212477,-0.3116001,-3.3023174,-0.20399798,8.685493
1747672446.835113,5.7101464,0.6212477,-0.3116001,-3.3023174,-0.20399798,8.685493
1747672446.8358655,5.7101464,0.6212477,-0.3116001,-3.3023174,-0.20399798,8.685493
1747672446.836624,5.7101464,0.6212477,-0.3116001,-3.3023174,-0.20399798,8.685493
1747672446.8374813,5.7101464,0.6212477,-0.3116001,-3.3023174,-0.20399798,8.685493
1747672446.8382866,5.4851255,0.5475424,0.40007085,-3.9915428,0.33396015,8.6301
1747672446.8390574,5.4851255,0.5475424,0.40007085,-3.9915428,0.33396015,8.6301
1747672446.8397915,5.4851255,0.5475424,0.40007085,-3.9915428,0.33396015,8.6301
1747672446.840525,5.4851255,0.5475424,0.40007085,-3.9915428,0.33396015,8.6301
1747672446.841277,5.4851255,0.5475424,0.40007085,-3.9915428,0.33396015,8.6301
1747672446.8420475,5.4851255,0.5475424,0.40007085,-3.9915428,0.33396015,8.6301
1747672446.8428006,5.4851255,0.5475424,0.40007085,-3.9915428,0.33396015,8.6301
1747672446.8435643,5.4851255,0.5475424,0.40007085,-3.9915428,0.33396015,8.6301
1747672446.8442862,5.4851255,0.5475424,0.40007085,-3.9915428,0.33396015,8.6301
1747672446.8450356,5.4851255,0.5475424,0.40007085,-3.9915428,0.33396015,8.6301
1747672446.845853,5.4851255,0.5475424,0.40007085,-3.9915428,0.33396015,8.6301
1747672446.8466547,5.4851255,0.5475424,0.40007085,-3.9915428,0.33396015,8.6301
1747672446.8473935,5.4851255,0.5475424,0.40007085,-3.9915428,0.33396015,8.6301
1747672446.8497462,5.4851255,0.5475424,0.40007085,-3.9915428,0.33396015,8.6301
1747672446.8509536,5.4851255,0.5475424,0.40007085,-3.9915428,0.33396015,8.6301
1747672446.8533375,5.260593,0.61636657,1.0526799,-4.1119175,-0.030360013,8.573641
1747672446.859347,5.260593,0.61636657,1.0526799,-4.1119175,-0.030360013,8.573641
1747672446.8655915,5.260593,0.61636657,1.0526799,-4.1119175,-0.030360013,8.573641
1747672446.8775666,5.0404534,0.6114854,1.3455486,-3.2511847,-1.4855101,8.515052
1747672446.87855,5.0404534,0.6114854,1.3455486,-3.2511847,-1.4855101,8.515052
1747672446.8797092,5.0336194,0.7720751,1.215222,-2.6802034,-2.1544957,8.403199
1747672446.8805993,5.0336194,0.7720751,1.215222,-2.6802034,-2.1544957,8.403199
1747672446.8814352,5.0336194,0.7720751,1.215222,-2.6802034,-2.1544957,8.403199
1747672446.8823318,5.0336194,0.7720751,1.215222,-2.6802034,-2.1544957,8.403199
1747672446.8830898,5.0336194,0.7720751,1.215222,-2.6802034,-2.1544957,8.403199
1747672446.8838332,5.0336194,0.7720751,1.215222,-2.6802034,-2.1544957,8.403199
1747672446.8846245,5.0336194,0.7720751,1.215222,-2.6802034,-2.1544957,8.403199
1747672446.885395,5.0336194,0.7720751,1.215222,-2.6802034,-2.1544957,8.403199
1747672446.8861697,5.0336194,0.7720751,1.215222,-2.6802034,-2.1544957,8.403199
1747672446.8869042,5.0336194,0.7720751,1.215222,-2.6802034,-2.1544957,8.403199
1747672446.8877697,5.0336194,0.7720751,1.215222,-2.6802034,-2.1544957,8.403199
1747672446.8885012,5.0336194,0.7720751,1.215222,-2.6802034,-2.1544957,8.403199
1747672446.8892035,5.0336194,0.7720751,1.215222,-2.6802034,-2.1544957,8.403199
1747672446.8899264,5.15272,0.8828771,0.88476855,-2.275403,-2.6157548,8.215713
1747672446.890656,5.15272,0.8828771,0.88476855,-2.275403,-2.6157548,8.215713
1747672446.8913543,5.15272,0.8828771,0.88476855,-2.275403,-2.6157548,8.215713
1747672446.8920481,5.15272,0.8828771,0.88476855,-2.275403,-2.6157548,8.215713
1747672446.8927803,5.15272,0.8828771,0.88476855,-2.275403,-2.6157548,8.215713
1747672446.8935547,5.15272,0.8828771,0.88476855,-2.275403,-2.6157548,8.215713
1747672446.897451,5.15272,0.8828771,0.88476855,-2.275403,-2.6157548,8.215713
1747672446.8988142,5.15272,0.8828771,0.88476855,-2.275403,-2.6157548,8.215713
1747672446.9004457,5.12929,0.94974875,0.33319917,-2.1369188,-2.8043065,7.8183694
1747672446.902056,5.12929,0.94974875,0.33319917,-2.1369188,-2.8043065,7.8183694
1747672446.9033434,5.12929,0.94974875,0.33319917,-2.1369188,-2.8043065,7.8183694
1747672446.9048004,5.12929,0.94974875,0.33319917,-2.1369188,-2.8043065,7.8183694
1747672446.905847,5.12929,0.94974875,0.33319917,-2.1369188,-2.8043065,7.8183694
1747672446.9066298,5.12929,0.94974875,0.33319917,-2.1369188,-2.8043065,7.8183694
1747672446.907445,5.12929,0.94974875,0.33319917,-2.1369188,-2.8043065,7.8183694
1747672446.9082632,5.12929,0.94974875,0.33319917,-2.1369188,-2.8043065,7.8183694
1747672446.90951,5.12929,0.94974875,0.33319917,-2.1369188,-2.8043065,7.8183694
1747672446.9105024,5.12929,0.94974875,0.33319917,-2.1369188,-2.8043065,7.8183694
1747672446.9117875,5.12929,0.94974875,0.33319917,-2.1369188,-2.8043065,7.8183694
1747672446.9129462,5.12929,0.94974875,0.33319917,-2.1369188,-2.8043065,7.8183694
1747672446.913849,4.796884,1.0205253,-0.21300097,-2.5300012,-2.7755444,7.3102384
1747672446.9147527,4.796884,1.0205253,-0.21300097,-2.5300012,-2.7755444,7.3102384
1747672446.9156337,4.796884,1.0205253,-0.21300097,-2.5300012,-2.7755444,7.3102384
1747672446.9183414,4.796884,1.0205253,-0.21300097,-2.5300012,-2.7755444,7.3102384
1747672446.9192576,4.399071,1.0503004,-0.5151438,-3.2746205,-2.6509085,6.9949207
1747672446.9203095,4.399071,1.0503004,-0.5151438,-3.2746205,-2.6509085,6.9949207
1747672446.9213207,4.399071,1.0503004,-0.5151438,-3.2746205,-2.6509085,6.9949207
1747672446.9223588,4.399071,1.0503004,-0.5151438,-3.2746205,-2.6509085,6.9949207
1747672446.9232578,4.399071,1.0503004,-0.5151438,-3.2746205,-2.6509085,6.9949207
1747672446.9241714,4.399071,1.0503004,-0.5151438,-3.2746205,-2.6509085,6.9949207
1747672446.9258945,4.399071,1.0503004,-0.5151438,-3.2746205,-2.6509085,6.9949207
1747672446.9269824,4.399071,1.0503004,-0.5151438,-3.2746205,-2.6509085,6.9949207
1747672446.927951,4.399071,1.0503004,-0.5151438,-3.2746205,-2.6509085,6.9949207
1747672446.9287322,4.399071,1.0503004,-0.5151438,-3.2746205,-2.6509085,6.9949207
1747672446.9295096,4.113524,1.0493242,-0.37066194,-4.372907,-2.1257336,6.7222133
1747672446.9302702,4.113524,1.0493242,-0.37066194,-4.372907,-2.1257336,6.7222133
1747672446.9310005,4.113524,1.0493242,-0.37066194,-4.372907,-2.1257336,6.7222133
1747672446.9317956,4.113524,1.0493242,-0.37066194,-4.372907,-2.1257336,6.7222133
1747672446.9325864,4.113524,1.0493242,-0.37066194,-4.372907,-2.1257336,6.7222133
1747672446.9334707,4.113524,1.0493242,-0.37066194,-4.372907,-2.1257336,6.7222133
1747672446.934272,4.113524,1.0493242,-0.37066194,-4.372907,-2.1257336,6.7222133
1747672446.9350889,4.113524,1.0493242,-0.37066194,-4.372907,-2.1257336,6.7222133
1747672446.9358532,4.113524,1.0493242,-0.37066194,-4.372907,-2.1257336,6.7222133
1747672446.9366322,4.113524,1.0493242,-0.37066194,-4.372907,-2.1257336,6.7222133
1747672446.9374084,4.113524,1.0493242,-0.37066194,-4.372907,-2.1257336,6.7222133
1747672446.938149,4.113524,1.0493242,-0.37066194,-4.372907,-2.1257336,6.7222133
1747672446.9389071,4.113524,1.0493242,-0.37066194,-4.372907,-2.1257336,6.7222133
1747672446.9397357,3.9978406,1.0127156,0.20531316,-4.372907,-2.1257336,6.7222133
1747672446.9405196,3.9978406,1.0127156,0.20531316,-4.372907,-2.1257336,6.7222133
1747672446.9427993,3.9978406,1.0127156,0.20531316,-4.372907,-2.1257336,6.7222133
1747672446.9437003,3.9978406,1.0127156,0.20531316,-4.372907,-2.1257336,6.7222133
1747672446.9446254,3.9978406,1.0127156,0.20531316,-4.372907,-2.1257336,6.7222133
1747672446.9457643,3.9978406,1.0127156,0.20531316,-4.372907,-2.1257336,6.7222133
1747672446.9470582,3.9978406,1.0127156,0.20531316,-4.372907,-2.1257336,6.7222133
1747672446.9485767,3.815286,1.0473716,0.81203943,-5.075981,-1.5568829,5.913678
1747672446.9497325,3.815286,1.0473716,0.81203943,-5.075981,-1.5568829,5.913678
1747672446.9511192,3.815286,1.0473716,0.81203943,-5.075981,-1.5568829,5.913678
1747672446.9522026,3.815286,1.0473716,0.81203943,-5.075981,-1.5568829,5.913678
1747672446.9532697,3.815286,1.0473716,0.81203943,-5.075981,-1.5568829,5.913678
1747672446.955305,3.815286,1.0473716,0.81203943,-5.075981,-1.5568829,5.913678
1747672446.9568403,3.815286,1.0473716,0.81203943,-5.075981,-1.5568829,5.913678
1747672446.957813,3.559514,1.0996,1.3704425,-4.8639936,-1.2767185,5.260671
1747672446.9586034,3.559514,1.0996,1.3704425,-4.8639936,-1.2767185,5.260671
1747672446.9596624,3.559514,1.0996,1.3704425,-4.8639936,-1.2767185,5.260671
1747672446.9606822,3.559514,1.0996,1.3704425,-4.8639936,-1.2767185,5.260671
1747672446.9617956,3.559514,1.0996,1.3704425,-4.8639936,-1.2767185,5.260671
1747672446.9639118,3.559514,1.0996,1.3704425,-4.8639936,-1.2767185,5.260671
1747672446.9650705,3.559514,1.0996,1.3704425,-4.8639936,-1.2767185,5.260671
1747672446.9658535,3.559514,1.0996,1.3704425,-4.8639936,-1.2767185,5.260671
1747672446.967324,3.559514,1.0996,1.3704425,-4.8639936,-1.2767185,5.260671
1747672446.969529,3.05578,1.1713527,1.8180435,-4.2930126,-0.9592699,4.591686
1747672446.9704232,3.05578,1.1713527,1.8180435,-4.2930126,-0.9592699,4.591686
1747672446.9713156,3.05578,1.1713527,1.8180435,-4.2930126,-0.9592699,4.591686
1747672446.9721103,3.05578,1.1713527,1.8180435,-4.2930126,-0.9592699,4.591686
1747672446.9730098,3.05578,1.1713527,1.8180435,-4.2930126,-0.9592699,4.591686
1747672446.9740598,3.05578,1.1713527,1.8180435,-4.2930126,-0.9592699,4.591686
1747672446.9750643,3.05578,1.1713527,1.8180435,-4.2930126,-0.9592699,4.591686
1747672446.9758844,3.05578,1.1713527,1.8180435,-4.2930126,-0.9592699,4.591686
1747672446.9766612,3.05578,1.1713527,1.8180435,-4.2930126,-0.9592699,4.591686
1747672446.9774559,3.05578,1.1713527,1.8180435,-3.5057826,-0.810133,4.0707717
1747672446.9782329,2.4036586,1.2684875,1.9478819,-3.5057826,-0.810133,4.0707717
1747672446.9790518,2.4036586,1.2684875,1.9478819,-3.5057826,-0.810133,4.0707717
1747672446.9798453,2.4036586,1.2684875,1.9478819,-3.5057826,-0.810133,4.0707717
1747672446.9806178,2.4036586,1.2684875,1.9478819,-3.5057826,-0.810133,4.0707717
1747672446.9813726,2.4036586,1.2684875,1.9478819,-3.5057826,-0.810133,4.0707717
1747672446.9821513,2.4036586,1.2684875,1.9478819,-3.5057826,-0.810133,4.0707717
1747672446.9829242,2.4036586,1.2684875,1.9478819,-3.5057826,-0.810133,4.0707717
1747672446.983681,2.4036586,1.2684875,1.9478819,-3.5057826,-0.810133,4.0707717
1747672446.984436,2.4036586,1.2684875,1.9478819,-3.5057826,-0.810133,4.0707717
1747672446.9864507,2.4036586,1.2684875,1.9478819,-3.5057826,-0.810133,4.0707717
1747672446.9876022,2.4036586,1.2684875,1.9478819,-3.5057826,-0.810133,4.0707717
1747672446.9946785,1.7974205,1.3055843,1.7828993,-2.7004433,-0.9092025,3.7788897
1747672446.9965901,1.7974205,1.3055843,1.7828993,-2.7004433,-0.9092025,3.7788897
1747672446.9982266,1.7974205,1.3055843,1.7828993,-2.7004433,-0.9092025,3.7788897
1747672446.9991584,1.7974205,1.3055843,1.7828993,-2.7004433,-0.9092025,3.7788897
1747672447.0000284,1.7974205,1.3055843,1.7828993,-2.7004433,-0.9092025,3.7788897
1747672447.0008464,1.7974205,1.3055843,1.7828993,-2.7004433,-0.9092025,3.7788897
1747672447.0016842,1.7974205,1.3055843,1.7828993,-2.7004433,-0.9092025,3.7788897
1747672447.0028887,1.4323109,1.3007032,1.4065629,-2.26262,-0.84954774,3.6776896
1747672447.003821,1.4323109,1.3007032,1.4065629,-2.26262,-0.84954774,3.6776896
1747672447.0047226,1.4323109,1.3007032,1.4065629,-2.26262,-0.84954774,3.6776896
1747672447.0055583,1.4323109,1.3007032,1.4065629,-2.26262,-0.84954774,3.6776896
1747672447.006565,1.4323109,1.3007032,1.4065629,-2.26262,-0.84954774,3.6776896
1747672447.0074658,1.4323109,1.3007032,1.4065629,-2.26262,-0.84954774,3.6776896
1747672447.029613,1.1521332,1.3500026,0.94138986,-2.1305273,-0.5438171,3.5892727
1747672447.0407298,0.7923929,1.5496415,0.9457829,-2.2359884,-0.11132005,3.1290789
1747672447.0415933,0.6000758,1.7663643,1.1371238,-1.9270619,-0.25832644,2.7839334
1747672447.0425117,0.6000758,1.7663643,1.1371238,-1.9270619,-0.25832644,2.7839334
1747672447.0434725,0.6000758,1.7663643,1.1371238,-1.9270619,-0.25832644,2.7839334
1747672447.0467262,0.6000758,1.7663643,1.1371238,-1.9270619,-0.25832644,2.7839334
1747672447.055546,0.38042423,2.0143266,1.2640336,-1.3550154,-0.555535,2.3397183
1747672447.075708,-0.16333531,2.392127,0.76615673,-0.2077264,-1.1147984,1.4992254
1747672447.0790143,-0.16333531,2.392127,0.76615673,-0.2077264,-1.1147984,1.4992254
1747672447.0798283,-0.16333531,2.392127,0.76615673,-0.2077264,-1.1147984,1.4992254
1747672447.0830934,-0.30586475,2.4697373,0.40007085,-0.17789903,-1.068992,1.1349052
1747672447.0892396,-0.30586475,2.4697373,0.40007085,-0.17789903,-1.068992,1.1349052
1747672447.0909388,-0.46645445,2.4775472,0.21849224,-0.17789903,-1.068992,1.1349052
1747672447.0922954,-0.46645445,2.4775472,0.21849224,-0.4836297,-0.76965296,0.71945244
1747672447.0933275,-0.46645445,2.4775472,0.21849224,-0.4836297,-0.76965296,0.71945244
1747672447.0941138,-0.46645445,2.4775472,0.21849224,-0.4836297,-0.76965296,0.71945244
1747672447.0953631,-0.46645445,2.4775472,0.21849224,-0.4836297,-0.76965296,0.71945244
1747672447.0962703,-0.46645445,2.4775472,0.21849224,-0.4836297,-0.76965296,0.71945244
1747672447.097069,-0.46645445,2.4775472,0.21849224,-0.4836297,-0.76965296,0.71945244
1747672447.0979095,-0.46645445,2.4775472,0.21849224,-0.4836297,-0.76965296,0.71945244
1747672447.0988398,-0.46645445,2.4775472,0.21849224,-0.4836297,-0.76965296,0.71945244
1747672447.0996432,-0.46645445,2.4775472,0.21849224,-0.4836297,-0.76965296,0.71945244
1747672447.1004012,-0.46645445,2.4775472,0.21849224,-0.4836297,-0.76965296,0.71945244
1747672447.1012273,-0.6407113,2.4799876,0.24582666,-0.85434145,-0.43409494,0.36152384
1747672447.1019914,-0.6407113,2.4799876,0.24582666,-0.85434145,-0.43409494,0.36152384
1747672447.1027408,-0.6407113,2.4799876,0.24582666,-0.85434145,-0.43409494,0.36152384
1747672447.1035542,-0.6407113,2.4799876,0.24582666,-0.85434145,-0.43409494,0.36152384
1747672447.104337,-0.6407113,2.4799876,0.24582666,-0.85434145,-0.43409494,0.36152384
1747672447.1051135,-0.6407113,2.4799876,0.24582666,-0.85434145,-0.43409494,0.36152384
1747672447.1058865,-0.6407113,2.4799876,0.24582666,-0.85434145,-0.43409494,0.36152384
1747672447.1066964,-0.6407113,2.4799876,0.24582666,-0.85434145,-0.43409494,0.36152384
1747672447.107454,-0.6407113,2.4799876,0.24582666,-0.85434145,-0.43409494,0.36152384
1747672447.1081908,-0.6407113,2.4799876,0.24582666,-0.85434145,-0.43409494,0.36152384
1747672447.1091728,-0.6407113,2.4799876,0.24582666,-0.85434145,-0.43409494,0.36152384
1747672447.1099591,-0.90917426,2.4350812,0.58799493,-0.85434145,-0.43409494,0.36152384
1747672447.110723,-0.90917426,2.4350812,0.58799493,-1.2229227,-0.009054741,-0.07203846
1747672447.1114728,-0.90917426,2.4350812,0.58799493,-1.2229227,-0.009054741,-0.07203846
1747672447.1122646,-0.90917426,2.4350812,0.58799493,-1.2229227,-0.009054741,-0.07203846
1747672447.113034,-0.90917426,2.4350812,0.58799493,-1.2229227,-0.009054741,-0.07203846
1747672447.1138184,-0.90917426,2.4350812,0.58799493,-1.2229227,-0.009054741,-0.07203846
1747672447.1146216,-0.90917426,2.4350812,0.58799493,-1.2229227,-0.009054741,-0.07203846
1747672447.1154218,-0.90917426,2.4350812,0.58799493,-1.2229227,-0.009054741,-0.07203846
1747672447.1161776,-0.90917426,2.4350812,0.58799493,-1.2229227,-0.009054741,-0.07203846
1747672447.1180193,-0.90917426,2.4350812,0.58799493,-1.2229227,-0.009054741,-0.07203846
1747672447.1188962,-0.90917426,2.4350812,0.58799493,-1.2229227,-0.009054741,-0.07203846
1747672447.1197376,-0.90917426,2.4350812,0.58799493,-1.2229227,-0.009054741,-0.07203846
1747672447.120747,-0.90917426,2.4350812,0.58799493,-1.2229227,-0.009054741,-0.07203846
1747672447.1314778,-1.1132061,2.2027388,1.7355521,-0.57630765,0.2093243,-0.7293061
1747672447.135723,-1.1132061,2.2027388,1.7355521,-0.57630765,0.2093243,-0.7293061
1747672447.1385064,-1.1132061,2.2027388,1.7355521,-0.57630765,0.2093243,-0.7293061
1747672447.1393316,-1.1132061,2.2027388,1.7355521,-0.57630765,0.2093243,-0.7293061
1747672447.1401489,-1.1132061,2.2027388,1.7355521,-0.57630765,0.2093243,-0.7293061
1747672447.1411326,-1.1132061,2.2027388,1.7355521,-0.57630765,0.2093243,-0.7293061
1747672447.1423504,-0.9877607,2.0480065,1.9674065,0.22157484,0.30732855,-0.874182
1747672447.1431642,-0.9877607,2.0480065,1.9674065,0.22157484,0.30732855,-0.874182
1747672447.1440256,-0.9877607,2.0480065,1.9674065,0.22157484,0.30732855,-0.874182
1747672447.1469393,-0.9877607,2.0480065,1.9674065,0.22157484,0.30732855,-0.874182
1747672447.1480932,-0.62069863,1.8830237,1.9893718,0.22157484,0.30732855,-0.874182
1747672447.1489663,-0.62069863,1.8830237,1.9893718,1.0716553,0.4468781,-0.9924262
1747672447.149757,-0.62069863,1.8830237,1.9893718,1.0716553,0.4468781,-0.9924262
1747672447.150593,-0.62069863,1.8830237,1.9893718,1.0716553,0.4468781,-0.9924262
1747672447.151383,-0.62069863,1.8830237,1.9893718,1.0716553,0.4468781,-0.9924262
1747672447.1522758,-0.62069863,1.8830237,1.9893718,1.0716553,0.4468781,-0.9924262
1747672447.1531582,-0.62069863,1.8830237,1.9893718,1.0716553,0.4468781,-0.9924262
1747672447.1540794,-0.62069863,1.8830237,1.9893718,1.0716553,0.4468781,-0.9924262
1747672447.154881,-0.62069863,1.8830237,1.9893718,1.0716553,0.4468781,-0.9924262
1747672447.1565719,-0.62069863,1.8830237,1.9893718,1.0716553,0.4468781,-0.9924262
1747672447.1575878,-0.62069863,1.8830237,1.9893718,1.0716553,0.4468781,-0.9924262
1747672447.158403,-0.62069863,1.8830237,1.9893718,1.0716553,0.4468781,-0.9924262
1747672447.1593313,-0.62069863,1.8830237,1.9893718,1.6745944,0.5811013,-1.1618031
1747672447.1601532,-0.62069863,1.8830237,1.9893718,1.6745944,0.5811013,-1.1618031
1747672447.1609652,-0.19066972,1.760995,1.8649024,1.6745944,0.5811013,-1.1618031
1747672447.1617396,-0.19066972,1.760995,1.8649024,1.6745944,0.5811013,-1.1618031
1747672447.1625445,-0.19066972,1.760995,1.8649024,1.6745944,0.5811013,-1.1618031
1747672447.1640244,-0.19066972,1.760995,1.8649024,1.6745944,0.5811013,-1.1618031
1747672447.1647935,-0.19066972,1.760995,1.8649024,1.6745944,0.5811013,-1.1618031
1747672447.1655786,-0.19066972,1.760995,1.8649024,1.6745944,0.5811013,-1.1618031
1747672447.1663198,-0.19066972,1.760995,1.8649024,1.6745944,0.5811013,-1.1618031
1747672447.1670802,-0.19066972,1.760995,1.8649024,2.3265357,0.7994804,-1.6486286
1747672447.1678233,-0.19066972,1.760995,1.8649024,2.3265357,0.7994804,-1.6486286
1747672447.1686053,-0.19066972,1.760995,1.8649024,2.3265357,0.7994804,-1.6486286
1747672447.1693704,-0.19066972,1.760995,1.8649024,2.3265357,0.7994804,-1.6486286
1747672447.1701772,0.4970836,1.5916194,1.5383539,2.3265357,0.7994804,-1.6486286
1747672447.1709116,0.4970836,1.5916194,1.5383539,2.3265357,0.7994804,-1.6486286
1747672447.1717296,0.4970836,1.5916194,1.5383539,2.3265357,0.7994804,-1.6486286
1747672447.1725197,0.4970836,1.5916194,1.5383539,2.3265357,0.7994804,-1.6486286
1747672447.173472,0.4970836,1.5916194,1.5383539,2.3265357,0.7994804,-1.6486286
1747672447.1752143,0.4970836,1.5916194,1.5383539,2.3265357,0.7994804,-1.6486286
1747672447.1762173,0.4970836,1.5916194,1.5383539,2.3265357,0.7994804,-1.6486286
1747672447.1772733,0.4970836,1.5916194,1.5383539,2.3265357,0.7994804,-1.6486286
1747672447.1780863,0.4970836,1.5916194,1.5383539,2.3265357,0.7994804,-1.6486286
1747672447.1789656,0.77579695,1.4730074,1.1786134,2.3265357,0.7994804,-1.6486286
