timestamp,acc_x,acc_y,acc_z,gyro_x,gyro_y,gyro_z
1747679352.202592,0.042649005,0.44015723,0.6543785,-0.3619233,0.00585895,-0.9243825
1747679352.2032566,0.042649005,0.44015723,0.6543785,-0.3619233,0.00585895,-0.9243825
1747679352.203809,0.042649005,0.44015723,0.6543785,-0.3619233,0.00585895,-0.9243825
1747679352.2052298,0.042649005,0.44015723,0.6543785,-0.44075283,-0.5235771,-1.0618016
1747679352.2058368,0.042649005,0.44015723,0.6543785,-0.44075283,-0.5235771,-1.0618016
1747679352.2063885,0.042649005,0.44015723,0.6543785,-0.44075283,-0.5235771,-1.0618016
1747679352.206921,0.042649005,0.44015723,0.6543785,-0.44075283,-0.5235771,-1.0618016
1747679352.2074418,0.042649005,0.44015723,0.6543785,-0.44075283,-0.5235771,-1.0618016
1747679352.207961,0.042649005,0.44015723,0.6543785,-0.44075283,-0.5235771,-1.0618016
1747679352.2084858,0.042649005,0.44015723,0.6543785,-0.58882445,-0.84315616,-0.97231936
1747679352.2090073,0.042649005,0.44015723,0.6543785,-0.58882445,-0.84315616,-0.97231936
1747679352.2095299,-0.004209988,0.40257242,0.6758555,-0.58882445,-0.84315616,-0.97231936
1747679352.2100503,-0.004209988,0.40257242,0.6758555,-0.58882445,-0.84315616,-0.97231936
1747679352.2105696,-0.004209988,0.40257242,0.6758555,-0.58882445,-0.84315616,-0.97231936
1747679352.2110887,-0.004209988,0.40257242,0.6758555,-0.58882445,-0.84315616,-0.97231936
1747679352.2116096,-0.004209988,0.40257242,0.6758555,-0.58882445,-0.84315616,-0.97231936
1747679352.212135,-0.004209988,0.40257242,0.6758555,-0.6932203,-0.84315616,-0.91479516
1747679352.212661,0.092436686,0.3874409,0.7275957,-0.6932203,-0.84315616,-0.91479516
1747679352.2131822,0.092436686,0.3874409,0.7275957,-0.6932203,-0.84315616,-0.91479516
1747679352.213701,0.092436686,0.3874409,0.7275957,-0.6932203,-0.84315616,-0.91479516
1747679352.2142248,0.092436686,0.3874409,0.7275957,-0.6932203,-0.84315616,-0.91479516
1747679352.2147536,0.092436686,0.3874409,0.7275957,-0.6932203,-0.84315616,-0.91479516
1747679352.2152755,0.092436686,0.3874409,0.7275957,-0.6932203,-0.84315616,-0.91479516
1747679352.215794,0.092436686,0.3874409,0.7275957,-0.6932203,-0.84315616,-0.91479516
1747679352.2163134,0.092436686,0.3874409,0.7275957,-0.6932203,-0.84315616,-0.91479516
1747679352.2168348,0.092436686,0.3874409,0.7275957,-0.6932203,-0.84315616,-0.91479516
1747679352.2173538,0.092436686,0.3874409,0.7275957,-0.6932203,-0.84315616,-0.91479516
1747679352.2178724,0.092436686,0.3874409,0.7275957,-0.6932203,-0.84315616,-0.91479516
1747679352.2184367,0.092436686,0.3874409,0.7275957,-0.6932203,-0.84315616,-0.91479516
1747679352.2190015,0.092436686,0.3874409,0.7275957,-0.6932203,-0.84315616,-0.91479516
1747679352.219562,0.092436686,0.3874409,0.7275957,-0.6932203,-0.84315616,-0.91479516
1747679352.2201152,0.092436686,0.3874409,0.7275957,-0.6932203,-0.84315616,-0.91479516
1747679352.2206767,0.092436686,0.3874409,0.7275957,-0.6932203,-0.84315616,-0.91479516
1747679352.2212286,0.092436686,0.3874409,0.7275957,-0.6932203,-0.84315616,-0.91479516
1747679352.2217824,0.092436686,0.3874409,0.7275957,-0.7422224,-0.63862556,-0.9637973
1747679352.2223368,0.092436686,0.3874409,0.7275957,-0.7422224,-0.63862556,-0.9637973
1747679352.2228858,0.2725509,0.40354866,0.9286988,-0.7422224,-0.63862556,-0.9637973
1747679352.2234333,0.2725509,0.40354866,0.9286988,-0.7422224,-0.63862556,-0.9637973
1747679352.2241695,0.2725509,0.40354866,0.9286988,-0.7422224,-0.63862556,-0.9637973
1747679352.224737,0.2725509,0.40354866,0.9286988,-0.7422224,-0.63862556,-0.9637973
1747679352.2252958,0.2725509,0.40354866,0.9286988,-0.7422224,-0.63862556,-0.9637973
1747679352.2258406,0.2725509,0.40354866,0.9286988,-0.7422224,-0.63862556,-0.9637973
1747679352.2263782,0.2725509,0.40354866,0.9286988,-0.7422224,-0.63862556,-0.9637973
1747679352.2269206,0.2725509,0.40354866,0.9286988,-0.7422224,-0.63862556,-0.9637973
1747679352.2274816,0.2725509,0.40354866,0.9286988,-0.7422224,-0.63862556,-0.9637973
1747679352.2567165,0.04801826,0.35522532,1.0087496,-0.34914017,-0.6546045,-1.0106689
1747679352.2573838,0.04801826,0.35522532,1.0087496,-0.34914017,-0.6546045,-1.0106689
1747679352.2582586,0.04801826,0.35522532,1.0087496,-0.34914017,-0.6546045,-1.0106689
1747679352.2588224,0.04801826,0.35522532,1.0087496,-0.34914017,-0.6546045,-1.0106689
1747679352.2594786,0.04801826,0.35522532,1.0087496,-0.34914017,-0.6546045,-1.0106689
1747679352.2600236,0.04801826,0.35522532,1.0087496,-0.34914017,-0.6546045,-1.0106689
1747679352.2605505,0.04801826,0.35522532,1.0087496,-0.34914017,-0.6546045,-1.0106689
1747679352.2610705,0.04801826,0.35522532,1.0087496,-0.34914017,-0.6546045,-1.0106689
1747679352.2615907,0.04801826,0.35522532,1.0087496,-0.34914017,-0.6546045,-1.0106689
1747679352.2621102,0.04801826,0.35522532,1.0087496,-0.34914017,-0.6546045,-1.0106689
1747679352.2626286,0.04801826,0.35522532,1.0087496,-0.34914017,-0.6546045,-1.0106689
1747679352.263147,0.04801826,0.35522532,1.0087496,-0.34914017,-0.6546045,-1.0106689
1747679352.2636702,0.04801826,0.35522532,1.0087496,-0.34914017,-0.6546045,-1.0106689
1747679352.264211,0.04801826,0.35522532,1.0087496,-0.34914017,-0.6546045,-1.0106689
1747679352.2647388,0.006528531,0.38060728,0.9218652,-0.34914017,-0.6546045,-1.0106689
1747679352.2652802,0.006528531,0.38060728,0.9218652,-0.24794011,-1.1765836,-0.8934899
1747679352.2658253,0.006528531,0.38060728,0.9218652,-0.24794011,-1.1765836,-0.8934899
1747679352.2663667,0.006528531,0.38060728,0.9218652,-0.24794011,-1.1765836,-0.8934899
1747679352.2680426,0.006528531,0.38060728,0.9218652,-0.24794011,-1.1765836,-0.8934899
1747679352.2686021,0.006528531,0.38060728,0.9218652,-0.24794011,-1.1765836,-0.8934899
1747679352.2691534,0.006528531,0.38060728,0.9218652,-0.24794011,-1.1765836,-0.8934899
1747679352.269694,0.006528531,0.38060728,0.9218652,-0.24794011,-1.1765836,-0.8934899
1747679352.2702346,0.006528531,0.38060728,0.9218652,-0.24794011,-1.1765836,-0.8934899
1747679352.2707734,0.006528531,0.38060728,0.9218652,-0.24794011,-1.1765836,-0.8934899
1747679352.2713115,0.006528531,0.38060728,0.9218652,-0.24794011,-1.1765836,-0.8934899
1747679352.2718494,0.006528531,0.38060728,0.9218652,-0.24794011,-1.1765836,-0.8934899
1747679352.2723875,0.006528531,0.38060728,0.9218652,-0.24794011,-1.1765836,-0.8934899
1747679352.2729247,0.006528531,0.38060728,0.9218652,-0.24794011,-1.1765836,-0.8934899
1747679352.2734623,0.006528531,0.38060728,0.9218652,-0.24794011,-1.1765836,-0.8934899
1747679352.2740593,0.006528531,0.38060728,0.9218652,-0.24794011,-1.1765836,-0.8934899
1747679352.2746015,0.006528531,0.38060728,0.9218652,-0.24794011,-1.1765836,-0.8934899
1747679352.2751434,-0.008603018,0.434788,0.87403005,-0.19041587,-1.7401081,-0.768854
1747679352.2756894,-0.008603018,0.434788,0.87403005,-0.19041587,-1.7401081,-0.768854
1747679352.276235,-0.008603018,0.434788,0.87403005,-0.19041587,-1.7401081,-0.768854
1747679352.2767859,-0.008603018,0.434788,0.87403005,-0.19041587,-1.7401081,-0.768854
1747679352.2773275,-0.008603018,0.434788,0.87403005,-0.19041587,-1.7401081,-0.768854
1747679352.2778807,-0.008603018,0.434788,0.87403005,-0.19041587,-1.7401081,-0.768854
1747679352.2784433,-0.008603018,0.434788,0.87403005,-0.19041587,-1.7401081,-0.768854
1747679352.2789836,-0.008603018,0.434788,0.87403005,-0.19041587,-1.7401081,-0.768854
1747679352.2795053,-0.008603018,0.434788,0.87403005,-0.19041587,-1.7401081,-0.768854
1747679352.2800243,-0.008603018,0.434788,0.87403005,-0.19041587,-1.7401081,-0.768854
1747679352.2806258,-0.008603018,0.434788,0.87403005,-0.19041587,-1.7401081,-0.768854
1747679352.2817252,-0.008603018,0.434788,0.87403005,-0.19041587,-1.7401081,-0.768854
1747679352.288167,0.06851907,0.4679798,0.79007435,-0.17976324,-2.2556958,-0.5739108
1747679352.2887976,0.06851907,0.4679798,0.79007435,-0.17976324,-2.2556958,-0.5739108
1747679352.2893414,0.06851907,0.4679798,0.79007435,-0.17976324,-2.2556958,-0.5739108
1747679352.2898765,0.06851907,0.4679798,0.79007435,-0.17976324,-2.2556958,-0.5739108
1747679352.290406,0.06851907,0.4679798,0.79007435,-0.17976324,-2.2556958,-0.5739108
1747679352.2909405,0.22764441,0.4508958,0.76127553,-0.17976324,-2.2556958,-0.5739108
1747679352.2914681,0.22764441,0.4508958,0.76127553,-0.17976324,-2.2556958,-0.5739108
1747679352.2919962,0.22764441,0.4508958,0.76127553,-0.26178855,-2.2439778,-0.4652539
1747679352.2925231,0.22764441,0.4508958,0.76127553,-0.26178855,-2.2439778,-0.4652539
1747679352.2930462,0.22764441,0.4508958,0.76127553,-0.26178855,-2.2439778,-0.4652539
1747679352.2935739,0.22764441,0.4508958,0.76127553,-0.26178855,-2.2439778,-0.4652539
1747679352.294106,0.22764441,0.4508958,0.76127553,-0.26178855,-2.2439778,-0.4652539
1747679352.2946303,0.22764441,0.4508958,0.76127553,-0.26178855,-2.2439778,-0.4652539
1747679352.2951524,0.22764441,0.4508958,0.76127553,-0.26178855,-2.2439778,-0.4652539
1747679352.2956936,0.22764441,0.4508958,0.76127553,-0.26178855,-2.2439778,-0.4652539
1747679352.2962341,0.22764441,0.4508958,0.76127553,-0.26178855,-2.2439778,-0.4652539
1747679352.2967613,0.22764441,0.4508958,0.76127553,-0.26178855,-2.2439778,-0.4652539
1747679352.2972834,0.22764441,0.4508958,0.76127553,-0.26178855,-2.2439778,-0.4652539
1747679352.2978082,0.22764441,0.4508958,0.76127553,-0.26178855,-2.2439778,-0.4652539
1747679352.298334,0.22764441,0.4508958,0.76127553,-0.26178855,-2.2439778,-0.4652539
1747679352.2992318,0.22764441,0.4508958,0.76127553,-0.26178855,-2.2439778,-0.4652539
1747679352.2998145,0.22764441,0.4508958,0.76127553,-0.26178855,-2.2439778,-0.4652539
1747679352.3003557,0.22764441,0.4508958,0.76127553,-0.26178855,-2.2439778,-0.4652539
1747679352.3008885,0.22764441,0.4508958,0.76127553,-0.26178855,-2.2439778,-0.4652539
1747679352.301415,0.22764441,0.4508958,0.76127553,-0.26178855,-2.2439778,-0.4652539
1747679352.3019352,0.22764441,0.4508958,0.76127553,-0.26178855,-2.2439778,-0.4652539
1747679352.3024588,0.375055,0.43332362,0.7446797,-0.39707702,-1.8604829,-0.43968758
1747679352.3029807,0.375055,0.43332362,0.7446797,-0.39707702,-1.8604829,-0.43968758
1747679352.3034997,0.375055,0.43332362,0.7446797,-0.39707702,-1.8604829,-0.43968758
1747679352.3040237,0.375055,0.43332362,0.7446797,-0.39707702,-1.8604829,-0.43968758
1747679352.3045526,0.375055,0.43332362,0.7446797,-0.39707702,-1.8604829,-0.43968758
1747679352.3050745,0.375055,0.43332362,0.7446797,-0.39707702,-1.8604829,-0.43968758
1747679352.3055935,0.375055,0.43332362,0.7446797,-0.39707702,-1.8604829,-0.43968758
1747679352.3061125,0.375055,0.43332362,0.7446797,-0.39707702,-1.8604829,-0.43968758
1747679352.3066313,0.375055,0.43332362,0.7446797,-0.39707702,-1.8604829,-0.43968758
1747679352.3071496,0.375055,0.43332362,0.7446797,-0.39707702,-1.8604829,-0.43968758
1747679352.3076684,0.375055,0.43332362,0.7446797,-0.39707702,-1.8604829,-0.43968758
1747679352.3081868,0.375055,0.43332362,0.7446797,-0.39707702,-1.8604829,-0.43968758
1747679352.3087056,0.375055,0.43332362,0.7446797,-0.39707702,-1.8604829,-0.43968758
1747679352.3092241,0.375055,0.43332362,0.7446797,-0.39707702,-1.8604829,-0.43968758
1747679352.3097425,0.375055,0.43332362,0.7446797,-0.39707702,-1.8604829,-0.43968758
1747679352.3102667,0.375055,0.43332362,0.7446797,-0.39707702,-1.8604829,-0.43968758
1747679352.310785,0.375055,0.43332362,0.7446797,-0.39707702,-1.8604829,-0.43968758
1747679352.3113284,0.5078221,0.40598923,0.70758295,-0.39707702,-1.8604829,-0.43968758
1747679352.3118694,0.5078221,0.40598923,0.70758295,-0.39707702,-1.8604829,-0.43968758
1747679352.3127604,0.5078221,0.40598923,0.70758295,-0.60906446,-1.1126679,-0.49827707
1747679352.31647,0.5078221,0.40598923,0.70758295,-0.60906446,-1.1126679,-0.49827707
1747679352.3171237,0.5078221,0.40598923,0.70758295,-0.60906446,-1.1126679,-0.49827707
1747679352.3176758,0.5078221,0.40598923,0.70758295,-0.60906446,-1.1126679,-0.49827707
1747679352.3182096,0.5078221,0.40598923,0.70758295,-0.60906446,-1.1126679,-0.49827707
1747679352.3187304,0.5078221,0.40598923,0.70758295,-0.60906446,-1.1126679,-0.49827707
1747679352.319249,0.5078221,0.40598923,0.70758295,-0.60906446,-1.1126679,-0.49827707
1747679352.319768,0.5078221,0.40598923,0.70758295,-0.60906446,-1.1126679,-0.49827707
1747679352.320287,0.5078221,0.40598923,0.70758295,-0.60906446,-1.1126679,-0.49827707
1747679352.3208222,0.5078221,0.40598923,0.70758295,-0.60906446,-1.1126679,-0.49827707
1747679352.3213592,0.5078221,0.40598923,0.70758295,-0.60906446,-1.1126679,-0.49827707
1747679352.3218856,0.5078221,0.40598923,0.70758295,-0.60906446,-1.1126679,-0.49827707
1747679352.3224077,0.5078221,0.40598923,0.70758295,-0.60906446,-1.1126679,-0.49827707
1747679352.3229294,0.5078221,0.40598923,0.70758295,-0.60906446,-1.1126679,-0.49827707
1747679352.3234537,0.5078221,0.40598923,0.70758295,-0.60906446,-1.1126679,-0.49827707
1747679352.3239796,0.5078221,0.40598923,0.70758295,-0.60906446,-1.1126679,-0.49827707
1747679352.3245187,0.5078221,0.40598923,0.70758295,-0.77098453,-0.6279729,-0.5771066
1747679352.325042,0.5078221,0.40598923,0.70758295,-0.77098453,-0.6279729,-0.5771066
1747679352.3255706,0.5078221,0.40598923,0.70758295,-0.77098453,-0.6279729,-0.5771066
1747679352.326099,0.5078221,0.40598923,0.70758295,-0.77098453,-0.6279729,-0.5771066
1747679352.3266213,0.5078221,0.40598923,0.70758295,-0.77098453,-0.6279729,-0.5771066
1747679352.3271406,0.5078221,0.40598923,0.70758295,-0.77098453,-0.6279729,-0.5771066
1747679352.3276596,0.5078221,0.40598923,0.70758295,-0.77098453,-0.6279729,-0.5771066
1747679352.3281782,0.5078221,0.40598923,0.70758295,-0.77098453,-0.6279729,-0.5771066
1747679352.3286967,0.5078221,0.40598923,0.70758295,-0.77098453,-0.6279729,-0.5771066
1747679352.3292289,0.5078221,0.40598923,0.70758295,-0.77098453,-0.6279729,-0.5771066
1747679352.3310268,0.5078221,0.40598923,0.70758295,-0.77098453,-0.6279729,-0.5771066
1747679352.3315804,0.5078221,0.40598923,0.70758295,-0.77098453,-0.6279729,-0.5771066
1747679352.3321142,0.5078221,0.40598923,0.70758295,-0.77098453,-0.6279729,-0.5771066
1747679352.332647,0.61423105,0.36303517,0.6592596,-0.77098453,-0.6279729,-0.5771066
1747679352.3331764,0.61423105,0.36303517,0.6592596,-0.77098453,-0.6279729,-0.5771066
1747679352.3337004,0.61423105,0.36303517,0.6592596,-0.77098453,-0.6279729,-0.5771066
1747679352.3342314,0.61423105,0.36303517,0.6592596,-1.0021467,-0.118776895,-0.7400919
1747679352.3347628,0.61423105,0.36303517,0.6592596,-1.0021467,-0.118776895,-0.7400919
1747679352.3352842,0.61423105,0.36303517,0.6592596,-1.0021467,-0.118776895,-0.7400919
1747679352.3358035,0.61423105,0.36303517,0.6592596,-1.0021467,-0.118776895,-0.7400919
1747679352.3363223,0.61423105,0.36303517,0.6592596,-1.0021467,-0.118776895,-0.7400919
1747679352.3368409,0.61423105,0.36303517,0.6592596,-1.0021467,-0.118776895,-0.7400919
1747679352.33736,0.61423105,0.36303517,0.6592596,-1.0021467,-0.118776895,-0.7400919
1747679352.3378785,0.61423105,0.36303517,0.6592596,-1.0021467,-0.118776895,-0.7400919
1747679352.3384085,0.61423105,0.36303517,0.6592596,-1.0021467,-0.118776895,-0.7400919
1747679352.338927,0.61423105,0.36303517,0.6592596,-1.0021467,-0.118776895,-0.7400919
1747679352.3394454,0.61423105,0.36303517,0.6592596,-1.0021467,-0.118776895,-0.7400919
1747679352.3399642,0.61423105,0.36303517,0.6592596,-1.0021467,-0.118776895,-0.7400919
1747679352.3404825,0.61423105,0.36303517,0.6592596,-1.0021467,-0.118776895,-0.7400919
1747679352.3410087,0.61423105,0.36303517,0.6592596,-1.0021467,-0.118776895,-0.7400919
1747679352.341557,0.61423105,0.36303517,0.6592596,-1.0021467,-0.118776895,-0.7400919
1747679352.3421032,0.61423105,0.36303517,0.6592596,-1.0021467,-0.118776895,-0.7400919
1747679352.3426406,0.61423105,0.36303517,0.6592596,-1.0021467,-0.118776895,-0.7400919
1747679352.343401,0.61423105,0.36303517,0.6592596,-1.0021467,-0.118776895,-0.7400919
1747679352.3439517,0.61423105,0.36303517,0.6592596,-1.0021467,-0.118776895,-0.7400919
1747679352.3445063,0.67378104,0.3483917,0.69977313,-1.0926942,0.006924214,-0.8796415
1747679352.3462408,0.67378104,0.3483917,0.69977313,-1.0926942,0.006924214,-0.8796415
1747679352.346793,0.67378104,0.3483917,0.69977313,-1.0926942,0.006924214,-0.8796415
1747679352.3473265,0.67378104,0.3483917,0.69977313,-1.0926942,0.006924214,-0.8796415
1747679352.347847,0.67378104,0.3483917,0.69977313,-1.0926942,0.006924214,-0.8796415
1747679352.3483663,0.67378104,0.3483917,0.69977313,-1.0926942,0.006924214,-0.8796415
1747679352.3488855,0.67378104,0.3483917,0.69977313,-1.0926942,0.006924214,-0.8796415
1747679352.3494043,0.67378104,0.3483917,0.69977313,-1.0926942,0.006924214,-0.8796415
1747679352.3499234,0.67378104,0.3483917,0.69977313,-1.0926942,0.006924214,-0.8796415
1747679352.3504417,0.67378104,0.3483917,0.69977313,-1.0926942,0.006924214,-0.8796415
1747679352.3509607,0.67378104,0.3483917,0.69977313,-1.0926942,0.006924214,-0.8796415
1747679352.3514848,0.67378104,0.3483917,0.69977313,-1.0926942,0.006924214,-0.8796415
1747679352.352012,0.67378104,0.3483917,0.69977313,-1.0926942,0.006924214,-0.8796415
1747679352.3525333,0.67378104,0.3483917,0.69977313,-1.0926942,0.006924214,-0.8796415
1747679352.3530524,0.67378104,0.3483917,0.69977313,-1.0926942,0.006924214,-0.8796415
1747679352.3535707,0.67378104,0.3483917,0.69977313,-1.0926942,0.006924214,-0.8796415
1747679352.3540943,0.67378104,0.3483917,0.69977313,-1.0926942,0.006924214,-0.8796415
1747679352.354644,0.67378104,0.3483917,0.69977313,-1.0926942,0.006924214,-0.8796415
1747679352.35517,0.67378104,0.3483917,0.69977313,-1.0926942,0.006924214,-0.8796415
1747679352.355696,0.67378104,0.3483917,0.69977313,-1.0926942,0.006924214,-0.8796415
1747679352.356228,0.67378104,0.3483917,0.69977313,-1.0926942,0.006924214,-0.8796415
1747679352.3567624,0.67378104,0.3483917,0.69977313,-1.0426267,-0.31265488,-1.1502184
1747679352.3572886,0.67378104,0.3483917,0.69977313,-1.0426267,-0.31265488,-1.1502184
1747679352.357809,0.67378104,0.3483917,0.69977313,-1.0426267,-0.31265488,-1.1502184
1747679352.3583283,0.67378104,0.3483917,0.69977313,-1.0426267,-0.31265488,-1.1502184
1747679352.3588474,0.67378104,0.3483917,0.69977313,-1.0426267,-0.31265488,-1.1502184
1747679352.3593662,0.67378104,0.3483917,0.69977313,-1.0426267,-0.31265488,-1.1502184
1747679352.3598847,0.67378104,0.3483917,0.69977313,-1.0426267,-0.31265488,-1.1502184
1747679352.3604167,0.67378104,0.3483917,0.69977313,-1.0426267,-0.31265488,-1.1502184
1747679352.3620834,0.67378104,0.3483917,0.69977313,-1.0426267,-0.31265488,-1.1502184
1747679352.362634,0.67378104,0.3483917,0.69977313,-1.0426267,-0.31265488,-1.1502184
1747679352.3631682,0.67378104,0.3483917,0.69977313,-1.0426267,-0.31265488,-1.1502184
1747679352.3637068,0.67378104,0.3483917,0.69977313,-1.0426267,-0.31265488,-1.1502184
1747679352.3642793,0.67378104,0.3483917,0.69977313,-1.0426267,-0.31265488,-1.1502184
1747679352.3648872,0.67378104,0.3483917,0.69977313,-1.0426267,-0.31265488,-1.1502184
1747679352.365569,0.67378104,0.3483917,0.69977313,-1.0426267,-0.31265488,-1.1502184
1747679352.3661194,0.67378104,0.3483917,0.69977313,-1.0426267,-0.31265488,-1.1502184
1747679352.3666532,0.67378104,0.3483917,0.69977313,-1.0426267,-0.31265488,-1.1502184
1747679352.3671734,0.67378104,0.3483917,0.69977313,-1.0426267,-0.31265488,-1.1502184
1747679352.367697,0.67378104,0.3483917,0.69977313,-1.0426267,-0.31265488,-1.1502184
1747679352.3682184,0.67378104,0.3483917,0.69977313,-1.0426267,-0.31265488,-1.1502184
1747679352.3687422,0.73137856,0.3913458,0.9399255,-1.0426267,-0.31265488,-1.1502184
1747679352.3692675,0.73137856,0.3913458,0.9399255,-0.9073383,-0.6482129,-1.2993553
1747679352.369789,0.73137856,0.3913458,0.9399255,-0.9073383,-0.6482129,-1.2993553
1747679352.3703082,0.73137856,0.3913458,0.9399255,-0.9073383,-0.6482129,-1.2993553
1747679352.370827,0.73137856,0.3913458,0.9399255,-0.9073383,-0.6482129,-1.2993553
1747679352.3716338,0.73137856,0.3913458,0.9399255,-0.9073383,-0.6482129,-1.2993553
1747679352.3721883,0.73137856,0.3913458,0.9399255,-0.9073383,-0.6482129,-1.2993553
1747679352.3727293,0.73137856,0.3913458,0.9399255,-0.9073383,-0.6482129,-1.2993553
1747679352.3733542,0.7509031,0.41965646,1.0067972,-0.9073383,-0.6482129,-1.2993553
1747679352.3739035,0.7509031,0.41965646,1.0067972,-0.9073383,-0.6482129,-1.2993553
1747679352.3744462,0.7509031,0.41965646,1.0067972,-0.9073383,-0.6482129,-1.2993553
1747679352.3749778,0.7509031,0.41965646,1.0067972,-0.58882445,-1.3459606,-1.5379744
1747679352.3755002,0.7509031,0.41965646,1.0067972,-0.58882445,-1.3459606,-1.5379744
1747679352.3760326,0.7509031,0.41965646,1.0067972,-0.58882445,-1.3459606,-1.5379744
1747679352.377699,0.7509031,0.41965646,1.0067972,-0.58882445,-1.3459606,-1.5379744
1747679352.3782582,0.7509031,0.41965646,1.0067972,-0.58882445,-1.3459606,-1.5379744
1747679352.378808,0.7509031,0.41965646,1.0067972,-0.58882445,-1.3459606,-1.5379744
1747679352.3793454,0.7509031,0.41965646,1.0067972,-0.58882445,-1.3459606,-1.5379744
1747679352.379891,0.7509031,0.41965646,1.0067972,-0.58882445,-1.3459606,-1.5379744
1747679352.3804376,0.7509031,0.41965646,1.0067972,-0.58882445,-1.3459606,-1.5379744
1747679352.3809762,0.7509031,0.41965646,1.0067972,-0.58882445,-1.3459606,-1.5379744
1747679352.3815045,0.7509031,0.41965646,1.0067972,-0.58882445,-1.3459606,-1.5379744
1747679352.3820255,0.7509031,0.41965646,1.0067972,-0.58882445,-1.3459606,-1.5379744
1747679352.3825471,0.7509031,0.41965646,1.0067972,-0.58882445,-1.3459606,-1.5379744
1747679352.3830879,0.7509031,0.41965646,1.0067972,-0.58882445,-1.3459606,-1.5379744
1747679352.383621,0.7509031,0.41965646,1.0067972,-0.26818013,-2.1204073,-1.7808545
1747679352.3841538,0.7509031,0.41965646,1.0067972,-0.26818013,-2.1204073,-1.7808545
1747679352.3846884,0.81582236,0.40989417,0.96970046,-0.26818013,-2.1204073,-1.7808545
1747679352.3852139,0.81582236,0.40989417,0.96970046,-0.26818013,-2.1204073,-1.7808545
1747679352.385736,0.81582236,0.40989417,0.96970046,-0.26818013,-2.1204073,-1.7808545
1747679352.3862574,0.81582236,0.40989417,0.96970046,-0.26818013,-2.1204073,-1.7808545
1747679352.3867917,0.81582236,0.40989417,0.96970046,-0.26818013,-2.1204073,-1.7808545
1747679352.3873274,0.81582236,0.40989417,0.96970046,-0.26818013,-2.1204073,-1.7808545
1747679352.3878562,0.81582236,0.40989417,0.96970046,-0.26818013,-2.1204073,-1.7808545
1747679352.3883784,0.81582236,0.40989417,0.96970046,-0.26818013,-2.1204073,-1.7808545
1747679352.3888993,0.81582236,0.40989417,0.96970046,-0.26818013,-2.1204073,-1.7808545
1747679352.3894207,0.81582236,0.40989417,0.96970046,-0.26818013,-2.1204073,-1.7808545
1747679352.3899415,0.81582236,0.40989417,0.96970046,-0.26818013,-2.1204073,-1.7808545
1747679352.3904626,0.81582236,0.40989417,0.96970046,-0.26818013,-2.1204073,-1.7808545
1747679352.3909948,0.81582236,0.40989417,0.96970046,-0.26818013,-2.1204073,-1.7808545
1747679352.3915575,0.81582236,0.40989417,0.96970046,-0.26818013,-2.1204073,-1.7808545
1747679352.39211,0.81582236,0.40989417,0.96970046,-0.26818013,-2.1204073,-1.7808545
1747679352.3926463,0.81582236,0.40989417,0.96970046,-0.26818013,-2.1204073,-1.7808545
1747679352.3931692,0.81582236,0.40989417,0.96970046,-0.26818013,-2.1204073,-1.7808545
1747679352.3937075,0.81582236,0.40989417,0.96970046,-0.26818013,-2.1204073,-1.7808545
1747679352.3942513,0.81582236,0.40989417,0.96970046,-0.26818013,-2.1204073,-1.7808545
1747679352.3947747,0.81582236,0.40989417,0.96970046,-0.26818013,-2.1204073,-1.7808545
1747679352.395297,0.81582236,0.40989417,0.96970046,-0.26818013,-2.1204073,-1.7808545
1747679352.3958182,0.81582236,0.40989417,0.96970046,-0.26818013,-2.1204073,-1.7808545
1747679352.3963459,0.8626814,0.37523803,1.0492631,-0.094542146,-2.6871276,-1.9704714
1747679352.396875,0.8626814,0.37523803,1.0492631,-0.094542146,-2.6871276,-1.9704714
1747679352.3973987,0.8626814,0.37523803,1.0492631,-0.094542146,-2.6871276,-1.9704714
1747679352.3979232,0.8626814,0.37523803,1.0492631,-0.094542146,-2.6871276,-1.9704714
1747679352.3984334,0.8626814,0.37523803,1.0492631,-0.094542146,-2.6871276,-1.9704714
1747679352.3989682,0.8626814,0.37523803,1.0492631,-0.094542146,-2.6871276,-1.9704714
1747679352.3994935,0.8626814,0.37523803,1.0492631,-0.094542146,-2.6871276,-1.9704714
1747679352.400013,0.8626814,0.37523803,1.0492631,-0.094542146,-2.6871276,-1.9704714
1747679352.4005318,0.8626814,0.37523803,1.0492631,-0.094542146,-2.6871276,-1.9704714
1747679352.4010506,0.8626814,0.37523803,1.0492631,-0.094542146,-2.6871276,-1.9704714
1747679352.4015696,0.8626814,0.37523803,1.0492631,-0.094542146,-2.6871276,-1.9704714
1747679352.4021738,0.8626814,0.37523803,1.0492631,-0.094542146,-2.6871276,-1.9704714
1747679352.4027295,0.8626814,0.37523803,1.0492631,-0.094542146,-2.6871276,-1.9704714
1747679352.4032784,0.8372994,0.3137356,0.8989239,0.07270424,-2.9811404,-2.2772675
1747679352.403854,0.8372994,0.3137356,0.8989239,0.07270424,-2.9811404,-2.2772675
1747679352.4045753,0.8372994,0.3137356,0.8989239,0.07270424,-2.9811404,-2.2772675
1747679352.4051096,0.8372994,0.3137356,0.8989239,0.07270424,-2.9811404,-2.2772675
1747679352.40563,0.8372994,0.3137356,0.8989239,0.07270424,-2.9811404,-2.2772675
1747679352.4061491,0.8372994,0.3137356,0.8989239,0.07270424,-2.9811404,-2.2772675
1747679352.406685,0.8372994,0.3137356,0.8989239,0.07270424,-2.9811404,-2.2772675
1747679352.4072545,0.8372994,0.3137356,0.8989239,0.07270424,-2.9811404,-2.2772675
1747679352.4078,0.8372994,0.3137356,0.8989239,0.07270424,-2.9811404,-2.2772675
1747679352.4083333,0.8372994,0.3137356,0.8989239,0.07270424,-2.9811404,-2.2772675
1747679352.4088638,0.8372994,0.3137356,0.8989239,0.07270424,-2.9811404,-2.2772675
1747679352.4093895,0.8372994,0.3137356,0.8989239,0.07270424,-2.9811404,-2.2772675
1747679352.4099095,0.8372994,0.3137356,0.8989239,0.07270424,-2.9811404,-2.2772675
1747679352.410428,0.8372994,0.3137356,0.8989239,0.07270424,-2.9811404,-2.2772675
1747679352.4109473,0.8372994,0.3137356,0.8989239,0.07270424,-2.9811404,-2.2772675
1747679352.411466,0.8372994,0.3137356,0.8989239,0.07270424,-2.9811404,-2.2772675
1747679352.4119897,0.72503304,0.23222047,0.8530411,0.07270424,-2.9811404,-2.2772675
1747679352.4125118,0.72503304,0.23222047,0.8530411,0.07270424,-2.9811404,-2.2772675
1747679352.4130352,0.72503304,0.23222047,0.8530411,0.07057372,-3.1547782,-2.5052338
1747679352.4135566,0.72503304,0.23222047,0.8530411,0.07057372,-3.1547782,-2.5052338
1747679352.4140809,0.72503304,0.23222047,0.8530411,0.07057372,-3.1547782,-2.5052338
1747679352.4146097,0.72503304,0.23222047,0.8530411,0.07057372,-3.1547782,-2.5052338
1747679352.415141,0.72503304,0.23222047,0.8530411,0.07057372,-3.1547782,-2.5052338
1747679352.4156604,0.72503304,0.23222047,0.8530411,0.07057372,-3.1547782,-2.5052338
1747679352.4161794,0.72503304,0.23222047,0.8530411,0.07057372,-3.1547782,-2.5052338
1747679352.4166982,0.72503304,0.23222047,0.8530411,0.07057372,-3.1547782,-2.5052338
1747679352.4172328,0.72503304,0.23222047,0.8530411,0.07057372,-3.1547782,-2.5052338
1747679352.4177823,0.72503304,0.23222047,0.8530411,0.07057372,-3.1547782,-2.5052338
1747679352.418316,0.72503304,0.23222047,0.8530411,0.07057372,-3.1547782,-2.5052338
1747679352.4188356,0.72503304,0.23222047,0.8530411,0.07057372,-3.1547782,-2.5052338
1747679352.4193547,0.72503304,0.23222047,0.8530411,0.07057372,-3.1547782,-2.5052338
1747679352.4198735,0.72503304,0.23222047,0.8530411,0.07057372,-3.1547782,-2.5052338
1747679352.4203975,0.72503304,0.23222047,0.8530411,0.07057372,-3.1547782,-2.5052338
1747679352.420919,0.72503304,0.23222047,0.8530411,0.07057372,-3.1547782,-2.5052338
1747679352.4214416,0.72503304,0.23222047,0.8530411,0.07057372,-3.1547782,-2.5052338
1747679352.4219666,0.65718514,0.104334466,0.7559063,-0.005060002,-3.197389,-2.5638232
1747679352.4225004,0.65718514,0.104334466,0.7559063,-0.005060002,-3.197389,-2.5638232
1747679352.4230564,0.65718514,0.104334466,0.7559063,-0.005060002,-3.197389,-2.5638232
1747679352.4236045,0.65718514,0.104334466,0.7559063,-0.005060002,-3.197389,-2.5638232
1747679352.4241447,0.65718514,0.104334466,0.7559063,-0.005060002,-3.197389,-2.5638232
1747679352.4246862,0.65718514,0.104334466,0.7559063,-0.005060002,-3.197389,-2.5638232
1747679352.4252088,0.65718514,0.104334466,0.7559063,-0.005060002,-3.197389,-2.5638232
1747679352.4257283,0.65718514,0.104334466,0.7559063,-0.005060002,-3.197389,-2.5638232
1747679352.4262474,0.65718514,0.104334466,0.7559063,-0.005060002,-3.197389,-2.5638232
1747679352.4267666,0.65718514,0.104334466,0.7559063,-0.005060002,-3.197389,-2.5638232
1747679352.4272854,0.65718514,0.104334466,0.7559063,-0.005060002,-3.197389,-2.5638232
1747679352.4278042,0.65718514,0.104334466,0.7559063,-0.005060002,-3.197389,-2.5638232
1747679352.4283226,0.65718514,0.104334466,0.7559063,-0.005060002,-3.197389,-2.5638232
1747679352.428841,0.65718514,0.104334466,0.7559063,-0.005060002,-3.197389,-2.5638232
1747679352.4293597,0.65718514,0.104334466,0.7559063,-0.005060002,-3.197389,-2.5638232
1747679352.4298782,0.65718514,0.104334466,0.7559063,-0.005060002,-3.197389,-2.5638232
1747679352.4303973,0.65718514,0.104334466,0.7559063,-0.005060002,-3.197389,-2.5638232
1747679352.4309213,0.65718514,0.104334466,0.7559063,-0.005060002,-3.197389,-2.5638232
1747679352.4314528,0.65718514,0.104334466,0.7559063,-0.005060002,-3.197389,-2.5638232
1747679352.4319756,0.65718514,0.104334466,0.7559063,-0.005060002,-3.197389,-2.5638232
1747679352.432715,0.5346684,-0.010372433,0.61825806,-0.21491694,-3.0386646,-2.610695
1747679352.4333296,0.5346684,-0.010372433,0.61825806,-0.21491694,-3.0386646,-2.610695
1747679352.4338725,0.5346684,-0.010372433,0.61825806,-0.21491694,-3.0386646,-2.610695
1747679352.4344883,0.5346684,-0.010372433,0.61825806,-0.21491694,-3.0386646,-2.610695
1747679352.4350388,0.5346684,-0.010372433,0.61825806,-0.21491694,-3.0386646,-2.610695
1747679352.4355724,0.5346684,-0.010372433,0.61825806,-0.21491694,-3.0386646,-2.610695
1747679352.4360926,0.5346684,-0.010372433,0.61825806,-0.21491694,-3.0386646,-2.610695
1747679352.4366121,0.5346684,-0.010372433,0.61825806,-0.21491694,-3.0386646,-2.610695
1747679352.4371681,0.5346684,-0.010372433,0.61825806,-0.21491694,-3.0386646,-2.610695
1747679352.4376886,0.5346684,-0.010372433,0.61825806,-0.21491694,-3.0386646,-2.610695
1747679352.43821,0.5346684,-0.010372433,0.61825806,-0.21491694,-3.0386646,-2.610695
1747679352.4387991,0.5346684,-0.010372433,0.61825806,-0.21491694,-3.0386646,-2.610695
1747679352.4393437,0.5346684,-0.010372433,0.61825806,-0.21491694,-3.0386646,-2.610695
1747679352.4398768,0.5346684,-0.010372433,0.61825806,-0.21491694,-3.0386646,-2.610695
1747679352.4403968,0.5346684,-0.010372433,0.61825806,-0.21491694,-3.0386646,-2.610695
1747679352.440918,0.5346684,-0.010372433,0.61825806,-0.21491694,-3.0386646,-2.610695
1747679352.4414387,0.5346684,-0.010372433,0.61825806,-0.21491694,-3.0386646,-2.610695
1747679352.441958,0.5346684,-0.010372433,0.61825806,-0.42264336,-2.7883277,-2.587259
1747679352.4424767,0.5346684,-0.010372433,0.61825806,-0.42264336,-2.7883277,-2.587259
1747679352.4429958,0.5346684,-0.010372433,0.61825806,-0.42264336,-2.7883277,-2.587259
1747679352.443551,0.5346684,-0.010372433,0.61825806,-0.42264336,-2.7883277,-2.587259
1747679352.4441166,0.44680783,-0.0040269443,0.52795684,-0.42264336,-2.7883277,-2.587259
1747679352.444645,0.44680783,-0.0040269443,0.52795684,-0.42264336,-2.7883277,-2.587259
1747679352.4451642,0.44680783,-0.0040269443,0.52795684,-0.42264336,-2.7883277,-2.587259
1747679352.4456832,0.44680783,-0.0040269443,0.52795684,-0.42264336,-2.7883277,-2.587259
1747679352.446202,0.44680783,-0.0040269443,0.52795684,-0.42264336,-2.7883277,-2.587259
1747679352.4467208,0.44680783,-0.0040269443,0.52795684,-0.42264336,-2.7883277,-2.587259
1747679352.4472392,0.44680783,-0.0040269443,0.52795684,-0.42264336,-2.7883277,-2.587259
1747679352.44778,0.44680783,-0.0040269443,0.52795684,-0.42264336,-2.7883277,-2.587259
1747679352.4483178,0.44680783,-0.0040269443,0.52795684,-0.42264336,-2.7883277,-2.587259
1747679352.4488409,0.44680783,-0.0040269443,0.52795684,-0.42264336,-2.7883277,-2.587259
1747679352.4493601,0.44680783,-0.0040269443,0.52795684,-0.42264336,-2.7883277,-2.587259
1747679352.4498787,0.44680783,-0.0040269443,0.52795684,-0.42264336,-2.7883277,-2.587259
1747679352.4503977,0.44680783,-0.0040269443,0.52795684,-0.42264336,-2.7883277,-2.587259
1747679352.4509165,0.44680783,-0.0040269443,0.52795684,-0.42264336,-2.7883277,-2.587259
1747679352.4514375,0.44680783,-0.0040269443,0.52795684,-0.42264336,-2.7883277,-2.587259
1747679352.4519584,0.44680783,-0.0040269443,0.52795684,-0.42264336,-2.7883277,-2.587259
1747679352.4524777,0.35113737,0.031605415,0.49476504,-0.7145256,-2.5497086,-2.51056
1747679352.4529965,0.35113737,0.031605415,0.49476504,-0.7145256,-2.5497086,-2.51056
1747679352.4535153,0.35113737,0.031605415,0.49476504,-0.7145256,-2.5497086,-2.51056
1747679352.4540403,0.35113737,0.031605415,0.49476504,-0.7145256,-2.5497086,-2.51056
1747679352.4545896,0.35113737,0.031605415,0.49476504,-0.7145256,-2.5497086,-2.51056
1747679352.455152,0.35113737,0.031605415,0.49476504,-0.7145256,-2.5497086,-2.51056
1747679352.4556854,0.35113737,0.031605415,0.49476504,-0.7145256,-2.5497086,-2.51056
1747679352.4562058,0.35113737,0.031605415,0.49476504,-0.7145256,-2.5497086,-2.51056
1747679352.4567244,0.35113737,0.031605415,0.49476504,-0.7145256,-2.5497086,-2.51056
1747679352.4572434,0.35113737,0.031605415,0.49476504,-0.7145256,-2.5497086,-2.51056
1747679352.4577625,0.35113737,0.031605415,0.49476504,-0.7145256,-2.5497086,-2.51056
1747679352.4582813,0.35113737,0.031605415,0.49476504,-0.7145256,-2.5497086,-2.51056
1747679352.4588,0.35113737,0.031605415,0.49476504,-0.7145256,-2.5497086,-2.51056
1747679352.4593189,0.35113737,0.031605415,0.49476504,-0.7145256,-2.5497086,-2.51056
1747679352.4598374,0.35113737,0.031605415,0.49476504,-0.7145256,-2.5497086,-2.51056
1747679352.460356,0.35113737,0.031605415,0.49476504,-0.7145256,-2.5497086,-2.51056
1747679352.4608748,0.35113737,0.031605415,0.49476504,-0.7145256,-2.5497086,-2.51056
1747679352.4613929,0.35113737,0.031605415,0.49476504,-0.7145256,-2.5497086,-2.51056
1747679352.4619112,0.35113737,0.031605415,0.49476504,-0.7145256,-2.5497086,-2.51056
1747679352.4624302,0.30769518,0.049177535,0.58701867,-0.7145256,-2.5497086,-2.51056
1747679352.4630406,0.30769518,0.049177535,0.58701867,-0.7145256,-2.5497086,-2.51056
1747679352.4635882,0.30769518,0.049177535,0.58701867,-0.91479516,-2.693519,-2.3784673
1747679352.4641676,0.30769518,0.049177535,0.58701867,-0.91479516,-2.693519,-2.3784673
1747679352.4647706,0.30769518,0.049177535,0.58701867,-0.91479516,-2.693519,-2.3784673
1747679352.4653618,0.30769518,0.049177535,0.58701867,-0.91479516,-2.693519,-2.3784673
1747679352.4659333,0.30769518,0.049177535,0.58701867,-0.91479516,-2.693519,-2.3784673
1747679352.466511,0.30769518,0.049177535,0.58701867,-0.91479516,-2.693519,-2.3784673
1747679352.4670837,0.30769518,0.049177535,0.58701867,-0.91479516,-2.693519,-2.3784673
1747679352.4676554,0.30769518,0.049177535,0.58701867,-0.91479516,-2.693519,-2.3784673
1747679352.4682271,0.30769518,0.049177535,0.58701867,-0.91479516,-2.693519,-2.3784673
1747679352.4687986,0.30769518,0.049177535,0.58701867,-0.91479516,-2.693519,-2.3784673
1747679352.469376,0.30769518,0.049177535,0.58701867,-0.91479516,-2.693519,-2.3784673
1747679352.4699392,0.30769518,0.049177535,0.58701867,-0.91479516,-2.693519,-2.3784673
1747679352.4705052,0.30769518,0.049177535,0.58701867,-0.91479516,-2.693519,-2.3784673
1747679352.4710653,0.30769518,0.049177535,0.58701867,-0.91479516,-2.693519,-2.3784673
1747679352.471616,0.30769518,0.049177535,0.58701867,-0.91479516,-2.693519,-2.3784673
1747679352.4721725,0.30769518,0.049177535,0.58701867,-0.91479516,-2.693519,-2.3784673
1747679352.4727342,0.30769518,0.049177535,0.58701867,-0.91479516,-2.693519,-2.3784673
1747679352.4733024,0.30769518,0.049177535,0.58701867,-0.91479516,-2.693519,-2.3784673
1747679352.4738736,0.33844638,0.03648656,0.65633094,-0.9201215,-2.9854014,-2.3092253
1747679352.4744241,0.33844638,0.03648656,0.65633094,-0.9201215,-2.9854014,-2.3092253
1747679352.4749668,0.33844638,0.03648656,0.65633094,-0.9201215,-2.9854014,-2.3092253
1747679352.4755092,0.33844638,0.03648656,0.65633094,-0.9201215,-2.9854014,-2.3092253
1747679352.47605,0.33844638,0.03648656,0.65633094,-0.9201215,-2.9854014,-2.3092253
1747679352.4766178,0.33844638,0.03648656,0.65633094,-0.9201215,-2.9854014,-2.3092253
1747679352.4771833,0.33844638,0.03648656,0.65633094,-0.9201215,-2.9854014,-2.3092253
1747679352.4777653,0.33844638,0.03648656,0.65633094,-0.9201215,-2.9854014,-2.3092253
1747679352.478357,0.33844638,0.03648656,0.65633094,-0.9201215,-2.9854014,-2.3092253
1747679352.4789095,0.33844638,0.03648656,0.65633094,-0.9201215,-2.9854014,-2.3092253
1747679352.4794476,0.33844638,0.03648656,0.65633094,-0.9201215,-2.9854014,-2.3092253
1747679352.479976,0.33844638,0.03648656,0.65633094,-0.9201215,-2.9854014,-2.3092253
1747679352.4804997,0.33844638,0.03648656,0.65633094,-0.9201215,-2.9854014,-2.3092253
1747679352.4810224,0.33844638,0.03648656,0.65633094,-0.9201215,-2.9854014,-2.3092253
1747679352.4815466,0.33844638,0.03648656,0.65633094,-0.9201215,-2.9854014,-2.3092253
1747679352.4821,0.33844638,0.03648656,0.65633094,-0.9201215,-2.9854014,-2.3092253
1747679352.482631,0.43509305,-0.024527755,0.7271076,-0.7869635,-3.7300205,-2.251701
1747679352.4831555,0.43509305,-0.024527755,0.7271076,-0.7869635,-3.7300205,-2.251701
1747679352.483691,0.43509305,-0.024527755,0.7271076,-0.7869635,-3.7300205,-2.251701
1747679352.4842348,0.43509305,-0.024527755,0.7271076,-0.7869635,-3.7300205,-2.251701
1747679352.4847593,0.43509305,-0.024527755,0.7271076,-0.7869635,-3.7300205,-2.251701
1747679352.4852831,0.43509305,-0.024527755,0.7271076,-0.7869635,-3.7300205,-2.251701
1747679352.4858356,0.43509305,-0.024527755,0.7271076,-0.7869635,-3.7300205,-2.251701
1747679352.4863937,0.43509305,-0.024527755,0.7271076,-0.7869635,-3.7300205,-2.251701
1747679352.4869351,0.43509305,-0.024527755,0.7271076,-0.7869635,-3.7300205,-2.251701
1747679352.4874632,0.43509305,-0.024527755,0.7271076,-0.7869635,-3.7300205,-2.251701
1747679352.488001,0.43509305,-0.024527755,0.7271076,-0.7869635,-3.7300205,-2.251701
1747679352.4885368,0.43509305,-0.024527755,0.7271076,-0.7869635,-3.7300205,-2.251701
1747679352.4890597,0.43509305,-0.024527755,0.7271076,-0.7869635,-3.7300205,-2.251701
1747679352.4895813,0.43509305,-0.024527755,0.7271076,-0.7869635,-3.7300205,-2.251701
1747679352.4901028,0.43509305,-0.024527755,0.7271076,-0.7869635,-3.7300205,-2.251701
1747679352.4906244,0.43509305,-0.024527755,0.7271076,-0.7869635,-3.7300205,-2.251701
1747679352.4911456,0.43509305,-0.024527755,0.7271076,-0.7869635,-3.7300205,-2.251701
1747679352.4916673,0.43509305,-0.024527755,0.7271076,-0.7869635,-3.7300205,-2.251701
1747679352.4921885,0.43509305,-0.024527755,0.7271076,-0.7869635,-3.7300205,-2.251701
1747679352.4927096,0.43509305,-0.024527755,0.7271076,-0.7869635,-3.7300205,-2.251701
1747679352.4932654,0.43509305,-0.024527755,0.7271076,-0.7869635,-3.7300205,-2.251701
1747679352.493831,0.43509305,-0.024527755,0.7271076,-0.7869635,-3.7300205,-2.251701
1747679352.4943871,0.43509305,-0.024527755,0.7271076,-0.7869635,-3.7300205,-2.251701
1747679352.4949377,0.43509305,-0.024527755,0.7271076,-0.611195,-4.4639874,-2.2538316
1747679352.4956155,0.43509305,-0.024527755,0.7271076,-0.611195,-4.4639874,-2.2538316
1747679352.4961617,0.48488072,-0.14167523,0.70074934,-0.611195,-4.4639874,-2.2538316
1747679352.4966962,0.48488072,-0.14167523,0.70074934,-0.611195,-4.4639874,-2.2538316
1747679352.4972184,0.48488072,-0.14167523,0.70074934,-0.611195,-4.4639874,-2.2538316
1747679352.4977396,0.48488072,-0.14167523,0.70074934,-0.611195,-4.4639874,-2.2538316
1747679352.4987502,0.48488072,-0.14167523,0.70074934,-0.611195,-4.4639874,-2.2538316
1747679352.4992695,0.48488072,-0.14167523,0.70074934,-0.611195,-4.4639874,-2.2538316
1747679352.4997883,0.48488072,-0.14167523,0.70074934,-0.611195,-4.4639874,-2.2538316
1747679352.5003068,0.48488072,-0.14167523,0.70074934,-0.611195,-4.4639874,-2.2538316
1747679352.5008283,0.48488072,-0.14167523,0.70074934,-0.611195,-4.4639874,-2.2538316
1747679352.5013728,0.48488072,-0.14167523,0.70074934,-0.611195,-4.4639874,-2.2538316
1747679352.5019164,0.48488072,-0.14167523,0.70074934,-0.611195,-4.4639874,-2.2538316
1747679352.5024502,0.48488072,-0.14167523,0.70074934,-0.611195,-4.4639874,-2.2538316
1747679352.5029707,0.48488072,-0.14167523,0.70074934,-0.611195,-4.4639874,-2.2538316
1747679352.5034897,0.48488072,-0.14167523,0.70074934,-0.611195,-4.4639874,-2.2538316
1747679352.5040429,0.48488072,-0.14167523,0.70074934,-0.611195,-4.4639874,-2.2538316
1747679352.5046065,0.48488072,-0.14167523,0.70074934,-0.611195,-4.4639874,-2.2538316
1747679352.505136,0.48488072,-0.14167523,0.70074934,-0.611195,-4.4639874,-2.2538316
1747679352.5056567,0.48878568,-0.25394157,0.68317723,-0.611195,-4.4639874,-2.2538316
1747679352.506177,0.48878568,-0.25394157,0.68317723,-0.574976,-4.667453,-2.2186778
1747679352.506696,0.48878568,-0.25394157,0.68317723,-0.574976,-4.667453,-2.2186778
1747679352.507215,0.48878568,-0.25394157,0.68317723,-0.574976,-4.667453,-2.2186778
1747679352.5077345,0.48878568,-0.25394157,0.68317723,-0.574976,-4.667453,-2.2186778
1747679352.508253,0.48878568,-0.25394157,0.68317723,-0.574976,-4.667453,-2.2186778
1747679352.508786,0.48878568,-0.25394157,0.68317723,-0.574976,-4.667453,-2.2186778
1747679352.5093222,0.48878568,-0.25394157,0.68317723,-0.574976,-4.667453,-2.2186778
1747679352.5098484,0.48878568,-0.25394157,0.68317723,-0.574976,-4.667453,-2.2186778
1747679352.5103672,0.48878568,-0.25394157,0.68317723,-0.574976,-4.667453,-2.2186778
1747679352.510886,0.48878568,-0.25394157,0.68317723,-0.574976,-4.667453,-2.2186778
1747679352.5114045,0.48878568,-0.25394157,0.68317723,-0.574976,-4.667453,-2.2186778
1747679352.5119228,0.48878568,-0.25394157,0.68317723,-0.574976,-4.667453,-2.2186778
1747679352.5124416,0.48878568,-0.25394157,0.68317723,-0.574976,-4.667453,-2.2186778
1747679352.51296,0.48878568,-0.25394157,0.68317723,-0.574976,-4.667453,-2.2186778
1747679352.513478,0.48878568,-0.25394157,0.68317723,-0.574976,-4.667453,-2.2186778
1747679352.5139964,0.48878568,-0.25394157,0.68317723,-0.574976,-4.667453,-2.2186778
1747679352.514546,0.48878568,-0.25394157,0.68317723,-0.574976,-4.667453,-2.2186778
1747679352.5151012,0.48878568,-0.25394157,0.68317723,-0.574976,-4.667453,-2.2186778
1747679352.5156248,0.48878568,-0.25394157,0.68317723,-0.574976,-4.667453,-2.2186778
1747679352.516144,0.48878568,-0.25394157,0.68317723,-0.574976,-4.667453,-2.2186778
1747679352.5166657,0.48878568,-0.25394157,0.68317723,-0.574976,-4.667453,-2.2186778
1747679352.5172334,0.48878568,-0.25394157,0.68317723,-0.574976,-4.667453,-2.2186778
1747679352.5177855,0.48878568,-0.25394157,0.68317723,-0.574976,-4.667453,-2.2186778
1747679352.5183191,0.48878568,-0.25394157,0.68317723,-0.574976,-4.667453,-2.2186778
1747679352.5188398,0.33063656,-0.31056285,0.6987969,-0.63569605,-4.3670483,-2.0748672
1747679352.5193594,0.33063656,-0.31056285,0.6987969,-0.63569605,-4.3670483,-2.0748672
1747679352.5198786,0.33063656,-0.31056285,0.6987969,-0.63569605,-4.3670483,-2.0748672
1747679352.520398,0.33063656,-0.31056285,0.6987969,-0.63569605,-4.3670483,-2.0748672
1747679352.5209172,0.25253823,-0.30861038,0.75737065,-0.63569605,-4.3670483,-2.0748672
1747679352.5214365,0.25253823,-0.30861038,0.75737065,-0.63569605,-4.3670483,-2.0748672
1747679352.5219557,0.25253823,-0.30861038,0.75737065,-0.63569605,-4.3670483,-2.0748672
1747679352.522475,0.25253823,-0.30861038,0.75737065,-0.63569605,-4.3670483,-2.0748672
1747679352.5229943,0.25253823,-0.30861038,0.75737065,-0.708134,-3.957987,-1.8500966
1747679352.5235965,0.25253823,-0.30861038,0.75737065,-0.708134,-3.957987,-1.8500966
1747679352.5241506,0.25253823,-0.30861038,0.75737065,-0.708134,-3.957987,-1.8500966
1747679352.5246928,0.25253823,-0.30861038,0.75737065,-0.708134,-3.957987,-1.8500966
1747679352.5252175,0.25253823,-0.30861038,0.75737065,-0.708134,-3.957987,-1.8500966
1747679352.5257523,0.25253823,-0.30861038,0.75737065,-0.708134,-3.957987,-1.8500966
1747679352.526286,0.25253823,-0.30861038,0.75737065,-0.708134,-3.957987,-1.8500966
1747679352.526806,0.25253823,-0.30861038,0.75737065,-0.708134,-3.957987,-1.8500966
1747679352.527325,0.25253823,-0.30861038,0.75737065,-0.708134,-3.957987,-1.8500966
1747679352.5278435,0.25253823,-0.30861038,0.75737065,-0.708134,-3.957987,-1.8500966
1747679352.5283625,0.25253823,-0.30861038,0.75737065,-0.708134,-3.957987,-1.8500966
1747679352.5288813,0.25253823,-0.30861038,0.75737065,-0.708134,-3.957987,-1.8500966
1747679352.5294402,0.25253823,-0.30861038,0.75737065,-0.708134,-3.957987,-1.8500966
1747679352.5299594,0.25253823,-0.30861038,0.75737065,-0.708134,-3.957987,-1.8500966
1747679352.530478,0.25253823,-0.30861038,0.75737065,-0.708134,-3.957987,-1.8500966
1747679352.530997,0.25253823,-0.30861038,0.75737065,-0.708134,-3.957987,-1.8500966
1747679352.5315156,0.25253823,-0.30861038,0.75737065,-0.708134,-3.957987,-1.8500966
1747679352.5320344,0.25253823,-0.30861038,0.75737065,-0.708134,-3.957987,-1.8500966
1747679352.5325558,0.25253823,-0.30861038,0.75737065,-0.708134,-3.957987,-1.8500966
1747679352.5331018,0.25253823,-0.30861038,0.75737065,-0.708134,-3.957987,-1.8500966
1747679352.533654,0.19542885,-0.33789727,0.7622518,-0.708134,-3.957987,-1.8500966
1747679352.5342312,0.19542885,-0.33789727,0.7622518,-0.6793719,-3.5105762,-1.5805849
1747679352.5347757,0.19542885,-0.33789727,0.7622518,-0.6793719,-3.5105762,-1.5805849
1747679352.5353024,0.19542885,-0.33789727,0.7622518,-0.6793719,-3.5105762,-1.5805849
1747679352.5358229,0.19542885,-0.33789727,0.7622518,-0.6793719,-3.5105762,-1.5805849
1747679352.5363426,0.19542885,-0.33789727,0.7622518,-0.6793719,-3.5105762,-1.5805849
1747679352.5368612,0.19542885,-0.33789727,0.7622518,-0.6793719,-3.5105762,-1.5805849
1747679352.5373805,0.19542885,-0.33789727,0.7622518,-0.6793719,-3.5105762,-1.5805849
1747679352.5379,0.19542885,-0.33789727,0.7622518,-0.6793719,-3.5105762,-1.5805849
1747679352.5384347,0.19542885,-0.33789727,0.7622518,-0.6793719,-3.5105762,-1.5805849
1747679352.538986,0.19542885,-0.33789727,0.7622518,-0.6793719,-3.5105762,-1.5805849
1747679352.5395412,0.19542885,-0.33789727,0.7622518,-0.6793719,-3.5105762,-1.5805849
1747679352.540086,0.19542885,-0.33789727,0.7622518,-0.6793719,-3.5105762,-1.5805849
1747679352.5406127,0.19542885,-0.33789727,0.7622518,-0.6793719,-3.5105762,-1.5805849
1747679352.541132,0.19542885,-0.33789727,0.7622518,-0.6793719,-3.5105762,-1.5805849
1747679352.541651,0.19542885,-0.33789727,0.7622518,-0.6793719,-3.5105762,-1.5805849
1747679352.54217,0.19542885,-0.33789727,0.7622518,-0.6793719,-3.5105762,-1.5805849
1747679352.5426888,0.19542885,-0.33789727,0.7622518,-0.6793719,-3.5105762,-1.5805849
1747679352.5432076,0.19542885,-0.33789727,0.7622518,-0.6793719,-3.5105762,-1.5805849
1747679352.543734,0.19542885,-0.33789727,0.7622518,-0.6793719,-3.5105762,-1.5805849
1747679352.5442624,0.19542885,-0.33789727,0.7622518,-0.6793719,-3.5105762,-1.5805849
1747679352.5447838,0.19542885,-0.33789727,0.7622518,-0.6793719,-3.5105762,-1.5805849
1747679352.5453029,0.19542885,-0.33789727,0.7622518,-0.6793719,-3.5105762,-1.5805849
1747679352.5458217,0.19542885,-0.33789727,0.7622518,-0.6793719,-3.5105762,-1.5805849
1747679352.5463412,0.17346369,-0.34375465,0.6753674,-0.6218476,-3.3209593,-1.4133385
1747679352.5468597,0.17346369,-0.34375465,0.6753674,-0.6218476,-3.3209593,-1.4133385
1747679352.5473812,0.17346369,-0.34375465,0.6753674,-0.6218476,-3.3209593,-1.4133385
1747679352.5479262,0.17346369,-0.34375465,0.6753674,-0.6218476,-3.3209593,-1.4133385
1747679352.5484726,0.17346369,-0.34375465,0.6753674,-0.6218476,-3.3209593,-1.4133385
1747679352.5490067,0.17346369,-0.34375465,0.6753674,-0.6218476,-3.3209593,-1.4133385
1747679352.5495267,0.17346369,-0.34375465,0.6753674,-0.6218476,-3.3209593,-1.4133385
1747679352.550046,0.17346369,-0.34375465,0.6753674,-0.6218476,-3.3209593,-1.4133385
1747679352.5505645,0.17346369,-0.34375465,0.6753674,-0.6218476,-3.3209593,-1.4133385
1747679352.5510836,0.17346369,-0.34375465,0.6753674,-0.6218476,-3.3209593,-1.4133385
1747679352.5516033,0.17346369,-0.34375465,0.6753674,-0.6218476,-3.3209593,-1.4133385
1747679352.5521224,0.17346369,-0.34375465,0.6753674,-0.6218476,-3.3209593,-1.4133385
1747679352.5526414,0.17346369,-0.34375465,0.6753674,-0.6218476,-3.3209593,-1.4133385
1747679352.5531604,0.17346369,-0.34375465,0.6753674,-0.54301816,-3.6171026,-1.2045468
1747679352.5538158,0.17346369,-0.34375465,0.6753674,-0.54301816,-3.6171026,-1.2045468
1747679352.5544035,0.12904526,-0.3320399,0.5411359,-0.54301816,-3.6171026,-1.2045468
1747679352.554952,0.12904526,-0.3320399,0.5411359,-0.54301816,-3.6171026,-1.2045468
1747679352.5555067,0.12904526,-0.3320399,0.5411359,-0.54301816,-3.6171026,-1.2045468
1747679352.5560482,0.12904526,-0.3320399,0.5411359,-0.54301816,-3.6171026,-1.2045468
1747679352.5565817,0.12904526,-0.3320399,0.5411359,-0.54301816,-3.6171026,-1.2045468
1747679352.5571012,0.12904526,-0.3320399,0.5411359,-0.54301816,-3.6171026,-1.2045468
1747679352.5576205,0.12904526,-0.3320399,0.5411359,-0.54301816,-3.6171026,-1.2045468
1747679352.5581393,0.12904526,-0.3320399,0.5411359,-0.54301816,-3.6171026,-1.2045468
1747679352.5586584,0.12904526,-0.3320399,0.5411359,-0.54301816,-3.6171026,-1.2045468
1747679352.559177,0.12904526,-0.3320399,0.5411359,-0.54301816,-3.6171026,-1.2045468
1747679352.5596957,0.12904526,-0.3320399,0.5411359,-0.54301816,-3.6171026,-1.2045468
1747679352.5602143,0.12904526,-0.3320399,0.5411359,-0.54301816,-3.6171026,-1.2045468
1747679352.5607328,0.12904526,-0.3320399,0.5411359,-0.54301816,-3.6171026,-1.2045468
1747679352.5612516,0.12904526,-0.3320399,0.5411359,-0.54301816,-3.6171026,-1.2045468
1747679352.5617704,0.12904526,-0.3320399,0.5411359,-0.54301816,-3.6171026,-1.2045468
1747679352.5622892,0.12904526,-0.3320399,0.5411359,-0.54301816,-3.6171026,-1.2045468
1747679352.5628076,0.12904526,-0.3320399,0.5411359,-0.54301816,-3.6171026,-1.2045468
1747679352.5633292,0.12904526,-0.3320399,0.5411359,-0.54301816,-3.6171026,-1.2045468
1747679352.5638807,0.12904526,-0.3320399,0.5411359,-0.5121255,-4.1614523,-1.0607363
1747679352.5644302,0.12904526,-0.3320399,0.5411359,-0.5121255,-4.1614523,-1.0607363
1747679352.5649638,0.12904526,-0.3320399,0.5411359,-0.5121255,-4.1614523,-1.0607363
1747679352.5654838,0.12904526,-0.3320399,0.5411359,-0.5121255,-4.1614523,-1.0607363
1747679352.5660026,0.12904526,-0.3320399,0.5411359,-0.5121255,-4.1614523,-1.0607363
1747679352.5665216,0.12904526,-0.3320399,0.5411359,-0.5121255,-4.1614523,-1.0607363
1747679352.5670404,0.12904526,-0.3320399,0.5411359,-0.5121255,-4.1614523,-1.0607363
1747679352.5675976,0.12904526,-0.3320399,0.5411359,-0.5121255,-4.1614523,-1.0607363
1747679352.5681167,0.12904526,-0.3320399,0.5411359,-0.5121255,-4.1614523,-1.0607363
1747679352.5686488,0.12904526,-0.3320399,0.5411359,-0.5121255,-4.1614523,-1.0607363
1747679352.5691764,0.12904526,-0.3320399,0.5411359,-0.5121255,-4.1614523,-1.0607363
1747679352.5696957,0.12904526,-0.3320399,0.5411359,-0.5121255,-4.1614523,-1.0607363
1747679352.570215,0.12904526,-0.3320399,0.5411359,-0.5121255,-4.1614523,-1.0607363
1747679352.5707338,0.12904526,-0.3320399,0.5411359,-0.5121255,-4.1614523,-1.0607363
1747679352.5712528,0.12904526,-0.3320399,0.5411359,-0.5121255,-4.1614523,-1.0607363
1747679352.571771,0.12904526,-0.3320399,0.5411359,-0.5121255,-4.1614523,-1.0607363
1747679352.5722892,0.12904526,-0.3320399,0.5411359,-0.5121255,-4.1614523,-1.0607363
1747679352.5728085,0.13295019,-0.3022649,0.19457464,-0.5121255,-4.1614523,-1.0607363
1747679352.5733278,0.13295019,-0.3022649,0.19457464,-0.6218476,-4.9220505,-0.8423572
1747679352.5738468,0.13295019,-0.3022649,0.19457464,-0.6218476,-4.9220505,-0.8423572
1747679352.5743809,0.13295019,-0.3022649,0.19457464,-0.6218476,-4.9220505,-0.8423572
1747679352.5749319,0.13295019,-0.3022649,0.19457464,-0.6218476,-4.9220505,-0.8423572
1747679352.5754576,0.13295019,-0.3022649,0.19457464,-0.6218476,-4.9220505,-0.8423572
1747679352.5759773,0.13295019,-0.3022649,0.19457464,-0.6218476,-4.9220505,-0.8423572
1747679352.5764961,0.13295019,-0.3022649,0.19457464,-0.6218476,-4.9220505,-0.8423572
1747679352.5770144,0.13295019,-0.3022649,0.19457464,-0.6218476,-4.9220505,-0.8423572
1747679352.5775332,0.13295019,-0.3022649,0.19457464,-0.6218476,-4.9220505,-0.8423572
1747679352.5780516,0.13295019,-0.3022649,0.19457464,-0.6218476,-4.9220505,-0.8423572
1747679352.57857,0.13295019,-0.3022649,0.19457464,-0.6218476,-4.9220505,-0.8423572
1747679352.5790918,0.13295019,-0.3022649,0.19457464,-0.6218476,-4.9220505,-0.8423572
1747679352.5796623,0.13295019,-0.3022649,0.19457464,-0.6218476,-4.9220505,-0.8423572
1747679352.580215,0.13295019,-0.3022649,0.19457464,-0.6218476,-4.9220505,-0.8423572
1747679352.5807488,0.13295019,-0.3022649,0.19457464,-0.6218476,-4.9220505,-0.8423572
1747679352.581269,0.13295019,-0.3022649,0.19457464,-0.6218476,-4.9220505,-0.8423572
1747679352.581788,0.13295019,-0.3022649,0.19457464,-0.6218476,-4.9220505,-0.8423572
1747679352.582311,0.13295019,-0.3022649,0.19457464,-0.6218476,-4.9220505,-0.8423572
1747679352.582831,0.30623084,-0.34765956,-0.010433447,-0.6218476,-4.9220505,-0.8423572
1747679352.5833564,0.30623084,-0.34765956,-0.010433447,-0.6218476,-4.9220505,-0.8423572
1747679352.5839715,0.30623084,-0.34765956,-0.010433447,-1.1404979,-4.894354,-0.56858444
1747679352.5845253,0.30623084,-0.34765956,-0.010433447,-1.1404979,-4.894354,-0.56858444
1747679352.585067,0.30623084,-0.34765956,-0.010433447,-1.1404979,-4.894354,-0.56858444
1747679352.585603,0.30623084,-0.34765956,-0.010433447,-1.1404979,-4.894354,-0.56858444
1747679352.5861259,0.30623084,-0.34765956,-0.010433447,-1.1404979,-4.894354,-0.56858444
1747679352.5866475,0.30623084,-0.34765956,-0.010433447,-1.1404979,-4.894354,-0.56858444
1747679352.587169,0.30623084,-0.34765956,-0.010433447,-1.1404979,-4.894354,-0.56858444
1747679352.5876906,0.30623084,-0.34765956,-0.010433447,-1.1404979,-4.894354,-0.56858444
1747679352.5882118,0.30623084,-0.34765956,-0.010433447,-1.1404979,-4.894354,-0.56858444
1747679352.5887332,0.30623084,-0.34765956,-0.010433447,-1.1404979,-4.894354,-0.56858444
1747679352.5892546,0.30623084,-0.34765956,-0.010433447,-1.1404979,-4.894354,-0.56858444
1747679352.5897758,0.30623084,-0.34765956,-0.010433447,-1.1404979,-4.894354,-0.56858444
1747679352.590297,0.30623084,-0.34765956,-0.010433447,-1.1404979,-4.894354,-0.56858444
1747679352.5908184,0.30623084,-0.34765956,-0.010433447,-1.1404979,-4.894354,-0.56858444
1747679352.5913398,0.30623084,-0.34765956,-0.010433447,-1.1404979,-4.894354,-0.56858444
1747679352.591861,0.30623084,-0.34765956,-0.010433447,-1.1404979,-4.894354,-0.56858444
1747679352.5923827,0.30623084,-0.34765956,-0.010433447,-1.1404979,-4.894354,-0.56858444
1747679352.5929048,0.46486804,-0.42087674,-0.12904526,-1.1404979,-4.894354,-0.56858444
1747679352.5934262,0.46486804,-0.42087674,-0.12904526,-1.1404979,-4.894354,-0.56858444
1747679352.5939481,0.46486804,-0.42087674,-0.12904526,-1.1404979,-4.894354,-0.56858444
1747679352.594485,0.46486804,-0.42087674,-0.12904526,-1.4781865,-4.710063,-0.41731703
1747679352.5950277,0.46486804,-0.42087674,-0.12904526,-1.4781865,-4.710063,-0.41731703
1747679352.5955982,0.46486804,-0.42087674,-0.12904526,-1.4781865,-4.710063,-0.41731703
1747679352.5961523,0.46486804,-0.42087674,-0.12904526,-1.4781865,-4.710063,-0.41731703
1747679352.5966878,0.46486804,-0.42087674,-0.12904526,-1.4781865,-4.710063,-0.41731703
1747679352.5972106,0.46486804,-0.42087674,-0.12904526,-1.4781865,-4.710063,-0.41731703
1747679352.597732,0.46486804,-0.42087674,-0.12904526,-1.4781865,-4.710063,-0.41731703
1747679352.5982563,0.46486804,-0.42087674,-0.12904526,-1.4781865,-4.710063,-0.41731703
1747679352.598765,0.46486804,-0.42087674,-0.12904526,-1.4781865,-4.710063,-0.41731703
1747679352.5992985,0.46486804,-0.42087674,-0.12904526,-1.4781865,-4.710063,-0.41731703
1747679352.5998528,0.46486804,-0.42087674,-0.12904526,-1.4781865,-4.710063,-0.41731703
1747679352.600404,0.46486804,-0.42087674,-0.12904526,-1.4781865,-4.710063,-0.41731703
1747679352.6009665,0.46486804,-0.42087674,-0.12904526,-1.4781865,-4.710063,-0.41731703
1747679352.6015356,0.46486804,-0.42087674,-0.12904526,-1.4781865,-4.710063,-0.41731703
1747679352.602083,0.46486804,-0.42087674,-0.12904526,-1.4781865,-4.710063,-0.41731703
1747679352.6026368,0.46486804,-0.42087674,-0.12904526,-1.4781865,-4.710063,-0.41731703
1747679352.6031983,0.46486804,-0.42087674,-0.12904526,-1.4781865,-4.710063,-0.41731703
1747679352.6037533,0.46486804,-0.42087674,-0.12904526,-1.4781865,-4.710063,-0.41731703
1747679352.6043036,0.46486804,-0.42087674,-0.12904526,-1.4781865,-4.710063,-0.41731703
1747679352.604864,0.46486804,-0.42087674,-0.12904526,-1.4781865,-4.710063,-0.41731703
1747679352.6054208,0.878301,-0.4120907,-0.22813252,-1.4781865,-4.710063,-0.41731703
1747679352.605985,0.878301,-0.4120907,-0.22813252,-2.3912506,-4.1848884,-0.26711485
1747679352.606556,0.878301,-0.4120907,-0.22813252,-2.3912506,-4.1848884,-0.26711485
1747679352.6071222,0.878301,-0.4120907,-0.22813252,-2.3912506,-4.1848884,-0.26711485
1747679352.6076796,0.878301,-0.4120907,-0.22813252,-2.3912506,-4.1848884,-0.26711485
1747679352.6082325,0.878301,-0.4120907,-0.22813252,-2.3912506,-4.1848884,-0.26711485
1747679352.6088045,0.878301,-0.4120907,-0.22813252,-2.3912506,-4.1848884,-0.26711485
1747679352.6093605,0.878301,-0.4120907,-0.22813252,-2.3912506,-4.1848884,-0.26711485
1747679352.6099238,0.878301,-0.4120907,-0.22813252,-2.3912506,-4.1848884,-0.26711485
1747679352.6105354,0.878301,-0.4120907,-0.22813252,-2.3912506,-4.1848884,-0.26711485
1747679352.6110964,0.878301,-0.4120907,-0.22813252,-2.3912506,-4.1848884,-0.26711485
1747679352.6116574,0.878301,-0.4120907,-0.22813252,-2.3912506,-4.1848884,-0.26711485
1747679352.612218,0.878301,-0.4120907,-0.22813252,-2.3912506,-4.1848884,-0.26711485
1747679352.6127648,0.878301,-0.4120907,-0.22813252,-2.3912506,-4.1848884,-0.26711485
1747679352.613295,0.878301,-0.4120907,-0.22813252,-2.3912506,-4.1848884,-0.26711485
1747679352.6138403,0.878301,-0.4120907,-0.22813252,-2.3912506,-4.1848884,-0.26711485
1747679352.6144593,0.878301,-0.4120907,-0.22813252,-2.3912506,-4.1848884,-0.26711485
1747679352.615018,0.878301,-0.4120907,-0.22813252,-2.3912506,-4.1848884,-0.26711485
1747679352.6155827,0.878301,-0.4120907,-0.22813252,-2.3912506,-4.1848884,-0.26711485
1747679352.6161492,0.878301,-0.4120907,-0.22813252,-2.3912506,-4.1848884,-0.26711485
1747679352.6175413,0.878301,-0.4120907,-0.22813252,-2.3912506,-4.1848884,-0.26711485
1747679352.619061,1.1223582,-0.39256608,-0.07779325,-3.238135,-3.6927364,-0.49827707
1747679352.619757,1.1223582,-0.39256608,-0.07779325,-3.238135,-3.6927364,-0.49827707
1747679352.6208725,1.1223582,-0.39256608,-0.07779325,-3.238135,-3.6927364,-0.49827707
1747679352.6257334,1.1223582,-0.39256608,-0.07779325,-3.238135,-3.6927364,-0.49827707
1747679352.6271756,1.1223582,-0.39256608,-0.07779325,-3.238135,-3.6927364,-0.49827707
1747679352.6278107,1.1223582,-0.39256608,-0.07779325,-3.238135,-3.6927364,-0.49827707
1747679352.6291108,1.1321205,-0.447723,0.2946381,-4.107257,-2.9491823,-0.86792356
1747679352.6317294,1.1321205,-0.447723,0.2946381,-4.107257,-2.9491823,-0.86792356
1747679352.6323352,1.1321205,-0.447723,0.2946381,-4.107257,-2.9491823,-0.86792356
1747679352.6330154,1.1321205,-0.447723,0.2946381,-4.5333624,-2.3558304,-1.0447574
1747679352.633571,1.0808686,-0.5033681,0.55285066,-4.5333624,-2.3558304,-1.0447574
1747679352.6341622,1.0808686,-0.5033681,0.55285066,-4.5333624,-2.3558304,-1.0447574
1747679352.6347477,1.0808686,-0.5033681,0.55285066,-4.5333624,-2.3558304,-1.0447574
1747679352.635307,1.0808686,-0.5033681,0.55285066,-4.5333624,-2.3558304,-1.0447574
1747679352.6358633,1.0808686,-0.5033681,0.55285066,-4.5333624,-2.3558304,-1.0447574
1747679352.6364162,1.0808686,-0.5033681,0.55285066,-4.5333624,-2.3558304,-1.0447574
1747679352.6369655,1.0808686,-0.5033681,0.55285066,-4.5333624,-2.3558304,-1.0447574
1747679352.637529,1.0808686,-0.5033681,0.55285066,-4.5333624,-2.3558304,-1.0447574
1747679352.6380663,1.0808686,-0.5033681,0.55285066,-4.5333624,-2.3558304,-1.0447574
1747679352.638603,1.0808686,-0.5033681,0.55285066,-4.5333624,-2.3558304,-1.0447574
1747679352.6391394,1.0808686,-0.5033681,0.55285066,-4.5333624,-2.3558304,-1.0447574
1747679352.6396742,1.0808686,-0.5033681,0.55285066,-4.5333624,-2.3558304,-1.0447574
1747679352.6402092,1.0808686,-0.5033681,0.55285066,-4.5333624,-2.3558304,-1.0447574
1747679352.640761,1.0808686,-0.5033681,0.55285066,-4.5333624,-2.3558304,-1.0447574
1747679352.6413276,1.0808686,-0.5033681,0.55285066,-4.5333624,-2.3558304,-1.0447574
1747679352.641888,0.9666498,-0.5477865,0.9003882,-4.955207,-1.4279859,-1.2556795
1747679352.6426642,0.9666498,-0.5477865,0.9003882,-4.955207,-1.4279859,-1.2556795
1747679352.6432178,0.9666498,-0.5477865,0.9003882,-4.955207,-1.4279859,-1.2556795
1747679352.6437604,0.9666498,-0.5477865,0.9003882,-4.955207,-1.4279859,-1.2556795
1747679352.6442945,0.9666498,-0.5477865,0.9003882,-4.955207,-1.4279859,-1.2556795
1747679352.645084,0.9666498,-0.5477865,0.9003882,-4.955207,-1.4279859,-1.2556795
1747679352.645634,0.9666498,-0.5477865,0.9003882,-4.955207,-1.4279859,-1.2556795
1747679352.6461692,0.9666498,-0.5477865,0.9003882,-4.955207,-1.4279859,-1.2556795
1747679352.6467175,0.9666498,-0.5477865,0.9003882,-4.955207,-1.4279859,-1.2556795
1747679352.647285,0.9666498,-0.5477865,0.9003882,-4.955207,-1.4279859,-1.2556795
1747679352.6478605,0.9666498,-0.5477865,0.9003882,-4.955207,-1.4279859,-1.2556795
1747679352.6484318,0.9666498,-0.5477865,0.9003882,-4.955207,-1.4279859,-1.2556795
1747679352.64899,0.9666498,-0.5477865,0.9003882,-4.955207,-1.4279859,-1.2556795
1747679352.6495633,0.9666498,-0.5477865,0.9003882,-4.955207,-1.4279859,-1.2556795
1747679352.6501284,0.9666498,-0.5477865,0.9003882,-4.955207,-1.4279859,-1.2556795
1747679352.6507003,0.9666498,-0.5477865,0.9003882,-4.955207,-1.4279859,-1.2556795
1747679352.6512675,0.9666498,-0.5477865,0.9003882,-4.955207,-1.4279859,-1.2556795
1747679352.652335,0.86414576,-0.5077611,1.1532315,-4.955207,-1.4279859,-1.2556795
1747679352.6529899,0.86414576,-0.5077611,1.1532315,-5.088365,-0.9017457,-1.3568796
1747679352.653548,0.86414576,-0.5077611,1.1532315,-5.088365,-0.9017457,-1.3568796
1747679352.654094,0.86414576,-0.5077611,1.1532315,-5.088365,-0.9017457,-1.3568796
1747679352.6546578,0.86414576,-0.5077611,1.1532315,-5.088365,-0.9017457,-1.3568796
1747679352.6552327,0.86414576,-0.5077611,1.1532315,-5.088365,-0.9017457,-1.3568796
1747679352.6557932,0.86414576,-0.5077611,1.1532315,-5.088365,-0.9017457,-1.3568796
1747679352.6563518,0.86414576,-0.5077611,1.1532315,-5.088365,-0.9017457,-1.3568796
1747679352.6569326,0.86414576,-0.5077611,1.1532315,-5.088365,-0.9017457,-1.3568796
1747679352.6575317,0.86414576,-0.5077611,1.1532315,-5.088365,-0.9017457,-1.3568796
1747679352.6580853,0.86414576,-0.5077611,1.1532315,-5.088365,-0.9017457,-1.3568796
1747679352.6586392,0.86414576,-0.5077611,1.1532315,-5.088365,-0.9017457,-1.3568796
1747679352.6591747,0.86414576,-0.5077611,1.1532315,-5.088365,-0.9017457,-1.3568796
1747679352.65972,0.86414576,-0.5077611,1.1532315,-5.088365,-0.9017457,-1.3568796
1747679352.66027,0.86414576,-0.5077611,1.1532315,-5.088365,-0.9017457,-1.3568796
1747679352.6608288,0.86414576,-0.5077611,1.1532315,-5.088365,-0.9017457,-1.3568796
1747679352.6613746,0.86414576,-0.5077611,1.1532315,-5.088365,-0.9017457,-1.3568796
1747679352.6619685,0.86414576,-0.5077611,1.1532315,-5.088365,-0.9017457,-1.3568796
1747679352.6625135,0.64254177,-0.37450585,1.5251747,-5.088365,-0.9017457,-1.3568796
1747679352.6630583,0.64254177,-0.37450585,1.5251747,-5.088365,-0.9017457,-1.3568796
1747679352.663599,0.64254177,-0.37450585,1.5251747,-5.057472,-0.29667592,-1.4325132
1747679352.6641452,0.64254177,-0.37450585,1.5251747,-5.057472,-0.29667592,-1.4325132
1747679352.664687,0.64254177,-0.37450585,1.5251747,-5.057472,-0.29667592,-1.4325132
1747679352.6652362,0.64254177,-0.37450585,1.5251747,-5.057472,-0.29667592,-1.4325132
1747679352.6657722,0.64254177,-0.37450585,1.5251747,-5.057472,-0.29667592,-1.4325132
1747679352.6663232,0.64254177,-0.37450585,1.5251747,-5.057472,-0.29667592,-1.4325132
1747679352.6668606,0.64254177,-0.37450585,1.5251747,-5.057472,-0.29667592,-1.4325132
1747679352.667442,0.64254177,-0.37450585,1.5251747,-5.057472,-0.29667592,-1.4325132
1747679352.6679847,0.64254177,-0.37450585,1.5251747,-5.057472,-0.29667592,-1.4325132
1747679352.6685271,0.64254177,-0.37450585,1.5251747,-5.057472,-0.29667592,-1.4325132
1747679352.669076,0.64254177,-0.37450585,1.5251747,-5.057472,-0.29667592,-1.4325132
1747679352.6696289,0.64254177,-0.37450585,1.5251747,-5.057472,-0.29667592,-1.4325132
1747679352.6701975,0.64254177,-0.37450585,1.5251747,-5.057472,-0.29667592,-1.4325132
1747679352.6707237,0.64254177,-0.37450585,1.5251747,-5.057472,-0.29667592,-1.4325132
1747679352.671297,0.64254177,-0.37450585,1.5251747,-5.057472,-0.29667592,-1.4325132
1747679352.6718562,0.64254177,-0.37450585,1.5251747,-5.057472,-0.29667592,-1.4325132
1747679352.6724093,0.64254177,-0.37450585,1.5251747,-5.057472,-0.29667592,-1.4325132
1747679352.6729712,0.3350296,-0.268585,1.6306075,-4.8838344,0.71212876,-1.1044121
1747679352.673707,0.3350296,-0.268585,1.6306075,-4.8838344,0.71212876,-1.1044121
1747679352.67427,0.3350296,-0.268585,1.6306075,-4.8838344,0.71212876,-1.1044121
1747679352.6748006,0.3350296,-0.268585,1.6306075,-4.8838344,0.71212876,-1.1044121
1747679352.675476,0.3350296,-0.268585,1.6306075,-4.8838344,0.71212876,-1.1044121
1747679352.6760447,0.3350296,-0.268585,1.6306075,-4.8838344,0.71212876,-1.1044121
1747679352.676564,0.3350296,-0.268585,1.6306075,-4.8838344,0.71212876,-1.1044121
1747679352.6771085,0.3350296,-0.268585,1.6306075,-4.8838344,0.71212876,-1.1044121
1747679352.6776607,0.3350296,-0.268585,1.6306075,-4.8838344,0.71212876,-1.1044121
1747679352.6782138,0.3350296,-0.268585,1.6306075,-4.8838344,0.71212876,-1.1044121
1747679352.6787298,0.3350296,-0.268585,1.6306075,-4.8838344,0.71212876,-1.1044121
1747679352.6792707,0.3350296,-0.268585,1.6306075,-4.8838344,0.71212876,-1.1044121
1747679352.679811,0.3350296,-0.268585,1.6306075,-4.8838344,0.71212876,-1.1044121
1747679352.680341,0.3350296,-0.268585,1.6306075,-4.8838344,0.71212876,-1.1044121
1747679352.6808698,0.3350296,-0.268585,1.6306075,-4.8838344,0.71212876,-1.1044121
1747679352.6813989,0.3350296,-0.268585,1.6306075,-4.8838344,0.71212876,-1.1044121
1747679352.6819382,0.3350296,-0.268585,1.6306075,-4.8838344,0.71212876,-1.1044121
1747679352.6824665,0.3350296,-0.268585,1.6306075,-4.8838344,0.71212876,-1.1044121
1747679352.6830177,0.3350296,-0.268585,1.6306075,-4.8838344,0.71212876,-1.1044121
1747679352.6835475,0.3350296,-0.268585,1.6306075,-4.8838344,0.71212876,-1.1044121
1747679352.6840801,0.3350296,-0.268585,1.6306075,-4.8838344,0.71212876,-1.1044121
1747679352.6846318,0.3350296,-0.268585,1.6306075,-4.8838344,0.71212876,-1.1044121
1747679352.6851592,0.4199615,-0.29494318,1.8341513,-4.6910214,1.461009,-0.93290466
1747679352.6856933,0.4199615,-0.29494318,1.8341513,-4.6910214,1.461009,-0.93290466
1747679352.6862352,0.4199615,-0.29494318,1.8341513,-4.6910214,1.461009,-0.93290466
1747679352.6867528,0.4199615,-0.29494318,1.8341513,-4.6910214,1.461009,-0.93290466
1747679352.6872914,0.4199615,-0.29494318,1.8341513,-4.6910214,1.461009,-0.93290466
1747679352.6878283,0.4199615,-0.29494318,1.8341513,-4.6910214,1.461009,-0.93290466
1747679352.68856,0.4199615,-0.29494318,1.8341513,-4.6910214,1.461009,-0.93290466
1747679352.6891208,0.4199615,-0.29494318,1.8341513,-4.6910214,1.461009,-0.93290466
1747679352.6896625,0.4199615,-0.29494318,1.8341513,-4.6910214,1.461009,-0.93290466
1747679352.690192,0.4199615,-0.29494318,1.8341513,-4.6910214,1.461009,-0.93290466
1747679352.6907475,0.4199615,-0.29494318,1.8341513,-4.6910214,1.461009,-0.93290466
1747679352.6912858,0.4199615,-0.29494318,1.8341513,-4.6910214,1.461009,-0.93290466
1747679352.691819,0.4199615,-0.29494318,1.8341513,-4.6910214,1.461009,-0.93290466
1747679352.6923547,0.4199615,-0.29494318,1.8341513,-4.6910214,1.461009,-0.93290466
1747679352.6929197,0.4199615,-0.29494318,1.8341513,-4.6910214,1.461009,-0.93290466
1747679352.6934578,0.4199615,-0.29494318,1.8341513,-4.6910214,1.461009,-0.93290466
1747679352.6940238,0.4199615,-0.29494318,1.8341513,-4.6910214,1.461009,-0.93290466
1747679352.6946378,0.4199615,-0.29494318,1.8341513,-4.1818256,1.7177377,-0.88603306
1747679352.6951756,0.4199615,-0.29494318,1.8341513,-4.1818256,1.7177377,-0.88603306
1747679352.6957412,0.41019922,-0.35156447,2.017194,-4.1818256,1.7177377,-0.88603306
1747679352.6962988,0.41019922,-0.35156447,2.017194,-4.1818256,1.7177377,-0.88603306
1747679352.6969097,0.41019922,-0.35156447,2.017194,-4.1818256,1.7177377,-0.88603306
1747679352.6975033,0.41019922,-0.35156447,2.017194,-4.1818256,1.7177377,-0.88603306
1747679352.6980636,0.41019922,-0.35156447,2.017194,-4.1818256,1.7177377,-0.88603306
1747679352.6987054,0.41019922,-0.35156447,2.017194,-4.1818256,1.7177377,-0.88603306
1747679352.6992598,0.41019922,-0.35156447,2.017194,-4.1818256,1.7177377,-0.88603306
1747679352.6997843,0.41019922,-0.35156447,2.017194,-4.1818256,1.7177377,-0.88603306
1747679352.7003534,0.41019922,-0.35156447,2.017194,-4.1818256,1.7177377,-0.88603306
1747679352.7009048,0.41019922,-0.35156447,2.017194,-4.1818256,1.7177377,-0.88603306
1747679352.7014563,0.41019922,-0.35156447,2.017194,-4.1818256,1.7177377,-0.88603306
1747679352.7020063,0.41019922,-0.35156447,2.017194,-4.1818256,1.7177377,-0.88603306
1747679352.7025557,0.41019922,-0.35156447,2.017194,-4.1818256,1.7177377,-0.88603306
1747679352.7031057,0.41019922,-0.35156447,2.017194,-4.1818256,1.7177377,-0.88603306
1747679352.7036474,0.41019922,-0.35156447,2.017194,-4.1818256,1.7177377,-0.88603306
1747679352.7042756,0.41019922,-0.35156447,2.017194,-4.1818256,1.7177377,-0.88603306
1747679352.7048588,0.41019922,-0.35156447,2.017194,-4.1818256,1.7177377,-0.88603306
1747679352.705397,0.41019922,-0.35156447,2.017194,-3.621497,1.6314512,-0.87857616
1747679352.705992,0.34869677,-0.3457071,2.2060945,-3.621497,1.6314512,-0.87857616
1747679352.7065735,0.34869677,-0.3457071,2.2060945,-3.621497,1.6314512,-0.87857616
1747679352.7071812,0.34869677,-0.3457071,2.2060945,-3.621497,1.6314512,-0.87857616
1747679352.707669,0.34869677,-0.3457071,2.2060945,-3.621497,1.6314512,-0.87857616
1747679352.7082217,0.34869677,-0.3457071,2.2060945,-3.621497,1.6314512,-0.87857616
1747679352.7087622,0.34869677,-0.3457071,2.2060945,-3.621497,1.6314512,-0.87857616
1747679352.709311,0.34869677,-0.3457071,2.2060945,-3.621497,1.6314512,-0.87857616
1747679352.7098267,0.34869677,-0.3457071,2.2060945,-3.621497,1.6314512,-0.87857616
1747679352.7103674,0.34869677,-0.3457071,2.2060945,-3.621497,1.6314512,-0.87857616
1747679352.7109218,0.34869677,-0.3457071,2.2060945,-3.621497,1.6314512,-0.87857616
1747679352.7114754,0.34869677,-0.3457071,2.2060945,-3.621497,1.6314512,-0.87857616
1747679352.7120287,0.34869677,-0.3457071,2.2060945,-3.621497,1.6314512,-0.87857616
1747679352.712581,0.34869677,-0.3457071,2.2060945,-3.621497,1.6314512,-0.87857616
1747679352.7131314,0.34869677,-0.3457071,2.2060945,-3.621497,1.6314512,-0.87857616
1747679352.713685,0.34869677,-0.3457071,2.2060945,-3.621497,1.6314512,-0.87857616
1747679352.7142346,0.34869677,-0.3457071,2.2060945,-3.621497,1.6314512,-0.87857616
1747679352.7147863,0.34869677,-0.3457071,2.2060945,-3.621497,1.6314512,-0.87857616
1747679352.715339,0.34869677,-0.3457071,2.2060945,-3.621497,1.6314512,-0.87857616
1747679352.715891,0.34869677,-0.3457071,2.2060945,-3.621497,1.6314512,-0.87857616
1747679352.7164428,0.34869677,-0.3457071,2.2060945,-3.621497,1.6314512,-0.87857616
1747679352.7169948,0.34869677,-0.3457071,2.2060945,-3.621497,1.6314512,-0.87857616
1747679352.7175472,0.28182513,-0.09139944,2.4906654,-2.712827,1.0412952,-0.8167909
1747679352.7181,0.28182513,-0.09139944,2.4906654,-2.712827,1.0412952,-0.8167909
1747679352.718652,0.28182513,-0.09139944,2.4906654,-2.712827,1.0412952,-0.8167909
1747679352.719211,0.28182513,-0.09139944,2.4906654,-2.712827,1.0412952,-0.8167909
1747679352.7197623,0.28182513,-0.09139944,2.4906654,-2.712827,1.0412952,-0.8167909
1747679352.720749,0.28182513,-0.09139944,2.4906654,-2.712827,1.0412952,-0.8167909
1747679352.721326,0.32380295,0.1658369,2.6805418,-1.8393109,0.48522758,-0.6570014
1747679352.7218926,0.32380295,0.1658369,2.6805418,-1.8393109,0.48522758,-0.6570014
1747679352.7224116,0.32380295,0.1658369,2.6805418,-1.8393109,0.48522758,-0.6570014
1747679352.7229528,0.32380295,0.1658369,2.6805418,-1.8393109,0.48522758,-0.6570014
1747679352.7234967,0.32380295,0.1658369,2.6805418,-1.8393109,0.48522758,-0.6570014
1747679352.7240255,0.32380295,0.1658369,2.6805418,-1.8393109,0.48522758,-0.6570014
1747679352.7245462,0.32380295,0.1658369,2.6805418,-1.8393109,0.48522758,-0.6570014
1747679352.7250757,0.32380295,0.1658369,2.6805418,-1.8393109,0.48522758,-0.6570014
1747679352.725604,0.32380295,0.1658369,2.6805418,-1.8393109,0.48522758,-0.6570014
1747679352.7261446,0.32380295,0.1658369,2.6805418,-1.8393109,0.48522758,-0.6570014
1747679352.726673,0.32380295,0.1658369,2.6805418,-1.8393109,0.48522758,-0.6570014
1747679352.727215,0.32380295,0.1658369,2.6805418,-1.8393109,0.48522758,-0.6570014
1747679352.7277446,0.32380295,0.1658369,2.6805418,-1.8393109,0.48522758,-0.6570014
1747679352.7282739,0.32380295,0.1658369,2.6805418,-1.8393109,0.48522758,-0.6570014
1747679352.7288063,0.32380295,0.1658369,2.6805418,-1.8393109,0.48522758,-0.6570014
1747679352.7293339,0.32380295,0.1658369,2.6805418,-1.8393109,0.48522758,-0.6570014
1747679352.729894,0.32380295,0.1658369,2.6805418,-1.8393109,0.48522758,-0.6570014
1747679352.7304473,0.32380295,0.1658369,2.6805418,-1.8393109,0.48522758,-0.6570014
1747679352.7309992,0.32380295,0.1658369,2.6805418,-1.8393109,0.48522758,-0.6570014
1747679352.7315855,0.32380295,0.1658369,2.6805418,-1.8393109,0.48522758,-0.6570014
1747679352.7321048,0.32380295,0.1658369,2.6805418,-1.8393109,0.48522758,-0.6570014
1747679352.7326567,0.558586,0.40891793,2.698114,-0.9872331,0.23382537,-0.5568666
1747679352.7332065,0.558586,0.40891793,2.698114,-0.9872331,0.23382537,-0.5568666
1747679352.7337577,0.558586,0.40891793,2.698114,-0.9872331,0.23382537,-0.5568666
1747679352.7343104,0.558586,0.40891793,2.698114,-0.9872331,0.23382537,-0.5568666
1747679352.734906,0.558586,0.40891793,2.698114,-0.9872331,0.23382537,-0.5568666
1747679352.7354698,0.558586,0.40891793,2.698114,-0.9872331,0.23382537,-0.5568666
1747679352.7361224,0.558586,0.40891793,2.698114,-0.9872331,0.23382537,-0.5568666
1747679352.7366822,0.558586,0.40891793,2.698114,-0.9872331,0.23382537,-0.5568666
1747679352.7372293,0.558586,0.40891793,2.698114,-0.9872331,0.23382537,-0.5568666
1747679352.737777,0.558586,0.40891793,2.698114,-0.9872331,0.23382537,-0.5568666
1747679352.7384243,0.558586,0.40891793,2.698114,-0.9872331,0.23382537,-0.5568666
1747679352.738991,0.558586,0.40891793,2.698114,-0.9872331,0.23382537,-0.5568666
1747679352.7395525,0.558586,0.40891793,2.698114,-0.9872331,0.23382537,-0.5568666
1747679352.740112,0.558586,0.40891793,2.698114,-0.9872331,0.23382537,-0.5568666
1747679352.7406688,0.79922646,0.6461415,2.5653467,-0.9872331,0.23382537,-0.5568666
1747679352.7412224,0.79922646,0.6461415,2.5653467,-0.9872331,0.23382537,-0.5568666
1747679352.741795,0.79922646,0.6461415,2.5653467,-0.9872331,0.23382537,-0.5568666
1747679352.7423673,0.79922646,0.6461415,2.5653467,-0.2926812,0.32011172,-0.56219286
1747679352.7428827,0.79922646,0.6461415,2.5653467,-0.2926812,0.32011172,-0.56219286
1747679352.7434273,0.79922646,0.6461415,2.5653467,-0.2926812,0.32011172,-0.56219286
1747679352.7439604,0.79922646,0.6461415,2.5653467,-0.2926812,0.32011172,-0.56219286
1747679352.7444763,0.79922646,0.6461415,2.5653467,-0.2926812,0.32011172,-0.56219286
1747679352.7450533,0.79922646,0.6461415,2.5653467,-0.2926812,0.32011172,-0.56219286
1747679352.7456071,0.79922646,0.6461415,2.5653467,-0.2926812,0.32011172,-0.56219286
1747679352.746159,0.79922646,0.6461415,2.5653467,-0.2926812,0.32011172,-0.56219286
1747679352.7467105,0.79922646,0.6461415,2.5653467,-0.2926812,0.32011172,-0.56219286
1747679352.7472649,0.79922646,0.6461415,2.5653467,-0.2926812,0.32011172,-0.56219286
1747679352.747815,0.79922646,0.6461415,2.5653467,-0.2926812,0.32011172,-0.56219286
1747679352.7483635,0.79922646,0.6461415,2.5653467,-0.2926812,0.32011172,-0.56219286
1747679352.7489088,0.79922646,0.6461415,2.5653467,-0.2926812,0.32011172,-0.56219286
1747679352.7494595,0.79922646,0.6461415,2.5653467,-0.2926812,0.32011172,-0.56219286
1747679352.7500494,0.79922646,0.6461415,2.5653467,-0.2926812,0.32011172,-0.56219286
1747679352.7506,0.79922646,0.6461415,2.5653467,-0.2926812,0.32011172,-0.56219286
1747679352.7511766,0.79922646,0.6461415,2.5653467,-0.2926812,0.32011172,-0.56219286
1747679352.7523108,0.79922646,0.6461415,2.5653467,0.07270424,0.58216655,-0.728374
1747679352.7531917,1.137978,0.84529227,2.2880976,0.07270424,0.58216655,-0.728374
1747679352.7537656,1.137978,0.84529227,2.2880976,0.07270424,0.58216655,-0.728374
1747679352.754295,1.137978,0.84529227,2.2880976,0.07270424,0.58216655,-0.728374
1747679352.7548435,1.137978,0.84529227,2.2880976,0.07270424,0.58216655,-0.728374
1747679352.7553873,1.137978,0.84529227,2.2880976,0.07270424,0.58216655,-0.728374
1747679352.7559302,1.137978,0.84529227,2.2880976,0.07270424,0.58216655,-0.728374
1747679352.7564716,1.137978,0.84529227,2.2880976,0.07270424,0.58216655,-0.728374
1747679352.757013,1.137978,0.84529227,2.2880976,0.07270424,0.58216655,-0.728374
1747679352.7575552,1.137978,0.84529227,2.2880976,0.07270424,0.58216655,-0.728374
1747679352.7580974,1.137978,0.84529227,2.2880976,0.07270424,0.58216655,-0.728374
1747679352.7586396,1.137978,0.84529227,2.2880976,0.07270424,0.58216655,-0.728374
1747679352.7591853,1.137978,0.84529227,2.2880976,0.07270424,0.58216655,-0.728374
1747679352.7597456,1.137978,0.84529227,2.2880976,0.07270424,0.58216655,-0.728374
1747679352.7602673,1.137978,0.84529227,2.2880976,0.07270424,0.58216655,-0.728374
1747679352.7608302,1.137978,0.84529227,2.2880976,0.07270424,0.58216655,-0.728374
1747679352.7613935,1.137978,0.84529227,2.2880976,0.07270424,0.58216655,-0.728374
1747679352.7619584,1.137978,0.84529227,2.2880976,0.07270424,0.58216655,-0.728374
1747679352.762523,1.137978,0.84529227,2.2880976,0.07270424,0.58216655,-0.728374
1747679352.7630875,1.137978,0.84529227,2.2880976,0.07270424,0.58216655,-0.728374
1747679352.76369,1.137978,0.84529227,2.2880976,0.07270424,0.58216655,-0.728374
1747679352.7642374,1.137978,0.84529227,2.2880976,0.07270424,0.58216655,-0.728374
1747679352.764757,1.137978,0.84529227,2.2880976,0.07270424,0.58216655,-0.728374
1747679352.7653053,1.4498831,0.9868455,2.063565,0.032224227,0.7366298,-1.1672627
1747679352.7658217,1.4498831,0.9868455,2.063565,0.032224227,0.7366298,-1.1672627
1747679352.7663848,1.4498831,0.9868455,2.063565,0.032224227,0.7366298,-1.1672627
1747679352.7675478,1.4498831,0.9868455,2.063565,0.032224227,0.7366298,-1.1672627
1747679352.7681332,1.4498831,0.9868455,2.063565,0.032224227,0.7366298,-1.1672627
1747679352.7686958,1.4498831,0.9868455,2.063565,0.032224227,0.7366298,-1.1672627
1747679352.7703838,1.4498831,0.9868455,2.063565,0.032224227,0.7366298,-1.1672627
1747679352.770943,1.4498831,0.9868455,2.063565,0.032224227,0.7366298,-1.1672627
1747679352.7714777,1.4498831,0.9868455,2.063565,0.032224227,0.7366298,-1.1672627
1747679352.7719982,1.4498831,0.9868455,2.063565,0.032224227,0.7366298,-1.1672627
1747679352.7725172,1.4498831,0.9868455,2.063565,0.032224227,0.7366298,-1.1672627
1747679352.7730362,1.5577563,1.0185729,1.9654541,-0.4588623,0.7749793,-1.8511618
1747679352.7735918,1.5577563,1.0185729,1.9654541,-0.4588623,0.7749793,-1.8511618
1747679352.7741568,1.5577563,1.0185729,1.9654541,-0.4588623,0.7749793,-1.8511618
1747679352.774686,1.5577563,1.0185729,1.9654541,-0.4588623,0.7749793,-1.8511618
1747679352.7752073,1.5577563,1.0185729,1.9654541,-0.4588623,0.7749793,-1.8511618
1747679352.7757263,1.5577563,1.0185729,1.9654541,-0.4588623,0.7749793,-1.8511618
1747679352.7762456,1.5577563,1.0185729,1.9654541,-0.4588623,0.7749793,-1.8511618
1747679352.7767644,1.5577563,1.0185729,1.9654541,-0.4588623,0.7749793,-1.8511618
1747679352.777283,1.5577563,1.0185729,1.9654541,-0.4588623,0.7749793,-1.8511618
1747679352.7778015,1.5577563,1.0185729,1.9654541,-0.4588623,0.7749793,-1.8511618
1747679352.7783203,1.5577563,1.0185729,1.9654541,-0.4588623,0.7749793,-1.8511618
1747679352.7788389,1.5577563,1.0185729,1.9654541,-0.4588623,0.7749793,-1.8511618
1747679352.779357,1.5577563,1.0185729,1.9654541,-0.4588623,0.7749793,-1.8511618
1747679352.7798753,1.5577563,1.0185729,1.9654541,-0.4588623,0.7749793,-1.8511618
1747679352.7803943,1.5577563,1.0185729,1.9654541,-0.4588623,0.7749793,-1.8511618
1747679352.7809124,1.5577563,1.0185729,1.9654541,-0.4588623,0.7749793,-1.8511618
1747679352.781431,1.5577563,1.0185729,1.9654541,-0.4588623,0.7749793,-1.8511618
1747679352.7819934,1.5577563,1.0185729,1.9654541,-0.4588623,0.7749793,-1.8511618
1747679352.7825522,1.5577563,1.0185729,1.9654541,-0.4588623,0.7749793,-1.8511618
1747679352.7831137,1.5240765,0.8677455,2.071863,-1.072321,0.9582046,-2.3390527
1747679352.7836702,1.5240765,0.8677455,2.071863,-1.072321,0.9582046,-2.3390527
1747679352.7842255,1.5240765,0.8677455,2.071863,-1.072321,0.9582046,-2.3390527
1747679352.78477,1.5240765,0.8677455,2.071863,-1.072321,0.9582046,-2.3390527
1747679352.7853065,1.5240765,0.8677455,2.071863,-1.072321,0.9582046,-2.3390527
1747679352.7858288,1.5240765,0.8677455,2.071863,-1.072321,0.9582046,-2.3390527
1747679352.7863503,1.5240765,0.8677455,2.071863,-1.072321,0.9582046,-2.3390527
1747679352.786872,1.5240765,0.8677455,2.071863,-1.072321,0.9582046,-2.3390527
1747679352.7873933,1.5240765,0.8677455,2.071863,-1.072321,0.9582046,-2.3390527
1747679352.787915,1.5240765,0.8677455,2.071863,-1.072321,0.9582046,-2.3390527
1747679352.7884362,1.5240765,0.8677455,2.071863,-1.072321,0.9582046,-2.3390527
1747679352.7889574,1.5240765,0.8677455,2.071863,-1.072321,0.9582046,-2.3390527
1747679352.789479,1.5240765,0.8677455,2.071863,-1.072321,0.9582046,-2.3390527
1747679352.7900002,1.5240765,0.8677455,2.071863,-1.072321,0.9582046,-2.3390527
1747679352.7905211,1.5240765,0.8677455,2.071863,-1.072321,0.9582046,-2.3390527
1747679352.791066,1.5240765,0.8677455,2.071863,-1.072321,0.9582046,-2.3390527
1747679352.791593,1.5240765,0.8677455,2.071863,-1.072321,0.9582046,-2.3390527
1747679352.7921147,1.5240765,0.8677455,2.071863,-1.072321,0.9582046,-2.3390527
1747679352.7926369,1.3312713,0.49043304,2.5990267,-1.072321,0.9582046,-2.3390527
1747679352.7931583,1.3312713,0.49043304,2.5990267,-1.072321,0.9582046,-2.3390527
1747679352.7936804,1.3312713,0.49043304,2.5990267,-1.6550202,1.0817752,-2.6383917
1747679352.7942145,1.3312713,0.49043304,2.5990267,-1.6550202,1.0817752,-2.6383917
1747679352.7947545,1.3312713,0.49043304,2.5990267,-1.6550202,1.0817752,-2.6383917
1747679352.7952783,1.3312713,0.49043304,2.5990267,-1.6550202,1.0817752,-2.6383917
1747679352.7957997,1.3312713,0.49043304,2.5990267,-1.6550202,1.0817752,-2.6383917
1747679352.796321,1.3312713,0.49043304,2.5990267,-1.6550202,1.0817752,-2.6383917
1747679352.7968886,1.3312713,0.49043304,2.5990267,-1.6550202,1.0817752,-2.6383917
1747679352.7974255,1.3312713,0.49043304,2.5990267,-1.6550202,1.0817752,-2.6383917
1747679352.798612,1.3312713,0.49043304,2.5990267,-1.6550202,1.0817752,-2.6383917
1747679352.7990022,1.3312713,0.49043304,2.5990267,-1.6550202,1.0817752,-2.6383917
1747679352.800522,1.3312713,0.49043304,2.5990267,-1.6550202,1.0817752,-2.6383917
1747679352.8010845,1.3312713,0.49043304,2.5990267,-1.6550202,1.0817752,-2.6383917
1747679352.8016415,1.3312713,0.49043304,2.5990267,-1.6550202,1.0817752,-2.6383917
1747679352.8021805,1.3312713,0.49043304,2.5990267,-1.6550202,1.0817752,-2.6383917
1747679352.8027308,1.3312713,0.49043304,2.5990267,-1.6550202,1.0817752,-2.6383917
1747679352.8032808,1.3312713,0.49043304,2.5990267,-1.6550202,1.0817752,-2.6383917
1747679352.8038132,1.3312713,0.49043304,2.5990267,-1.6550202,1.0817752,-2.6383917
1747679352.8043451,1.3312713,0.49043304,2.5990267,-1.6550202,1.0817752,-2.6383917
1747679352.8048708,1.193623,0.3313077,3.0158763,-1.8904434,1.1318426,-2.6884592
1747679352.8053923,1.193623,0.3313077,3.0158763,-1.8904434,1.1318426,-2.6884592
1747679352.8059113,1.193623,0.3313077,3.0158763,-1.8904434,1.1318426,-2.6884592
1747679352.80643,1.193623,0.3313077,3.0158763,-1.8904434,1.1318426,-2.6884592
1747679352.806949,1.193623,0.3313077,3.0158763,-1.8904434,1.1318426,-2.6884592
1747679352.8074672,1.193623,0.3313077,3.0158763,-1.8904434,1.1318426,-2.6884592
1747679352.8079858,1.193623,0.3313077,3.0158763,-1.8904434,1.1318426,-2.6884592
1747679352.8085043,1.193623,0.3313077,3.0158763,-1.8904434,1.1318426,-2.6884592
1747679352.8090231,1.193623,0.3313077,3.0158763,-1.8904434,1.1318426,-2.6884592
1747679352.809542,1.193623,0.3313077,3.0158763,-1.8904434,1.1318426,-2.6884592
1747679352.8100605,1.193623,0.3313077,3.0158763,-1.8904434,1.1318426,-2.6884592
1747679352.8105793,1.193623,0.3313077,3.0158763,-1.8904434,1.1318426,-2.6884592
1747679352.8110979,1.193623,0.3313077,3.0158763,-1.8904434,1.1318426,-2.6884592
1747679352.8116164,1.193623,0.3313077,3.0158763,-1.8904434,1.1318426,-2.6884592
1747679352.8121853,1.193623,0.3313077,3.0158763,-1.8904434,1.1318426,-2.6884592
1747679352.8127363,1.193623,0.3313077,3.0158763,-1.8904434,1.1318426,-2.6884592
1747679352.8132854,1.193623,0.3313077,3.0158763,-1.8904434,1.1318426,-2.6884592
1747679352.8138554,1.193623,0.3313077,3.0158763,-1.8904434,1.1318426,-2.6884592
1747679352.814517,1.193623,0.3313077,3.0158763,-1.8904434,1.1318426,-2.6884592
1747679352.815075,1.193623,0.3313077,3.0158763,-1.8904434,1.1318426,-2.6884592
1747679352.8156211,1.1321205,0.05845171,3.9413416,-1.8904434,1.1318426,-2.6884592
1747679352.816159,1.1321205,0.05845171,3.9413416,-1.8904434,1.1318426,-2.6884592
1747679352.8166974,1.1321205,0.05845171,3.9413416,-1.9330541,1.10095,-2.384859
1747679352.8172457,1.1321205,0.05845171,3.9413416,-1.9330541,1.10095,-2.384859
1747679352.81779,1.1321205,0.05845171,3.9413416,-1.9330541,1.10095,-2.384859
1747679352.8183184,1.1321205,0.05845171,3.9413416,-1.9330541,1.10095,-2.384859
1747679352.8188393,1.1321205,0.05845171,3.9413416,-1.9330541,1.10095,-2.384859
1747679352.819358,1.1321205,0.05845171,3.9413416,-1.9330541,1.10095,-2.384859
1747679352.8198771,1.1321205,0.05845171,3.9413416,-1.9330541,1.10095,-2.384859
1747679352.8203955,1.1321205,0.05845171,3.9413416,-1.9330541,1.10095,-2.384859
1747679352.820914,1.1321205,0.05845171,3.9413416,-1.9330541,1.10095,-2.384859
1747679352.8214326,1.1321205,0.05845171,3.9413416,-1.9330541,1.10095,-2.384859
1747679352.8219514,1.1321205,0.05845171,3.9413416,-1.9330541,1.10095,-2.384859
1747679352.8224702,1.1321205,0.05845171,3.9413416,-1.9330541,1.10095,-2.384859
1747679352.8229887,1.1321205,0.05845171,3.9413416,-1.9330541,1.10095,-2.384859
1747679352.8235073,1.1321205,0.05845171,3.9413416,-1.9330541,1.10095,-2.384859
1747679352.8240602,1.1321205,0.05845171,3.9413416,-1.9330541,1.10095,-2.384859
1747679352.8246174,1.1321205,0.05845171,3.9413416,-1.9330541,1.10095,-2.384859
1747679352.8251405,1.1321205,0.05845171,3.9413416,-1.9330541,1.10095,-2.384859
1747679352.8256593,1.1321205,0.05845171,3.9413416,-1.9330541,1.10095,-2.384859
1747679352.8261778,1.1321205,0.05845171,3.9413416,-1.9330541,1.10095,-2.384859
1747679352.826697,1.6212113,-0.26175138,4.5378175,-1.9330541,1.10095,-2.384859
1747679352.8272488,1.6212113,-0.26175138,4.5378175,-1.5069486,1.1307774,-2.0077558
1747679352.827796,1.6212113,-0.26175138,4.5378175,-1.5069486,1.1307774,-2.0077558
1747679352.8283474,1.6212113,-0.26175138,4.5378175,-1.5069486,1.1307774,-2.0077558
1747679352.8289132,1.6212113,-0.26175138,4.5378175,-1.5069486,1.1307774,-2.0077558
1747679352.8294785,1.6212113,-0.26175138,4.5378175,-1.5069486,1.1307774,-2.0077558
1747679352.8300393,1.6212113,-0.26175138,4.5378175,-1.5069486,1.1307774,-2.0077558
1747679352.8306212,1.6212113,-0.26175138,4.5378175,-1.5069486,1.1307774,-2.0077558
1747679352.831152,1.6212113,-0.26175138,4.5378175,-1.5069486,1.1307774,-2.0077558
1747679352.8316717,1.6212113,-0.26175138,4.5378175,-1.5069486,1.1307774,-2.0077558
1747679352.8321934,1.6212113,-0.26175138,4.5378175,-1.5069486,1.1307774,-2.0077558
1747679352.8327138,1.6212113,-0.26175138,4.5378175,-1.5069486,1.1307774,-2.0077558
1747679352.8332329,1.6212113,-0.26175138,4.5378175,-1.5069486,1.1307774,-2.0077558
1747679352.8337522,1.6212113,-0.26175138,4.5378175,-1.5069486,1.1307774,-2.0077558
1747679352.8343027,1.6212113,-0.26175138,4.5378175,-1.5069486,1.1307774,-2.0077558
1747679352.8348613,1.6212113,-0.26175138,4.5378175,-1.5069486,1.1307774,-2.0077558
1747679352.835393,1.9721656,-0.5258213,4.936607,-1.5069486,1.1307774,-2.0077558
1747679352.835915,1.9721656,-0.5258213,4.936607,-0.590955,1.9084198,-1.7499619
1747679352.8364346,1.9721656,-0.5258213,4.936607,-0.590955,1.9084198,-1.7499619
1747679352.836954,1.9721656,-0.5258213,4.936607,-0.590955,1.9084198,-1.7499619
1747679352.83752,1.9721656,-0.5258213,4.936607,-0.590955,1.9084198,-1.7499619
1747679352.8380406,1.9721656,-0.5258213,4.936607,-0.590955,1.9084198,-1.7499619
1747679352.83856,1.9721656,-0.5258213,4.936607,-0.590955,1.9084198,-1.7499619
1747679352.839079,1.9721656,-0.5258213,4.936607,-0.590955,1.9084198,-1.7499619
1747679352.8395982,1.9721656,-0.5258213,4.936607,-0.590955,1.9084198,-1.7499619
1747679352.8401172,1.9721656,-0.5258213,4.936607,-0.590955,1.9084198,-1.7499619
1747679352.8406363,1.9721656,-0.5258213,4.936607,-0.590955,1.9084198,-1.7499619
1747679352.8411553,2.21183,-0.67372006,5.1728544,-0.590955,1.9084198,-1.7499619
1747679352.841675,2.21183,-0.67372006,5.1728544,0.2175801,2.4410517,-1.6231955
1747679352.8421938,2.21183,-0.67372006,5.1728544,0.2175801,2.4410517,-1.6231955
1747679352.8427305,2.21183,-0.67372006,5.1728544,0.2175801,2.4410517,-1.6231955
1747679352.8432715,2.21183,-0.67372006,5.1728544,0.2175801,2.4410517,-1.6231955
1747679352.843806,2.21183,-0.67372006,5.1728544,0.2175801,2.4410517,-1.6231955
1747679352.844346,2.21183,-0.67372006,5.1728544,0.2175801,2.4410517,-1.6231955
1747679352.8449035,2.21183,-0.67372006,5.1728544,0.2175801,2.4410517,-1.6231955
1747679352.8454607,2.21183,-0.67372006,5.1728544,0.2175801,2.4410517,-1.6231955
1747679352.8459964,2.21183,-0.67372006,5.1728544,0.2175801,2.4410517,-1.6231955
1747679352.846516,2.21183,-0.67372006,5.1728544,0.2175801,2.4410517,-1.6231955
1747679352.8470347,2.21183,-0.67372006,5.1728544,0.2175801,2.4410517,-1.6231955
1747679352.847554,2.21183,-0.67372006,5.1728544,0.2175801,2.4410517,-1.6231955
1747679352.8480728,2.21183,-0.67372006,5.1728544,0.2175801,2.4410517,-1.6231955
1747679352.8485918,2.21183,-0.67372006,5.1728544,0.2175801,2.4410517,-1.6231955
1747679352.8491108,2.21183,-0.67372006,5.1728544,0.2175801,2.4410517,-1.6231955
1747679352.8496296,2.21183,-0.67372006,5.1728544,0.2175801,2.4410517,-1.6231955
1747679352.850149,2.21183,-0.67372006,5.1728544,0.2175801,2.4410517,-1.6231955
1747679352.8506677,2.21183,-0.67372006,5.1728544,0.2175801,2.4410517,-1.6231955
1747679352.8511872,2.272356,-0.7762241,5.1767592,0.2175801,2.4410517,-1.6231955
1747679352.851706,2.272356,-0.7762241,5.1767592,0.2175801,2.4410517,-1.6231955
1747679352.852225,2.272356,-0.7762241,5.1767592,0.2175801,2.4410517,-1.6231955
1747679352.8527436,2.272356,-0.7762241,5.1767592,0.2175801,2.4410517,-1.6231955
1747679352.8532622,2.272356,-0.7762241,5.1767592,0.2175801,2.4410517,-1.6231955
1747679352.8537812,2.272356,-0.7762241,5.1767592,1.405349,2.8714182,-1.5177344
1747679352.854333,2.272356,-0.7762241,5.1767592,1.405349,2.8714182,-1.5177344
1747679352.8548956,2.272356,-0.7762241,5.1767592,1.405349,2.8714182,-1.5177344
1747679352.8554256,2.272356,-0.7762241,5.1767592,1.405349,2.8714182,-1.5177344
1747679352.855946,2.272356,-0.7762241,5.1767592,1.405349,2.8714182,-1.5177344
1747679352.8564644,2.272356,-0.7762241,5.1767592,1.405349,2.8714182,-1.5177344
1747679352.856983,2.272356,-0.7762241,5.1767592,1.405349,2.8714182,-1.5177344
1747679352.8575277,2.272356,-0.7762241,5.1767592,1.405349,2.8714182,-1.5177344
1747679352.8580794,2.272356,-0.7762241,5.1767592,1.405349,2.8714182,-1.5177344
1747679352.8586092,2.272356,-0.7762241,5.1767592,1.405349,2.8714182,-1.5177344
1747679352.8592117,2.272356,-0.7762241,5.1767592,1.405349,2.8714182,-1.5177344
1747679352.8597662,2.272356,-0.7762241,5.1767592,1.405349,2.8714182,-1.5177344
1747679352.8603272,2.272356,-0.7762241,5.1767592,1.405349,2.8714182,-1.5177344
1747679352.860997,2.272356,-0.7762241,5.1767592,1.405349,2.8714182,-1.5177344
1747679352.8615327,2.272356,-0.7762241,5.1767592,1.405349,2.8714182,-1.5177344
1747679352.862055,2.272356,-0.7762241,5.1767592,1.405349,2.8714182,-1.5177344
1747679352.8625743,2.272356,-0.7762241,5.1767592,1.405349,2.8714182,-1.5177344
1747679352.8630939,2.2362356,-0.7640212,4.881938,2.5867264,3.0961888,-1.4559491
1747679352.8636467,2.2362356,-0.7640212,4.881938,2.5867264,3.0961888,-1.4559491
1747679352.8642046,2.2362356,-0.7640212,4.881938,2.5867264,3.0961888,-1.4559491
1747679352.8647273,2.2362356,-0.7640212,4.881938,2.5867264,3.0961888,-1.4559491
1747679352.8652468,2.2362356,-0.7640212,4.881938,2.5867264,3.0961888,-1.4559491
1747679352.8657653,2.2362356,-0.7640212,4.881938,2.5867264,3.0961888,-1.4559491
1747679352.866284,2.2362356,-0.7640212,4.881938,2.5867264,3.0961888,-1.4559491
1747679352.8668022,2.2362356,-0.7640212,4.881938,2.5867264,3.0961888,-1.4559491
1747679352.8673205,2.2362356,-0.7640212,4.881938,2.5867264,3.0961888,-1.4559491
1747679352.8678389,2.2362356,-0.7640212,4.881938,2.5867264,3.0961888,-1.4559491
1747679352.868358,2.2362356,-0.7640212,4.881938,2.5867264,3.0961888,-1.4559491
1747679352.8688765,2.2362356,-0.7640212,4.881938,2.5867264,3.0961888,-1.4559491
1747679352.8693957,2.2362356,-0.7640212,4.881938,2.5867264,3.0961888,-1.4559491
1747679352.8699145,2.2362356,-0.7640212,4.881938,2.5867264,3.0961888,-1.4559491
1747679352.8704333,2.2362356,-0.7640212,4.881938,2.5867264,3.0961888,-1.4559491
1747679352.870952,2.2362356,-0.7640212,4.881938,2.5867264,3.0961888,-1.4559491
1747679352.871474,2.2362356,-0.7640212,4.881938,2.5867264,3.0961888,-1.4559491
1747679352.8719954,2.2362356,-0.7640212,4.881938,2.5867264,3.0961888,-1.4559491
1747679352.872515,2.2499027,-0.65614796,4.3459883,3.7617123,3.3497214,-1.3941638
1747679352.8730514,2.2499027,-0.65614796,4.3459883,3.7617123,3.3497214,-1.3941638
1747679352.8735857,2.2499027,-0.65614796,4.3459883,3.7617123,3.3497214,-1.3941638
1747679352.8741293,2.2499027,-0.65614796,4.3459883,3.7617123,3.3497214,-1.3941638
1747679352.87467,2.2499027,-0.65614796,4.3459883,3.7617123,3.3497214,-1.3941638
1747679352.875192,2.2499027,-0.65614796,4.3459883,3.7617123,3.3497214,-1.3941638
1747679352.8757105,2.2499027,-0.65614796,4.3459883,3.7617123,3.3497214,-1.3941638
1747679352.876232,2.2499027,-0.65614796,4.3459883,3.7617123,3.3497214,-1.3941638
1747679352.8767867,2.2499027,-0.65614796,4.3459883,3.7617123,3.3497214,-1.3941638
1747679352.8773448,2.2499027,-0.65614796,4.3459883,3.7617123,3.3497214,-1.3941638
1747679352.8778799,2.2499027,-0.65614796,4.3459883,3.7617123,3.3497214,-1.3941638
1747679352.8784,2.2499027,-0.65614796,4.3459883,3.7617123,3.3497214,-1.3941638
1747679352.8789191,2.2499027,-0.65614796,4.3459883,3.7617123,3.3497214,-1.3941638
1747679352.879438,2.2499027,-0.65614796,4.3459883,3.7617123,3.3497214,-1.3941638
1747679352.8799572,2.2499027,-0.65614796,4.3459883,3.7617123,3.3497214,-1.3941638
1747679352.8804762,2.2499027,-0.65614796,4.3459883,3.7617123,3.3497214,-1.3941638
1747679352.8809948,2.2499027,-0.65614796,4.3459883,3.7617123,3.3497214,-1.3941638
1747679352.881513,2.2499027,-0.65614796,4.3459883,3.7617123,3.3497214,-1.3941638
1747679352.8820338,2.2499027,-0.65614796,4.3459883,3.7617123,3.3497214,-1.3941638
1747679352.8825548,2.2499027,-0.65614796,4.3459883,3.7617123,3.3497214,-1.3941638
1747679352.883074,2.2499027,-0.65614796,4.3459883,3.7617123,3.3497214,-1.3941638
1747679352.8835957,2.2499027,-0.65614796,4.3459883,3.7617123,3.3497214,-1.3941638
1747679352.8841174,2.2499027,-0.65614796,4.3459883,3.7617123,3.3497214,-1.3941638
1747679352.8846555,2.2499027,-0.65614796,4.3459883,3.7617123,3.3497214,-1.3941638
1747679352.8852105,2.2499027,-0.65614796,4.3459883,3.7617123,3.3497214,-1.3941638
1747679352.8857381,2.2909043,-0.59318113,3.7495124,4.39874,3.658648,-1.4378396
1747679352.88626,2.2909043,-0.59318113,3.7495124,4.39874,3.658648,-1.4378396
1747679352.8867815,2.2909043,-0.59318113,3.7495124,4.39874,3.658648,-1.4378396
1747679352.8873026,2.2909043,-0.59318113,3.7495124,4.39874,3.658648,-1.4378396
1747679352.8878496,2.2909043,-0.59318113,3.7495124,4.39874,3.658648,-1.4378396
1747679352.8884172,2.2909043,-0.59318113,3.7495124,4.39874,3.658648,-1.4378396
1747679352.8889732,2.2909043,-0.59318113,3.7495124,4.39874,3.658648,-1.4378396
1747679352.8895094,2.2909043,-0.59318113,3.7495124,4.39874,3.658648,-1.4378396
1747679352.89005,2.2909043,-0.59318113,3.7495124,4.39874,3.658648,-1.4378396
1747679352.8905861,2.2909043,-0.59318113,3.7495124,4.39874,3.658648,-1.4378396
1747679352.8911085,2.2909043,-0.59318113,3.7495124,4.39874,3.658648,-1.4378396
1747679352.8916335,2.2909043,-0.59318113,3.7495124,4.39874,3.658648,-1.4378396
1747679352.8921866,2.2909043,-0.59318113,3.7495124,4.39874,3.658648,-1.4378396
1747679352.892746,2.2909043,-0.59318113,3.7495124,4.39874,3.658648,-1.4378396
1747679352.8932831,2.2835827,-0.57609713,3.3321745,4.39874,3.658648,-1.4378396
1747679352.8938224,2.2835827,-0.57609713,3.3321745,4.39874,3.658648,-1.4378396
1747679352.8943775,2.2835827,-0.57609713,3.3321745,4.5862265,3.937747,-1.4666017
1747679352.894905,2.2835827,-0.57609713,3.3321745,4.5862265,3.937747,-1.4666017
1747679352.8954508,2.2835827,-0.57609713,3.3321745,4.5862265,3.937747,-1.4666017
1747679352.8959732,2.2835827,-0.57609713,3.3321745,4.5862265,3.937747,-1.4666017
1747679352.8964949,2.2835827,-0.57609713,3.3321745,4.5862265,3.937747,-1.4666017
1747679352.8970163,2.2835827,-0.57609713,3.3321745,4.5862265,3.937747,-1.4666017
1747679352.8975377,2.2835827,-0.57609713,3.3321745,4.5862265,3.937747,-1.4666017
1747679352.8980594,2.2835827,-0.57609713,3.3321745,4.5862265,3.937747,-1.4666017
1747679352.898584,2.2835827,-0.57609713,3.3321745,4.5862265,3.937747,-1.4666017
1747679352.8990917,2.2835827,-0.57609713,3.3321745,4.5862265,3.937747,-1.4666017
1747679352.8996115,2.2835827,-0.57609713,3.3321745,4.5862265,3.937747,-1.4666017
1747679352.90013,2.2835827,-0.57609713,3.3321745,4.5862265,3.937747,-1.4666017
1747679352.9006486,2.2835827,-0.57609713,3.3321745,4.5862265,3.937747,-1.4666017
1747679352.9011674,2.2835827,-0.57609713,3.3321745,4.5862265,3.937747,-1.4666017
1747679352.901686,2.2835827,-0.57609713,3.3321745,4.5862265,3.937747,-1.4666017
1747679352.9022045,2.2835827,-0.57609713,3.3321745,4.5862265,3.937747,-1.4666017
1747679352.9027383,2.2835827,-0.57609713,3.3321745,4.5862265,3.937747,-1.4666017
1747679352.903282,2.2835827,-0.57609713,3.3321745,4.5862265,3.937747,-1.4666017
1747679352.9038157,2.2835827,-0.57609713,3.3321745,4.5862265,3.937747,-1.4666017
1747679352.9043553,2.2142706,-0.5965979,2.715686,4.5862265,3.937747,-1.4666017
1747679352.9048955,2.2142706,-0.5965979,2.715686,4.5862265,3.937747,-1.4666017
1747679352.9054174,2.2142706,-0.5965979,2.715686,4.5862265,3.937747,-1.4666017
1747679352.9059367,2.2142706,-0.5965979,2.715686,4.5862265,3.937747,-1.4666017
1747679352.9064558,2.2142706,-0.5965979,2.715686,4.536159,4.4565306,-1.512408
1747679352.906977,2.2142706,-0.5965979,2.715686,4.536159,4.4565306,-1.512408
1747679352.9075286,2.2142706,-0.5965979,2.715686,4.536159,4.4565306,-1.512408
1747679352.908085,2.2142706,-0.5965979,2.715686,4.536159,4.4565306,-1.512408
1747679352.9086194,2.2142706,-0.5965979,2.715686,4.536159,4.4565306,-1.512408
1747679352.9091392,2.2142706,-0.5965979,2.715686,4.536159,4.4565306,-1.512408
1747679352.9096582,2.2142706,-0.5965979,2.715686,4.536159,4.4565306,-1.512408
1747679352.910177,2.2142706,-0.5965979,2.715686,4.536159,4.4565306,-1.512408
1747679352.9106953,2.2142706,-0.5965979,2.715686,4.536159,4.4565306,-1.512408
1747679352.9112144,2.2142706,-0.5965979,2.715686,4.536159,4.4565306,-1.512408
1747679352.911733,2.2142706,-0.5965979,2.715686,4.536159,4.4565306,-1.512408
1747679352.9122517,2.2142706,-0.5965979,2.715686,4.536159,4.4565306,-1.512408
1747679352.9127705,2.2142706,-0.5965979,2.715686,4.536159,4.4565306,-1.512408
1747679352.9132895,2.2142706,-0.5965979,2.715686,4.536159,4.4565306,-1.512408
1747679352.9138284,2.2142706,-0.5965979,2.715686,4.536159,4.4565306,-1.512408
1747679352.9143753,2.2142706,-0.5965979,2.715686,4.536159,4.4565306,-1.512408
1747679352.9149,2.2142706,-0.5965979,2.715686,4.536159,4.4565306,-1.512408
1747679352.9154198,2.2142706,-0.5965979,2.715686,4.2314935,4.9902277,-1.4932333
1747679352.915939,2.2142706,-0.5965979,2.715686,4.2314935,4.9902277,-1.4932333
1747679352.916458,2.2142706,-0.5965979,2.715686,4.2314935,4.9902277,-1.4932333
1747679352.916977,2.2142706,-0.5965979,2.715686,4.2314935,4.9902277,-1.4932333
1747679352.9174957,2.2142706,-0.5965979,2.715686,4.2314935,4.9902277,-1.4932333
1747679352.9180784,2.2142706,-0.5965979,2.715686,4.2314935,4.9902277,-1.4932333
1747679352.9186437,2.2142706,-0.5965979,2.715686,4.2314935,4.9902277,-1.4932333
1747679352.9191856,2.0273225,-0.5809783,2.348136,4.2314935,4.9902277,-1.4932333
1747679352.9197574,2.0273225,-0.5809783,2.348136,4.2314935,4.9902277,-1.4932333
1747679352.9202998,2.0273225,-0.5809783,2.348136,4.2314935,4.9902277,-1.4932333
1747679352.9208333,2.0273225,-0.5809783,2.348136,4.2314935,4.9902277,-1.4932333
1747679352.9213538,2.0273225,-0.5809783,2.348136,4.2314935,4.9902277,-1.4932333
1747679352.921873,2.0273225,-0.5809783,2.348136,4.2314935,4.9902277,-1.4932333
1747679352.922395,2.0273225,-0.5809783,2.348136,4.2314935,4.9902277,-1.4932333
1747679352.922948,2.0273225,-0.5809783,2.348136,4.2314935,4.9902277,-1.4932333
1747679352.9235013,2.0273225,-0.5809783,2.348136,4.2314935,4.9902277,-1.4932333
1747679352.9240527,2.0273225,-0.5809783,2.348136,4.2314935,4.9902277,-1.4932333
1747679352.9246042,2.0273225,-0.5809783,2.348136,4.2314935,4.9902277,-1.4932333
1747679352.92513,2.0273225,-0.5809783,2.348136,4.2314935,4.9902277,-1.4932333
1747679352.9256527,2.0273225,-0.5809783,2.348136,4.2314935,4.9902277,-1.4932333
1747679352.9261868,2.0273225,-0.5809783,2.348136,3.9332197,5.5260553,-1.37925
1747679352.9267228,2.0273225,-0.5809783,2.348136,3.9332197,5.5260553,-1.37925
1747679352.92726,1.7227392,-0.5790258,2.2324526,3.9332197,5.5260553,-1.37925
1747679352.9277873,1.7227392,-0.5790258,2.2324526,3.9332197,5.5260553,-1.37925
1747679352.928311,1.7227392,-0.5790258,2.2324526,3.9332197,5.5260553,-1.37925
1747679352.9288347,1.7227392,-0.5790258,2.2324526,3.9332197,5.5260553,-1.37925
1747679352.9293578,1.7227392,-0.5790258,2.2324526,3.9332197,5.5260553,-1.37925
1747679352.929881,1.7227392,-0.5790258,2.2324526,3.9332197,5.5260553,-1.37925
1747679352.930404,1.7227392,-0.5790258,2.2324526,3.9332197,5.5260553,-1.37925
1747679352.9309266,1.7227392,-0.5790258,2.2324526,3.9332197,5.5260553,-1.37925
1747679352.9314718,1.7227392,-0.5790258,2.2324526,3.9332197,5.5260553,-1.37925
1747679352.9320073,1.7227392,-0.5790258,2.2324526,3.9332197,5.5260553,-1.37925
1747679352.932531,1.7227392,-0.5790258,2.2324526,3.9332197,5.5260553,-1.37925
1747679352.933054,1.7227392,-0.5790258,2.2324526,3.9332197,5.5260553,-1.37925
1747679352.933605,1.7227392,-0.5790258,2.2324526,3.9332197,5.5260553,-1.37925
1747679352.934158,1.7227392,-0.5790258,2.2324526,3.9332197,5.5260553,-1.37925
1747679352.934702,1.7227392,-0.5790258,2.2324526,3.9332197,5.5260553,-1.37925
1747679352.9352288,1.7227392,-0.5790258,2.2324526,3.9332197,5.5260553,-1.37925
1747679352.935752,1.7227392,-0.5790258,2.2324526,3.9332197,5.5260553,-1.37925
1747679352.9362755,1.5836265,-0.62588483,2.2563703,3.9705038,5.6964974,-1.2343743
1747679352.936797,1.5836265,-0.62588483,2.2563703,3.9705038,5.6964974,-1.2343743
1747679352.9373775,1.5836265,-0.62588483,2.2563703,3.9705038,5.6964974,-1.2343743
1747679352.9378994,1.5836265,-0.62588483,2.2563703,3.9705038,5.6964974,-1.2343743
1747679352.9384515,1.5836265,-0.62588483,2.2563703,3.9705038,5.6964974,-1.2343743
1747679352.939008,1.5836265,-0.62588483,2.2563703,3.9705038,5.6964974,-1.2343743
1747679352.9395418,1.5836265,-0.62588483,2.2563703,3.9705038,5.6964974,-1.2343743
1747679352.940062,1.5836265,-0.62588483,2.2563703,3.9705038,5.6964974,-1.2343743
1747679352.9405806,1.5836265,-0.62588483,2.2563703,3.9705038,5.6964974,-1.2343743
1747679352.9410994,1.5836265,-0.62588483,2.2563703,3.9705038,5.6964974,-1.2343743
1747679352.941618,1.5836265,-0.62588483,2.2563703,3.9705038,5.6964974,-1.2343743
1747679352.942137,1.5836265,-0.62588483,2.2563703,3.9705038,5.6964974,-1.2343743
1747679352.9426565,1.5836265,-0.62588483,2.2563703,4.3284326,5.5079455,-1.0703236
1747679352.9431758,1.5836265,-0.62588483,2.2563703,4.3284326,5.5079455,-1.0703236
1747679352.9437296,1.5836265,-0.62588483,2.2563703,4.3284326,5.5079455,-1.0703236
1747679352.9442925,1.5836265,-0.62588483,2.2563703,4.3284326,5.5079455,-1.0703236
1747679352.9448228,1.5836265,-0.62588483,2.2563703,4.3284326,5.5079455,-1.0703236
1747679352.9453435,1.5836265,-0.62588483,2.2563703,4.3284326,5.5079455,-1.0703236
1747679352.9458623,1.5836265,-0.62588483,2.2563703,4.3284326,5.5079455,-1.0703236
1747679352.9463813,1.5836265,-0.62588483,2.2563703,4.3284326,5.5079455,-1.0703236
1747679352.9469001,1.5836265,-0.62588483,2.2563703,4.3284326,5.5079455,-1.0703236
1747679352.9474187,1.5836265,-0.62588483,2.2563703,4.3284326,5.5079455,-1.0703236
1747679352.9479373,1.5836265,-0.62588483,2.2563703,4.3284326,5.5079455,-1.0703236
1747679352.948549,1.5836265,-0.62588483,2.2563703,4.3284326,5.5079455,-1.0703236
1747679352.9491048,1.5836265,-0.62588483,2.2563703,4.3284326,5.5079455,-1.0703236
1747679352.9496439,1.5836265,-0.62588483,2.2563703,4.3284326,5.5079455,-1.0703236
1747679352.950173,1.5836265,-0.62588483,2.2563703,4.3284326,5.5079455,-1.0703236
1747679352.9507082,1.5836265,-0.62588483,2.2563703,4.3284326,5.5079455,-1.0703236
1747679352.9512405,1.5836265,-0.62588483,2.2563703,4.3284326,5.5079455,-1.0703236
1747679352.951762,1.5152904,-0.839679,2.131901,4.3284326,5.5079455,-1.0703236
1747679352.9522812,1.5152904,-0.839679,2.131901,4.3284326,5.5079455,-1.0703236
1747679352.9528005,1.5152904,-0.839679,2.131901,4.3284326,5.5079455,-1.0703236
1747679352.95332,1.5152904,-0.839679,2.131901,4.928176,4.963596,-0.9659278
1747679352.953856,1.5152904,-0.839679,2.131901,4.928176,4.963596,-0.9659278
1747679352.95441,1.5152904,-0.839679,2.131901,4.928176,4.963596,-0.9659278
1747679352.9549544,1.5152904,-0.839679,2.131901,4.928176,4.963596,-0.9659278
1747679352.955499,1.5152904,-0.839679,2.131901,4.928176,4.963596,-0.9659278
1747679352.9560323,1.5152904,-0.839679,2.131901,4.928176,4.963596,-0.9659278
1747679352.9565523,1.5152904,-0.839679,2.131901,4.928176,4.963596,-0.9659278
1747679352.9570713,1.5152904,-0.839679,2.131901,4.928176,4.963596,-0.9659278
1747679352.9575903,1.5152904,-0.839679,2.131901,4.928176,4.963596,-0.9659278
1747679352.9581094,1.5152904,-0.839679,2.131901,4.928176,4.963596,-0.9659278
1747679352.9586284,1.5152904,-0.839679,2.131901,4.928176,4.963596,-0.9659278
1747679352.9591472,1.5152904,-0.839679,2.131901,4.928176,4.963596,-0.9659278
1747679352.959666,1.5152904,-0.839679,2.131901,4.928176,4.963596,-0.9659278
1747679352.9601843,1.5152904,-0.839679,2.131901,4.928176,4.963596,-0.9659278
1747679352.9607027,1.5152904,-0.839679,2.131901,4.928176,4.963596,-0.9659278
1747679352.9612236,1.5152904,-0.839679,2.131901,4.928176,4.963596,-0.9659278
1747679352.9617448,1.5152904,-0.839679,2.131901,4.928176,4.963596,-0.9659278
1747679352.9622638,1.5152904,-0.839679,2.131901,4.928176,4.963596,-0.9659278
1747679352.9627826,1.5152904,-0.839679,2.131901,4.928176,4.963596,-0.9659278
1747679352.963302,1.5152904,-0.839679,2.131901,5.628054,4.1369514,-0.982972
1747679352.9638414,1.5152904,-0.839679,2.131901,5.628054,4.1369514,-0.982972
1747679352.9644086,1.5152904,-0.839679,2.131901,5.628054,4.1369514,-0.982972
1747679352.9649532,1.5152904,-0.839679,2.131901,5.628054,4.1369514,-0.982972
1747679352.9654784,1.5152904,-0.839679,2.131901,5.628054,4.1369514,-0.982972
1747679352.9659972,1.5152904,-0.839679,2.131901,5.628054,4.1369514,-0.982972
1747679352.9665163,1.5152904,-0.839679,2.131901,5.628054,4.1369514,-0.982972
1747679352.9670346,1.5152904,-0.839679,2.131901,5.628054,4.1369514,-0.982972
1747679352.9675527,1.5152904,-0.839679,2.131901,5.628054,4.1369514,-0.982972
1747679352.968071,1.5152904,-0.839679,2.131901,5.628054,4.1369514,-0.982972
1747679352.9685922,1.5152904,-0.839679,2.131901,5.628054,4.1369514,-0.982972
1747679352.969112,1.5152904,-0.839679,2.131901,5.628054,4.1369514,-0.982972
1747679352.9696326,1.5152904,-0.839679,2.131901,5.628054,4.1369514,-0.982972
1747679352.9701853,1.5152904,-0.839679,2.131901,5.628054,4.1369514,-0.982972
1747679352.9707427,1.5152904,-0.839679,2.131901,5.628054,4.1369514,-0.982972
1747679352.9712768,1.5152904,-0.839679,2.131901,5.628054,4.1369514,-0.982972
1747679352.971797,1.5152904,-0.839679,2.131901,5.628054,4.1369514,-0.982972
1747679352.9723158,1.5152904,-0.839679,2.131901,5.628054,4.1369514,-0.982972
1747679352.972835,1.5152904,-0.839679,2.131901,5.628054,4.1369514,-0.982972
1747679352.9733543,1.5152904,-0.839679,2.131901,5.628054,4.1369514,-0.982972
1747679352.9739077,1.5152904,-0.839679,2.131901,5.628054,4.1369514,-0.982972
1747679352.9744709,1.5152904,-0.839679,2.131901,5.628054,4.1369514,-0.982972
1747679352.9750006,1.5894839,-1.1262022,1.5373777,6.291713,3.205911,-1.1033468
1747679352.9755213,1.5894839,-1.1262022,1.5373777,6.291713,3.205911,-1.1033468
1747679352.9760404,1.5894839,-1.1262022,1.5373777,6.291713,3.205911,-1.1033468
1747679352.9765592,1.5894839,-1.1262022,1.5373777,6.291713,3.205911,-1.1033468
1747679352.977078,1.5894839,-1.1262022,1.5373777,6.291713,3.205911,-1.1033468
1747679352.977597,1.5894839,-1.1262022,1.5373777,6.291713,3.205911,-1.1033468
1747679352.9781156,1.5894839,-1.1262022,1.5373777,6.291713,3.205911,-1.1033468
1747679352.9786923,1.5894839,-1.1262022,1.5373777,6.291713,3.205911,-1.1033468
1747679352.979268,1.5894839,-1.1262022,1.5373777,6.291713,3.205911,-1.1033468
1747679352.9798212,1.5894839,-1.1262022,1.5373777,6.291713,3.205911,-1.1033468
1747679352.9803886,1.5894839,-1.1262022,1.5373777,6.291713,3.205911,-1.1033468
1747679352.980932,1.5641019,-1.206741,1.1122298,6.741255,2.4847274,-1.2759196
1747679352.9814656,1.5641019,-1.206741,1.1122298,6.741255,2.4847274,-1.2759196
1747679352.9819856,1.5641019,-1.206741,1.1122298,6.741255,2.4847274,-1.2759196
1747679352.9825046,1.5641019,-1.206741,1.1122298,6.741255,2.4847274,-1.2759196
1747679352.9830236,1.5641019,-1.206741,1.1122298,6.741255,2.4847274,-1.2759196
1747679352.9835448,1.5641019,-1.206741,1.1122298,6.741255,2.4847274,-1.2759196
1747679352.9840822,1.5641019,-1.206741,1.1122298,6.741255,2.4847274,-1.2759196
1747679352.984637,1.5641019,-1.206741,1.1122298,6.741255,2.4847274,-1.2759196
1747679352.985167,1.5641019,-1.206741,1.1122298,6.741255,2.4847274,-1.2759196
1747679352.9857213,1.5641019,-1.206741,1.1122298,6.741255,2.4847274,-1.2759196
1747679352.986287,1.5641019,-1.206741,1.1122298,6.741255,2.4847274,-1.2759196
1747679352.9868433,1.5641019,-1.206741,1.1122298,6.741255,2.4847274,-1.2759196
1747679352.987395,1.5641019,-1.206741,1.1122298,6.741255,2.4847274,-1.2759196
1747679352.9879384,1.5641019,-1.206741,1.1122298,6.741255,2.4847274,-1.2759196
1747679352.9884834,1.5641019,-1.206741,1.1122298,6.741255,2.4847274,-1.2759196
1747679352.9890432,1.5641019,-1.206741,1.1122298,6.741255,2.4847274,-1.2759196
1747679352.989593,1.5641019,-1.206741,1.1122298,6.741255,2.4847274,-1.2759196
1747679352.9901466,1.5641019,-1.206741,1.1122298,6.741255,2.4847274,-1.2759196
1747679352.99069,1.5641019,-1.206741,1.1122298,6.741255,2.4847274,-1.2759196
1747679352.991226,1.5641019,-1.206741,1.1122298,6.741255,2.4847274,-1.2759196
1747679352.991749,1.5406723,-1.2643386,0.7349174,6.9532423,2.0522304,-1.463406
1747679352.9922712,1.5406723,-1.2643386,0.7349174,6.9532423,2.0522304,-1.463406
1747679352.992793,1.5406723,-1.2643386,0.7349174,6.9532423,2.0522304,-1.463406
1747679352.9933147,1.5406723,-1.2643386,0.7349174,6.9532423,2.0522304,-1.463406
1747679352.9938788,1.5406723,-1.2643386,0.7349174,6.9532423,2.0522304,-1.463406
1747679352.9944441,1.5406723,-1.2643386,0.7349174,6.9532423,2.0522304,-1.463406
1747679352.9949799,1.5406723,-1.2643386,0.7349174,6.9532423,2.0522304,-1.463406
1747679352.995503,1.5406723,-1.2643386,0.7349174,6.9532423,2.0522304,-1.463406
1747679352.9960244,1.5406723,-1.2643386,0.7349174,6.9532423,2.0522304,-1.463406
1747679352.9965458,1.5406723,-1.2643386,0.7349174,6.9532423,2.0522304,-1.463406
1747679352.997067,1.5406723,-1.2643386,0.7349174,6.9532423,2.0522304,-1.463406
1747679352.997588,1.5406723,-1.2643386,0.7349174,6.9532423,2.0522304,-1.463406
1747679352.998109,1.5406723,-1.2643386,0.7349174,6.9532423,2.0522304,-1.463406
1747679352.9986334,1.5406723,-1.2643386,0.7349174,6.9532423,2.0522304,-1.463406
1747679352.9991415,1.5406723,-1.2643386,0.7349174,6.9532423,2.0522304,-1.463406
1747679352.9996605,1.5406723,-1.2643386,0.7349174,6.9532423,2.0522304,-1.463406
1747679353.0001814,1.5406723,-1.2643386,0.7349174,6.9532423,2.0522304,-1.463406
1747679353.000729,1.5406723,-1.2643386,0.7349174,6.9532423,2.0522304,-1.463406
1747679353.0012915,1.5406723,-1.2643386,0.7349174,6.9532423,2.0522304,-1.463406
1747679353.0018601,1.5406723,-1.2643386,0.7349174,6.9532423,2.0522304,-1.463406
1747679353.0024035,1.5309101,-1.2848394,0.40348765,6.9361978,1.8881798,-1.6391745
1747679353.0029294,1.5309101,-1.2848394,0.40348765,6.9361978,1.8881798,-1.6391745
1747679353.0034585,1.5309101,-1.2848394,0.40348765,6.9361978,1.8881798,-1.6391745
1747679353.0039864,1.5309101,-1.2848394,0.40348765,6.9361978,1.8881798,-1.6391745
1747679353.0045176,1.5309101,-1.2848394,0.40348765,6.9361978,1.8881798,-1.6391745
1747679353.005042,1.5309101,-1.2848394,0.40348765,6.9361978,1.8881798,-1.6391745
1747679353.0055645,1.5309101,-1.2848394,0.40348765,6.9361978,1.8881798,-1.6391745
1747679353.0060866,1.5309101,-1.2848394,0.40348765,6.9361978,1.8881798,-1.6391745
1747679353.0066087,1.5309101,-1.2848394,0.40348765,6.9361978,1.8881798,-1.6391745
1747679353.0071309,1.5309101,-1.2848394,0.40348765,6.9361978,1.8881798,-1.6391745
1747679353.0076535,1.5309101,-1.2848394,0.40348765,6.9361978,1.8881798,-1.6391745
1747679353.0081768,1.5309101,-1.2848394,0.40348765,6.9361978,1.8881798,-1.6391745
1747679353.0087,1.5309101,-1.2848394,0.40348765,6.9361978,1.8881798,-1.6391745
1747679353.009263,1.5309101,-1.2848394,0.40348765,6.9361978,1.8881798,-1.6391745
1747679353.0098257,1.5309101,-1.2848394,0.40348765,6.9361978,1.8881798,-1.6391745
1747679353.0103722,1.5309101,-1.2848394,0.40348765,6.9361978,1.8881798,-1.6391745
1747679353.0109174,1.5309101,-1.2848394,0.40348765,6.9361978,1.8881798,-1.6391745
1747679353.0126271,1.5309101,-1.2848394,0.40348765,6.9361978,1.8881798,-1.6391745
1747679353.0131795,1.5309101,-1.2848394,0.40348765,6.9361978,1.8881798,-1.6391745
1747679353.0137038,1.5309101,-1.2848394,0.40348765,6.9361978,1.8881798,-1.6391745
1747679353.0142314,1.5309101,-1.2848394,0.40348765,6.9361978,1.8881798,-1.6391745
1747679353.0147672,1.5040638,-1.2584813,0.1726095,6.9361978,1.8881798,-1.6391745
1747679353.0152938,1.5040638,-1.2584813,0.1726095,6.9361978,1.8881798,-1.6391745
1747679353.0158331,1.5040638,-1.2584813,0.1726095,6.7732124,1.9126809,-1.7893766
1747679353.0163982,1.5040638,-1.2584813,0.1726095,6.7732124,1.9126809,-1.7893766
1747679353.0169594,1.5040638,-1.2584813,0.1726095,6.7732124,1.9126809,-1.7893766
1747679353.0175164,1.5040638,-1.2584813,0.1726095,6.7732124,1.9126809,-1.7893766
1747679353.0180619,1.5040638,-1.2584813,0.1726095,6.7732124,1.9126809,-1.7893766
1747679353.018613,1.5040638,-1.2584813,0.1726095,6.7732124,1.9126809,-1.7893766
1747679353.0191603,1.5040638,-1.2584813,0.1726095,6.7732124,1.9126809,-1.7893766
1747679353.0197043,1.5040638,-1.2584813,0.1726095,6.7732124,1.9126809,-1.7893766
1747679353.0202372,1.5040638,-1.2584813,0.1726095,6.7732124,1.9126809,-1.7893766
1747679353.020765,1.5040638,-1.2584813,0.1726095,6.7732124,1.9126809,-1.7893766
1747679353.0212932,1.5040638,-1.2584813,0.1726095,6.7732124,1.9126809,-1.7893766
1747679353.0218213,1.5040638,-1.2584813,0.1726095,6.7732124,1.9126809,-1.7893766
1747679353.0223486,1.5040638,-1.2584813,0.1726095,6.7732124,1.9126809,-1.7893766
1747679353.0228753,1.5040638,-1.2584813,0.1726095,6.7732124,1.9126809,-1.7893766
1747679353.023416,1.5040638,-1.2584813,0.1726095,6.7732124,1.9126809,-1.7893766
1747679353.0240304,1.5040638,-1.2584813,0.1726095,6.7732124,1.9126809,-1.7893766
1747679353.024606,1.5040638,-1.2584813,0.1726095,6.7732124,1.9126809,-1.7893766
1747679353.0251517,1.4079052,-1.1994193,-0.11635429,6.3854566,2.192845,-1.9246651
1747679353.025685,1.4079052,-1.1994193,-0.11635429,6.3854566,2.192845,-1.9246651
1747679353.0262053,1.4079052,-1.1994193,-0.11635429,6.3854566,2.192845,-1.9246651
1747679353.026724,1.4079052,-1.1994193,-0.11635429,6.3854566,2.192845,-1.9246651
1747679353.0272427,1.4079052,-1.1994193,-0.11635429,6.3854566,2.192845,-1.9246651
1747679353.0277615,1.4079052,-1.1994193,-0.11635429,6.3854566,2.192845,-1.9246651
1747679353.0282803,1.4079052,-1.1994193,-0.11635429,6.3854566,2.192845,-1.9246651
1747679353.0287988,1.4079052,-1.1994193,-0.11635429,6.3854566,2.192845,-1.9246651
1747679353.0293176,1.4079052,-1.1994193,-0.11635429,6.3854566,2.192845,-1.9246651
1747679353.029836,1.4079052,-1.1994193,-0.11635429,6.3854566,2.192845,-1.9246651
1747679353.0303547,1.4079052,-1.1994193,-0.11635429,6.3854566,2.192845,-1.9246651
1747679353.0308728,1.4079052,-1.1994193,-0.11635429,6.3854566,2.192845,-1.9246651
1747679353.0313914,1.4079052,-1.1994193,-0.11635429,6.3854566,2.192845,-1.9246651
1747679353.0319133,1.4079052,-1.1994193,-0.11635429,6.3854566,2.192845,-1.9246651
1747679353.0324655,1.4079052,-1.1994193,-0.11635429,6.3854566,2.192845,-1.9246651
1747679353.0330243,1.4079052,-1.1994193,-0.11635429,6.3854566,2.192845,-1.9246651
1747679353.0335767,1.4079052,-1.1994193,-0.11635429,6.3854566,2.192845,-1.9246651
1747679353.0341322,1.4079052,-1.1994193,-0.11635429,6.3854566,2.192845,-1.9246651
1747679353.03466,1.253661,-1.1096063,-0.3867697,5.663208,2.8298728,-1.940644
1747679353.0351796,1.253661,-1.1096063,-0.3867697,5.663208,2.8298728,-1.940644
1747679353.0356987,1.253661,-1.1096063,-0.3867697,5.663208,2.8298728,-1.940644
1747679353.0362182,1.253661,-1.1096063,-0.3867697,5.663208,2.8298728,-1.940644
1747679353.036737,1.253661,-1.1096063,-0.3867697,5.663208,2.8298728,-1.940644
1747679353.0373044,1.253661,-1.1096063,-0.3867697,5.663208,2.8298728,-1.940644
1747679353.0378246,1.253661,-1.1096063,-0.3867697,5.663208,2.8298728,-1.940644
1747679353.0383434,1.253661,-1.1096063,-0.3867697,5.663208,2.8298728,-1.940644
1747679353.038862,1.253661,-1.1096063,-0.3867697,5.663208,2.8298728,-1.940644
1747679353.0394158,1.253661,-1.1096063,-0.3867697,5.663208,2.8298728,-1.940644
1747679353.039974,1.253661,-1.1096063,-0.3867697,5.663208,2.8298728,-1.940644
1747679353.0405188,1.253661,-1.1096063,-0.3867697,5.663208,2.8298728,-1.940644
1747679353.0410554,1.253661,-1.1096063,-0.3867697,5.663208,2.8298728,-1.940644
1747679353.041579,1.253661,-1.1096063,-0.3867697,5.663208,2.8298728,-1.940644
1747679353.0421016,1.253661,-1.1096063,-0.3867697,5.663208,2.8298728,-1.940644
1747679353.0431738,1.253661,-1.1096063,-0.3867697,5.663208,2.8298728,-1.940644
1747679353.0437274,1.253661,-1.1096063,-0.3867697,5.663208,2.8298728,-1.940644
1747679353.0442803,1.253661,-1.1096063,-0.3867697,5.663208,2.8298728,-1.940644
1747679353.0448158,1.253661,-1.1096063,-0.3867697,5.663208,2.8298728,-1.940644
1747679353.0453403,1.1316324,-1.0329723,-0.51953685,4.942024,3.4264205,-1.843705
1747679353.045862,1.1316324,-1.0329723,-0.51953685,4.942024,3.4264205,-1.843705
1747679353.046381,1.1316324,-1.0329723,-0.51953685,4.942024,3.4264205,-1.843705
1747679353.0469,1.1316324,-1.0329723,-0.51953685,4.942024,3.4264205,-1.843705
1747679353.0474215,1.1316324,-1.0329723,-0.51953685,4.942024,3.4264205,-1.843705
1747679353.0479734,1.1316324,-1.0329723,-0.51953685,4.942024,3.4264205,-1.843705
