timestamp,acc_x,acc_y,acc_z,gyro_x,gyro_y,gyro_z
1747679467.2868466,0.07095964,0.0076878034,0.97799844,-0.014780533,-0.39348176,0.04607265
1747679467.2874014,0.07095964,0.0076878034,0.97799844,-0.014780533,-0.39348176,0.04607265
1747679467.2879436,0.07095964,0.0076878034,0.97799844,-0.014780533,-0.39348176,0.04607265
1747679467.2884793,0.07095964,0.0076878034,0.97799844,-0.014780533,-0.39348176,0.04607265
1747679467.2890143,0.07095964,0.0076878034,0.97799844,-0.014780533,-0.39348176,0.04607265
1747679467.2895913,0.07095964,0.0076878034,0.97799844,-0.014780533,-0.39348176,0.04607265
1747679467.2903028,0.07095964,0.0076878034,0.97799844,-0.014780533,-0.39348176,0.04607265
1747679467.2909567,0.07095964,0.0076878034,0.97799844,-0.014780533,-0.39348176,0.04607265
1747679467.2915184,0.07095964,0.0076878034,0.97799844,-0.014780533,-0.39348176,0.04607265
1747679467.2920692,0.07095964,0.0076878034,0.97799844,-0.014780533,-0.39348176,0.04607265
1747679467.2927184,0.07095964,0.0076878034,0.97799844,-0.014780533,-0.39348176,0.04607265
1747679467.2942874,0.109520696,-0.006467517,1.0726926,-0.042477388,-0.2251701,0.13235901
1747679467.2953951,0.109520696,-0.006467517,1.0726926,-0.042477388,-0.2251701,0.13235901
1747679467.2959712,0.109520696,-0.006467517,1.0726926,-0.042477388,-0.2251701,0.13235901
1747679467.2965753,0.109520696,-0.006467517,1.0726926,-0.042477388,-0.2251701,0.13235901
1747679467.297142,0.109520696,-0.006467517,1.0726926,-0.042477388,-0.2251701,0.13235901
1747679467.2977092,0.109520696,-0.006467517,1.0726926,-0.042477388,-0.2251701,0.13235901
1747679467.2985175,0.109520696,-0.006467517,1.0726926,-0.042477388,-0.2251701,0.13235901
1747679467.2991226,0.109520696,-0.006467517,1.0726926,-0.042477388,-0.2251701,0.13235901
1747679467.2996805,0.109520696,-0.006467517,1.0726926,-0.042477388,-0.2251701,0.13235901
1747679467.3002884,0.109520696,-0.006467517,1.0726926,-0.042477388,-0.2251701,0.13235901
1747679467.3008974,0.109520696,-0.006467517,1.0726926,-0.042477388,-0.2251701,0.13235901
1747679467.3015022,0.109520696,-0.006467517,1.0726926,0.022503695,0.123171106,0.16857797
1747679467.302067,0.109520696,-0.006467517,1.0726926,0.022503695,0.123171106,0.16857797
1747679467.3026927,0.109520696,-0.006467517,1.0726926,0.022503695,0.123171106,0.16857797
1747679467.303262,0.109520696,-0.006467517,1.0726926,0.022503695,0.123171106,0.16857797
1747679467.3038483,0.109520696,-0.006467517,1.0726926,0.022503695,0.123171106,0.16857797
1747679467.304433,0.109520696,-0.006467517,1.0726926,0.022503695,0.123171106,0.16857797
1747679467.3050504,0.109520696,-0.006467517,1.0726926,0.022503695,0.123171106,0.16857797
1747679467.3068397,0.109520696,-0.006467517,1.0726926,0.022503695,0.123171106,0.16857797
1747679467.3074062,0.109520696,-0.006467517,1.0726926,0.022503695,0.123171106,0.16857797
1747679467.307961,0.109520696,-0.006467517,1.0726926,0.022503695,0.123171106,0.16857797
1747679467.3085866,0.109520696,-0.006467517,1.0726926,0.022503695,0.123171106,0.16857797
1747679467.311167,0.24082349,-0.016717922,1.1468861,0.10346373,0.2637859,0.13662006
1747679467.314354,0.24082349,-0.016717922,1.1468861,0.10346373,0.2637859,0.13662006
1747679467.3149223,0.24082349,-0.016717922,1.1468861,0.10346373,0.2637859,0.13662006
1747679467.3154838,0.24082349,-0.016717922,1.1468861,0.10346373,0.2637859,0.13662006
1747679467.316044,0.24082349,-0.016717922,1.1468861,0.10346373,0.2637859,0.13662006
1747679467.3166027,0.24082349,-0.016717922,1.1468861,0.10346373,0.2637859,0.13662006
1747679467.3172626,0.24082349,-0.016717922,1.1468861,0.10346373,0.2637859,0.13662006
1747679467.3512368,0.21544152,0.052594334,0.9560333,0.22277325,0.028362645,-0.02210422
1747679467.3521307,0.21544152,0.052594334,0.9560333,0.22277325,0.028362645,-0.02210422
1747679467.3539171,0.21544152,0.052594334,0.9560333,0.22277325,0.028362645,-0.02210422
1747679467.354586,0.21544152,0.052594334,0.9560333,0.22277325,0.028362645,-0.02210422
1747679467.3551652,0.21544152,0.052594334,0.9560333,0.22277325,0.028362645,-0.02210422
1747679467.3557239,0.21544152,0.052594334,0.9560333,0.22277325,0.028362645,-0.02210422
1747679467.3562806,0.21544152,0.052594334,0.9560333,0.22277325,0.028362645,-0.02210422
1747679467.356837,0.21544152,0.052594334,0.9560333,0.22277325,0.028362645,-0.02210422
1747679467.3573925,0.21544152,0.052594334,0.9560333,0.22277325,0.028362645,-0.02210422
1747679467.3579838,0.21544152,0.052594334,0.9560333,0.22277325,0.028362645,-0.02210422
1747679467.3585577,0.217394,0.050153766,0.94041365,0.22277325,0.028362645,-0.02210422
1747679467.3591132,0.217394,0.050153766,0.94041365,0.22277325,0.028362645,-0.02210422
1747679467.3596702,0.217394,0.050153766,0.94041365,0.22277325,0.028362645,-0.02210422
1747679467.3629448,0.217394,0.050153766,0.94041365,0.20359851,0.040080544,-0.060453713
1747679467.3691337,0.217394,0.050153766,0.94041365,0.20359851,0.040080544,-0.060453713
1747679467.373376,0.22422758,0.028676726,0.9648193,0.16098797,0.12743217,-0.09773794
1747679467.373946,0.22422758,0.028676726,0.9648193,0.16098797,0.12743217,-0.09773794
1747679467.3745081,0.22422758,0.028676726,0.9648193,0.16098797,0.12743217,-0.09773794
1747679467.375083,0.22422758,0.028676726,0.9648193,0.16098797,0.12743217,-0.09773794
1747679467.3756511,0.22422758,0.028676726,0.9648193,0.16098797,0.12743217,-0.09773794
1747679467.3808837,0.22422758,0.028676726,0.9648193,0.16098797,0.12743217,-0.09773794
1747679467.3812354,0.22422758,0.028676726,0.9648193,0.16098797,0.12743217,-0.09773794
1747679467.3822243,0.22422758,0.028676726,0.9648193,0.16098797,0.12743217,-0.09773794
1747679467.3833315,0.22422758,0.028676726,0.9648193,0.16098797,0.12743217,-0.09773794
1747679467.3842256,0.21544152,0.018914437,1.0028923,0.13755217,0.27124277,-0.13928322
1747679467.3852236,0.21544152,0.018914437,1.0028923,0.13755217,0.27124277,-0.13928322
1747679467.386225,0.21544152,0.018914437,1.0028923,0.13755217,0.27124277,-0.13928322
1747679467.3872266,0.21544152,0.018914437,1.0028923,0.13755217,0.27124277,-0.13928322
1747679467.3884075,0.21544152,0.018914437,1.0028923,0.13755217,0.27124277,-0.13928322
1747679467.389249,0.21544152,0.018914437,1.0028923,0.13755217,0.27124277,-0.13928322
1747679467.390236,0.21544152,0.018914437,1.0028923,0.13755217,0.27124277,-0.13928322
1747679467.392878,0.21544152,0.018914437,1.0028923,0.10879005,0.41824913,-0.16484955
1747679467.3932784,0.19786942,0.027212383,1.0175357,0.10879005,0.41824913,-0.16484955
1747679467.3942342,0.19786942,0.027212383,1.0175357,0.10879005,0.41824913,-0.16484955
1747679467.3952281,0.19786942,0.027212383,1.0175357,0.10879005,0.41824913,-0.16484955
1747679467.396223,0.19786942,0.027212383,1.0175357,0.10879005,0.41824913,-0.16484955
1747679467.3972256,0.19786942,0.027212383,1.0175357,0.10879005,0.41824913,-0.16484955
1747679467.3982239,0.19786942,0.027212383,1.0175357,0.10879005,0.41824913,-0.16484955
1747679467.399365,0.19786942,0.027212383,1.0175357,0.10879005,0.41824913,-0.16484955
1747679467.4002235,0.19786942,0.027212383,1.0175357,0.10879005,0.41824913,-0.16484955
1747679467.4012394,0.19786942,0.027212383,1.0175357,0.10879005,0.41824913,-0.16484955
1747679467.4042,0.19786942,0.027212383,1.0175357,0.10879005,0.41824913,-0.16484955
1747679467.4080093,0.18957147,0.038439017,1.0424296,0.07896267,0.5482113,-0.18508956
1747679467.4085789,0.18957147,0.038439017,1.0424296,0.07896267,0.5482113,-0.18508956
1747679467.4091392,0.18957147,0.038439017,1.0424296,0.07896267,0.5482113,-0.18508956
1747679467.4097004,0.18957147,0.038439017,1.0424296,0.07896267,0.5482113,-0.18508956
1747679467.410262,0.18957147,0.038439017,1.0424296,0.07896267,0.5482113,-0.18508956
1747679467.4108212,0.18957147,0.038439017,1.0424296,0.07896267,0.5482113,-0.18508956
1747679467.4113672,0.18957147,0.038439017,1.0424296,0.07896267,0.5482113,-0.18508956
1747679467.4119308,0.18957147,0.038439017,1.0424296,0.07896267,0.5482113,-0.18508956
1747679467.4124937,0.18957147,0.038439017,1.0424296,0.07896267,0.5482113,-0.18508956
1747679467.4130547,0.18957147,0.038439017,1.0424296,0.07896267,0.5482113,-0.18508956
1747679467.4135976,0.18957147,0.038439017,1.0424296,0.07896267,0.5482113,-0.18508956
1747679467.4141724,0.18957147,0.038439017,1.0424296,0.07896267,0.5482113,-0.18508956
1747679467.4147668,0.18957147,0.038439017,1.0424296,0.07896267,0.5482113,-0.18508956
1747679467.4153395,0.15589157,0.04868942,1.053168,0.07896267,0.5482113,-0.18508956
1747679467.4159033,0.15589157,0.04868942,1.053168,0.07896267,0.5482113,-0.18508956
1747679467.41647,0.15589157,0.04868942,1.053168,0.042743705,0.59721345,-0.20746009
1747679467.4170353,0.15589157,0.04868942,1.053168,0.042743705,0.59721345,-0.20746009
1747679467.4176004,0.15589157,0.04868942,1.053168,0.042743705,0.59721345,-0.20746009
1747679467.418166,0.15589157,0.04868942,1.053168,0.042743705,0.59721345,-0.20746009
1747679467.418732,0.15589157,0.04868942,1.053168,0.042743705,0.59721345,-0.20746009
1747679467.4192977,0.15589157,0.04868942,1.053168,0.042743705,0.59721345,-0.20746009
1747679467.4198644,0.15589157,0.04868942,1.053168,0.042743705,0.59721345,-0.20746009
1747679467.4204319,0.15589157,0.04868942,1.053168,0.042743705,0.59721345,-0.20746009
1747679467.4210002,0.15589157,0.04868942,1.053168,0.01824264,0.54075444,-0.20852536
1747679467.421542,0.121723555,0.059916057,1.0546324,0.01824264,0.54075444,-0.20852536
1747679467.42351,0.121723555,0.059916057,1.0546324,0.01824264,0.54075444,-0.20852536
1747679467.424131,0.121723555,0.059916057,1.0546324,0.01824264,0.54075444,-0.20852536
1747679467.4251122,0.121723555,0.059916057,1.0546324,0.01824264,0.54075444,-0.20852536
1747679467.4261103,0.121723555,0.059916057,1.0546324,0.01824264,0.54075444,-0.20852536
1747679467.4271104,0.121723555,0.059916057,1.0546324,0.01824264,0.54075444,-0.20852536
1747679467.42811,0.121723555,0.059916057,1.0546324,0.01824264,0.54075444,-0.20852536
1747679467.4291098,0.121723555,0.059916057,1.0546324,0.01824264,0.54075444,-0.20852536
1747679467.4304433,0.061197355,0.07407138,1.0551205,0.01824264,0.54075444,-0.20852536
1747679467.431111,0.061197355,0.07407138,1.0551205,-0.02543317,0.3958786,-0.18615483
1747679467.4321208,0.061197355,0.07407138,1.0551205,-0.02543317,0.3958786,-0.18615483
1747679467.4331117,0.061197355,0.07407138,1.0551205,-0.02543317,0.3958786,-0.18615483
1747679467.4341178,0.061197355,0.07407138,1.0551205,-0.02543317,0.3958786,-0.18615483
1747679467.4351122,0.061197355,0.07407138,1.0551205,-0.02543317,0.3958786,-0.18615483
1747679467.4361117,0.061197355,0.07407138,1.0551205,-0.02543317,0.3958786,-0.18615483
1747679467.4371133,0.061197355,0.07407138,1.0551205,-0.02543317,0.3958786,-0.18615483
1747679467.438119,0.061197355,0.07407138,1.0551205,-0.02543317,0.3958786,-0.18615483
1747679467.4391146,0.061197355,0.07407138,1.0551205,-0.02543317,0.3958786,-0.18615483
1747679467.440118,0.061197355,0.07407138,1.0551205,-0.02543317,0.3958786,-0.18615483
1747679467.4411154,0.006528531,0.08139309,1.0736688,-0.07230477,0.22224063,-0.12010848
1747679467.442124,0.006528531,0.08139309,1.0736688,-0.07230477,0.22224063,-0.12010848
1747679467.4431229,0.006528531,0.08139309,1.0736688,-0.07230477,0.22224063,-0.12010848
1747679467.444111,0.006528531,0.08139309,1.0736688,-0.07230477,0.22224063,-0.12010848
1747679467.4451675,0.006528531,0.08139309,1.0736688,-0.07230477,0.22224063,-0.12010848
1747679467.4463553,0.006528531,0.08139309,1.0736688,-0.07230477,0.22224063,-0.12010848
1747679467.447122,0.006528531,0.08139309,1.0736688,-0.07230477,0.22224063,-0.12010848
1747679467.4481328,0.006528531,0.08139309,1.0736688,-0.07230477,0.22224063,-0.12010848
1747679467.4491527,0.006528531,0.08139309,1.0736688,-0.07230477,0.22224063,-0.12010848
1747679467.4501061,0.006528531,0.08139309,1.0736688,-0.07230477,0.22224063,-0.12010848
1747679467.4511871,0.006528531,0.08139309,1.0736688,-0.07230477,0.22224063,-0.12010848
1747679467.4521163,0.006528531,0.08139309,1.0736688,-0.07230477,0.22224063,-0.12010848
1747679467.4531178,0.006528531,0.08139309,1.0736688,-0.07230477,0.22224063,-0.12010848
1747679467.4541037,0.006528531,0.08139309,1.0736688,-0.07230477,0.22224063,-0.12010848
1747679467.4551146,0.006528531,0.08139309,1.0736688,-0.07230477,0.22224063,-0.12010848
1747679467.4561203,0.006528531,0.08139309,1.0736688,-0.07230477,0.22224063,-0.12010848
1747679467.4571195,0.006528531,0.08139309,1.0736688,-0.07230477,0.22224063,-0.12010848
1747679467.4582052,0.006528531,0.08139309,1.0736688,-0.07230477,0.22224063,-0.12010848
1747679467.4591174,0.006528531,0.08139309,1.0736688,-0.07230477,0.22224063,-0.12010848
1747679467.4601207,0.006528531,0.08139309,1.0736688,-0.07230477,0.22224063,-0.12010848
1747679467.461123,0.016778937,0.09115539,1.1678749,-0.12663321,-0.00785632,0.0652474
1747679467.4621196,0.016778937,0.09115539,1.1678749,-0.12663321,-0.00785632,0.0652474
1747679467.463116,0.016778937,0.09115539,1.1678749,-0.12663321,-0.00785632,0.0652474
1747679467.4641304,0.016778937,0.09115539,1.1678749,-0.12663321,-0.00785632,0.0652474
1747679467.4651132,0.016778937,0.09115539,1.1678749,-0.12663321,-0.00785632,0.0652474
1747679467.466108,0.016778937,0.09115539,1.1678749,-0.12663321,-0.00785632,0.0652474
1747679467.4671116,0.016778937,0.09115539,1.1678749,-0.12663321,-0.00785632,0.0652474
1747679467.468109,0.016778937,0.09115539,1.1678749,-0.12663321,-0.00785632,0.0652474
1747679467.469107,0.016778937,0.09115539,1.1678749,-0.12663321,-0.00785632,0.0652474
1747679467.470105,0.016778937,0.09115539,1.1678749,-0.12663321,-0.00785632,0.0652474
1747679467.471296,0.033862945,0.089202926,1.2044835,-0.11704584,-0.033422645,0.099335834
1747679467.472113,0.033862945,0.089202926,1.2044835,-0.11704584,-0.033422645,0.099335834
1747679467.473113,0.033862945,0.089202926,1.2044835,-0.11704584,-0.033422645,0.099335834
1747679467.4741025,0.033862945,0.089202926,1.2044835,-0.11704584,-0.033422645,0.099335834
1747679467.475118,0.033862945,0.089202926,1.2044835,-0.11704584,-0.033422645,0.099335834
1747679467.4761014,0.033862945,0.089202926,1.2044835,-0.11704584,-0.033422645,0.099335834
1747679467.4771147,0.033862945,0.089202926,1.2044835,-0.11704584,-0.033422645,0.099335834
1747679467.4781797,0.033862945,0.089202926,1.2044835,-0.11704584,-0.033422645,0.099335834
1747679467.4791164,0.033862945,0.089202926,1.2044835,-0.11704584,-0.033422645,0.099335834
1747679467.4801102,0.033862945,0.089202926,1.2044835,-0.11704584,-0.033422645,0.099335834
1747679467.4811397,0.033862945,0.089202926,1.2044835,-0.065913185,-0.072837405,0.14088112
1747679467.4821012,0.06412604,0.08773858,1.2864867,-0.065913185,-0.072837405,0.14088112
1747679467.4830928,0.06412604,0.08773858,1.2864867,-0.065913185,-0.072837405,0.14088112
1747679467.4841087,0.06412604,0.08773858,1.2864867,-0.065913185,-0.072837405,0.14088112
1747679467.4850945,0.06412604,0.08773858,1.2864867,-0.065913185,-0.072837405,0.14088112
1747679467.48611,0.06412604,0.08773858,1.2864867,-0.065913185,-0.072837405,0.14088112
1747679467.4871116,0.06412604,0.08773858,1.2864867,-0.065913185,-0.072837405,0.14088112
1747679467.4881027,0.06412604,0.08773858,1.2864867,-0.065913185,-0.072837405,0.14088112
1747679467.4890928,0.06412604,0.08773858,1.2864867,-0.065913185,-0.072837405,0.14088112
1747679467.4900908,0.06412604,0.08773858,1.2864867,-0.065913185,-0.072837405,0.14088112
1747679467.4910905,0.06412604,0.08773858,1.2864867,-0.065913185,-0.072837405,0.14088112
1747679467.492108,0.06412604,0.08773858,1.2864867,-0.065913185,-0.072837405,0.14088112
1747679467.493117,0.07779325,0.09359595,1.3406675,0.019307904,-0.123970054,0.17283903
1747679467.4942517,0.07779325,0.09359595,1.3406675,0.019307904,-0.123970054,0.17283903
1747679467.4951446,0.07779325,0.09359595,1.3406675,0.019307904,-0.123970054,0.17283903
1747679467.4956565,0.07779325,0.09359595,1.3406675,0.019307904,-0.123970054,0.17283903
1747679467.4961996,0.07779325,0.09359595,1.3406675,0.019307904,-0.123970054,0.17283903
1747679467.4967666,0.07779325,0.09359595,1.3406675,0.019307904,-0.123970054,0.17283903
1747679467.4973075,0.07779325,0.09359595,1.3406675,0.019307904,-0.123970054,0.17283903
1747679467.497838,0.07779325,0.09359595,1.3406675,0.019307904,-0.123970054,0.17283903
1747679467.498378,0.07779325,0.09359595,1.3406675,0.019307904,-0.123970054,0.17283903
1747679467.4989178,0.07779325,0.09359595,1.3406675,0.019307904,-0.123970054,0.17283903
1747679467.4994593,0.07779325,0.09359595,1.3406675,0.019307904,-0.123970054,0.17283903
1747679467.5000129,0.07779325,0.09359595,1.3406675,0.019307904,-0.123970054,0.17283903
1747679467.500541,0.07779325,0.09359595,1.3406675,0.019307904,-0.123970054,0.17283903
1747679467.5010798,0.07779325,0.09359595,1.3406675,0.019307904,-0.123970054,0.17283903
1747679467.501621,0.07779325,0.09359595,1.3406675,0.019307904,-0.123970054,0.17283903
1747679467.5021782,0.07779325,0.09359595,1.3406675,0.019307904,-0.123970054,0.17283903
1747679467.5029619,0.07779325,0.09359595,1.3406675,0.019307904,-0.123970054,0.17283903
1747679467.5035136,0.07779325,0.09359595,1.3406675,0.019307904,-0.123970054,0.17283903
1747679467.5040348,0.07779325,0.09359595,1.3406675,0.019307904,-0.123970054,0.17283903
1747679467.5045621,0.07779325,0.09359595,1.3406675,0.019307904,-0.123970054,0.17283903
1747679467.50509,0.07779325,0.09359595,1.3406675,0.019307904,-0.123970054,0.17283903
1747679467.505621,0.07779325,0.09359595,1.3406675,0.019307904,-0.123970054,0.17283903
1747679467.5061579,0.07779325,0.09359595,1.3406675,0.019307904,-0.123970054,0.17283903
1747679467.506687,0.105615765,0.12483528,1.4046105,0.1716406,-0.20599535,0.20160115
1747679467.5072193,0.105615765,0.12483528,1.4046105,0.1716406,-0.20599535,0.20160115
1747679467.5077438,0.105615765,0.12483528,1.4046105,0.1716406,-0.20599535,0.20160115
1747679467.508268,0.105615765,0.12483528,1.4046105,0.1716406,-0.20599535,0.20160115
1747679467.508792,0.105615765,0.12483528,1.4046105,0.1716406,-0.20599535,0.20160115
1747679467.5093389,0.105615765,0.12483528,1.4046105,0.1716406,-0.20599535,0.20160115
1747679467.5098658,0.105615765,0.12483528,1.4046105,0.1716406,-0.20599535,0.20160115
1747679467.510397,0.105615765,0.12483528,1.4046105,0.1716406,-0.20599535,0.20160115
1747679467.5109217,0.105615765,0.12483528,1.4046105,0.1716406,-0.20599535,0.20160115
1747679467.5114462,0.105615765,0.12483528,1.4046105,0.1716406,-0.20599535,0.20160115
1747679467.51197,0.105615765,0.12483528,1.4046105,0.1716406,-0.20599535,0.20160115
1747679467.5124938,0.105615765,0.12483528,1.4046105,0.1716406,-0.20599535,0.20160115
1747679467.513023,0.13392642,0.13703814,1.4592793,0.1716406,-0.20599535,0.20160115
1747679467.5135758,0.13392642,0.13703814,1.4592793,0.1716406,-0.20599535,0.20160115
1747679467.514109,0.13392642,0.13703814,1.4592793,0.28242803,-0.22943115,0.2058622
1747679467.5146399,0.13392642,0.13703814,1.4592793,0.28242803,-0.22943115,0.2058622
1747679467.5151646,0.13392642,0.13703814,1.4592793,0.28242803,-0.22943115,0.2058622
1747679467.5156891,0.13392642,0.13703814,1.4592793,0.28242803,-0.22943115,0.2058622
1747679467.5162134,0.13392642,0.13703814,1.4592793,0.28242803,-0.22943115,0.2058622
1747679467.5167599,0.13392642,0.13703814,1.4592793,0.28242803,-0.22943115,0.2058622
1747679467.5172853,0.13392642,0.13703814,1.4592793,0.28242803,-0.22943115,0.2058622
1747679467.5178313,0.13392642,0.13703814,1.4592793,0.28242803,-0.22943115,0.2058622
1747679467.5183923,0.13392642,0.13703814,1.4592793,0.28242803,-0.22943115,0.2058622
1747679467.5189304,0.13392642,0.13703814,1.4592793,0.28242803,-0.22943115,0.2058622
1747679467.519455,0.13392642,0.13703814,1.4592793,0.28242803,-0.22943115,0.2058622
1747679467.5199971,0.18322599,0.15119347,1.4983284,0.28242803,-0.22943115,0.2058622
1747679467.5205383,0.18322599,0.15119347,1.4983284,0.28242803,-0.22943115,0.2058622
1747679467.521072,0.18322599,0.15119347,1.4983284,0.4379565,-0.25925854,0.18349166
1747679467.5216074,0.18322599,0.15119347,1.4983284,0.4379565,-0.25925854,0.18349166
1747679467.5221324,0.18322599,0.15119347,1.4983284,0.4379565,-0.25925854,0.18349166
1747679467.522657,0.18322599,0.15119347,1.4983284,0.4379565,-0.25925854,0.18349166
1747679467.523181,0.18322599,0.15119347,1.4983284,0.4379565,-0.25925854,0.18349166
1747679467.5237212,0.18322599,0.15119347,1.4983284,0.4379565,-0.25925854,0.18349166
1747679467.5242481,0.18322599,0.15119347,1.4983284,0.4379565,-0.25925854,0.18349166
1747679467.524873,0.18322599,0.15119347,1.4983284,0.4379565,-0.25925854,0.18349166
1747679467.5254412,0.18322599,0.15119347,1.4983284,0.4379565,-0.25925854,0.18349166
1747679467.5260046,0.18322599,0.15119347,1.4983284,0.4379565,-0.25925854,0.18349166
1747679467.5265157,0.18322599,0.15119347,1.4983284,0.4379565,-0.25925854,0.18349166
1747679467.5270464,0.18322599,0.15119347,1.4983284,0.4379565,-0.25925854,0.18349166
1747679467.5275707,0.18322599,0.15119347,1.4983284,0.4379565,-0.25925854,0.18349166
1747679467.528095,0.18322599,0.15119347,1.4983284,0.4379565,-0.25925854,0.18349166
1747679467.5286195,0.18322599,0.15119347,1.4983284,0.4379565,-0.25925854,0.18349166
1747679467.5291438,0.18322599,0.15119347,1.4983284,0.4379565,-0.25925854,0.18349166
1747679467.5296676,0.18322599,0.15119347,1.4983284,0.4379565,-0.25925854,0.18349166
1747679467.5301967,0.18322599,0.15119347,1.4983284,0.589224,-0.2816291,0.13448954
1747679467.530736,0.20616737,0.1726705,1.521758,0.589224,-0.2816291,0.13448954
1747679467.5312705,0.20616737,0.1726705,1.521758,0.589224,-0.2816291,0.13448954
1747679467.5318189,0.20616737,0.1726705,1.521758,0.589224,-0.2816291,0.13448954
1747679467.5323482,0.20616737,0.1726705,1.521758,0.589224,-0.2816291,0.13448954
1747679467.5328946,0.20616737,0.1726705,1.521758,0.589224,-0.2816291,0.13448954
1747679467.5334342,0.20616737,0.1726705,1.521758,0.589224,-0.2816291,0.13448954
1747679467.5339892,0.20616737,0.1726705,1.521758,0.589224,-0.2816291,0.13448954
1747679467.5345297,0.20616737,0.1726705,1.521758,0.589224,-0.2816291,0.13448954
1747679467.535087,0.20616737,0.1726705,1.521758,0.589224,-0.2816291,0.13448954
1747679467.535612,0.20616737,0.1726705,1.521758,0.589224,-0.2816291,0.13448954
1747679467.5361314,0.20616737,0.1726705,1.521758,0.589224,-0.2816291,0.13448954
1747679467.53665,0.20616737,0.1726705,1.521758,0.589224,-0.2816291,0.13448954
1747679467.5371687,0.20616737,0.1726705,1.521758,0.589224,-0.2816291,0.13448954
1747679467.5376868,0.20616737,0.1726705,1.521758,0.589224,-0.2816291,0.13448954
1747679467.5382051,0.20616737,0.1726705,1.521758,0.589224,-0.2816291,0.13448954
1747679467.5387228,0.20616737,0.1726705,1.521758,0.589224,-0.2816291,0.13448954
1747679467.5392406,0.20616737,0.1726705,1.521758,0.589224,-0.2816291,0.13448954
1747679467.539759,0.20616737,0.1726705,1.521758,0.589224,-0.2816291,0.13448954
1747679467.5403047,0.20616737,0.1726705,1.521758,0.589224,-0.2816291,0.13448954
1747679467.5408473,0.20616737,0.1726705,1.521758,0.589224,-0.2816291,0.13448954
1747679467.5413797,0.20616737,0.1726705,1.521758,0.589224,-0.2816291,0.13448954
1747679467.5418994,0.20616737,0.1726705,1.521758,0.589224,-0.2816291,0.13448954
1747679467.5424178,0.20616737,0.1726705,1.521758,0.589224,-0.2816291,0.13448954
1747679467.5429358,0.20616737,0.1726705,1.521758,0.589224,-0.2816291,0.13448954
1747679467.5434616,0.20616737,0.1726705,1.521758,0.589224,-0.2816291,0.13448954
1747679467.5439794,0.20616737,0.1726705,1.521758,0.589224,-0.2816291,0.13448954
1747679467.5445065,0.20616737,0.1726705,1.521758,0.589224,-0.2816291,0.13448954
1747679467.5450351,0.20616737,0.1726705,1.521758,0.589224,-0.2816291,0.13448954
1747679467.545555,0.20616737,0.1726705,1.521758,0.589224,-0.2816291,0.13448954
1747679467.5460737,0.20616737,0.1726705,1.521758,0.589224,-0.2816291,0.13448954
1747679467.5465949,0.20616737,0.1726705,1.521758,0.589224,-0.2816291,0.13448954
1747679467.5471158,0.20616737,0.1726705,1.521758,0.589224,-0.2816291,0.13448954
1747679467.5476444,0.20616737,0.1726705,1.521758,0.589224,-0.2816291,0.13448954
1747679467.548207,0.20616737,0.1726705,1.521758,0.589224,-0.2816291,0.13448954
1747679467.5487573,0.20616737,0.1726705,1.521758,0.589224,-0.2816291,0.13448954
1747679467.5492928,0.20616737,0.1726705,1.521758,0.589224,-0.2816291,0.13448954
1747679467.5498147,0.20616737,0.1726705,1.521758,0.589224,-0.2816291,0.13448954
1747679467.5503356,0.20616737,0.1726705,1.521758,0.589224,-0.2816291,0.13448954
1747679467.550857,0.20616737,0.1726705,1.521758,0.589224,-0.2816291,0.13448954
1747679467.551378,0.20616737,0.1726705,1.521758,0.589224,-0.2816291,0.13448954
1747679467.5518994,0.20616737,0.1726705,1.521758,0.589224,-0.2816291,0.13448954
1747679467.5524201,0.20616737,0.1726705,1.521758,0.589224,-0.2816291,0.13448954
1747679467.5529404,0.20616737,0.1726705,1.521758,0.589224,-0.2816291,0.13448954
1747679467.5534613,0.20616737,0.1726705,1.521758,0.589224,-0.2816291,0.13448954
1747679467.5539887,0.20616737,0.1726705,1.521758,0.589224,-0.2816291,0.13448954
1747679467.5545177,0.20616737,0.1726705,1.521758,0.589224,-0.2816291,0.13448954
1747679467.5550652,0.20616737,0.1726705,1.521758,0.589224,-0.2816291,0.13448954
1747679467.5556319,0.20616737,0.1726705,1.521758,0.589224,-0.2816291,0.13448954
1747679467.556184,0.20616737,0.1726705,1.521758,0.589224,-0.2816291,0.13448954
1747679467.5567353,0.21153662,0.22197007,1.552021,0.89069355,-0.2720417,0.030093698
1747679467.5572708,0.21153662,0.22197007,1.552021,0.89069355,-0.2720417,0.030093698
1747679467.5577924,0.21153662,0.22197007,1.552021,0.89069355,-0.2720417,0.030093698
1747679467.5583134,0.21153662,0.22197007,1.552021,0.89069355,-0.2720417,0.030093698
1747679467.558834,0.21153662,0.22197007,1.552021,0.89069355,-0.2720417,0.030093698
1747679467.5593548,0.21153662,0.22197007,1.552021,0.89069355,-0.2720417,0.030093698
1747679467.5598755,0.21153662,0.22197007,1.552021,0.89069355,-0.2720417,0.030093698
1747679467.5603974,0.21885833,0.24003032,1.5617833,0.89069355,-0.2720417,0.030093698
1747679467.5609183,0.21885833,0.24003032,1.5617833,0.89069355,-0.2720417,0.030093698
1747679467.5614424,0.21885833,0.24003032,1.5617833,0.89069355,-0.2720417,0.030093698
1747679467.56195,0.21885833,0.24003032,1.5617833,1.0472873,-0.2283659,-0.012516848
1747679467.5624697,0.21885833,0.24003032,1.5617833,1.0472873,-0.2283659,-0.012516848
1747679467.5629878,0.21885833,0.24003032,1.5617833,1.0472873,-0.2283659,-0.012516848
1747679467.5635183,0.21885833,0.24003032,1.5617833,1.0472873,-0.2283659,-0.012516848
1747679467.5640829,0.21885833,0.24003032,1.5617833,1.0472873,-0.2283659,-0.012516848
1747679467.564642,0.21885833,0.24003032,1.5617833,1.0472873,-0.2283659,-0.012516848
1747679467.5651753,0.21885833,0.24003032,1.5617833,1.0472873,-0.2283659,-0.012516848
1747679467.565695,0.21885833,0.24003032,1.5617833,1.0472873,-0.2283659,-0.012516848
1747679467.5662134,0.21885833,0.24003032,1.5617833,1.0472873,-0.2283659,-0.012516848
1747679467.566732,0.21885833,0.24003032,1.5617833,1.0472873,-0.2283659,-0.012516848
1747679467.5672503,0.21885833,0.24003032,1.5617833,1.0472873,-0.2283659,-0.012516848
1747679467.5677686,0.21885833,0.24003032,1.5617833,1.0472873,-0.2283659,-0.012516848
1747679467.568287,0.21885833,0.24003032,1.5617833,1.0472873,-0.2283659,-0.012516848
1747679467.568805,0.21885833,0.24003032,1.5617833,1.0472873,-0.2283659,-0.012516848
1747679467.569323,0.21885833,0.24003032,1.5617833,1.0472873,-0.2283659,-0.012516848
1747679467.569841,0.21885833,0.24003032,1.5617833,1.0472873,-0.2283659,-0.012516848
1747679467.5703833,0.21885833,0.24003032,1.5617833,1.0472873,-0.2283659,-0.012516848
1747679467.5709305,0.21885833,0.24003032,1.5617833,1.0472873,-0.2283659,-0.012516848
1747679467.5714588,0.21885833,0.24003032,1.5617833,1.0472873,-0.2283659,-0.012516848
1747679467.5719798,0.21885833,0.24003032,1.5617833,1.0472873,-0.2283659,-0.012516848
1747679467.5724978,0.21885833,0.24003032,1.5617833,1.0472873,-0.2283659,-0.012516848
1747679467.5730164,0.21885833,0.24003032,1.5617833,1.0472873,-0.2283659,-0.012516848
1747679467.5735347,0.21885833,0.24003032,1.5617833,1.0472873,-0.2283659,-0.012516848
1747679467.5740542,0.23545423,0.242959,1.5481162,1.0472873,-0.2283659,-0.012516848
1747679467.5745862,0.23545423,0.242959,1.5481162,1.0472873,-0.2283659,-0.012516848
1747679467.5751219,0.23545423,0.242959,1.5481162,1.0472873,-0.2283659,-0.012516848
1747679467.5756416,0.23545423,0.242959,1.5481162,1.0472873,-0.2283659,-0.012516848
1747679467.5761597,0.23545423,0.242959,1.5481162,1.0472873,-0.2283659,-0.012516848
1747679467.5766776,0.23545423,0.242959,1.5481162,1.0472873,-0.2283659,-0.012516848
1747679467.5771954,0.23545423,0.242959,1.5481162,1.0472873,-0.2283659,-0.012516848
1747679467.5777135,0.23545423,0.242959,1.5481162,1.0472873,-0.2283659,-0.012516848
1747679467.5782597,0.23545423,0.242959,1.5481162,1.0472873,-0.2283659,-0.012516848
1747679467.578794,0.23545423,0.242959,1.5481162,1.0472873,-0.2283659,-0.012516848
1747679467.579325,0.23545423,0.242959,1.5481162,1.0472873,-0.2283659,-0.012516848
1747679467.5798795,0.23545423,0.242959,1.5481162,1.1772494,-0.15592797,-0.055127393
1747679467.5804563,0.23545423,0.242959,1.5481162,1.1772494,-0.15592797,-0.055127393
1747679467.5809896,0.23545423,0.242959,1.5481162,1.1772494,-0.15592797,-0.055127393
1747679467.5815098,0.23545423,0.242959,1.5481162,1.1772494,-0.15592797,-0.055127393
1747679467.582029,0.23545423,0.242959,1.5481162,1.1772494,-0.15592797,-0.055127393
1747679467.5825496,0.23545423,0.242959,1.5481162,1.1772494,-0.15592797,-0.055127393
1747679467.5830708,0.268646,0.2507688,1.5320083,1.2677969,-0.10692584,-0.13928322
1747679467.5835893,0.268646,0.2507688,1.5320083,1.2677969,-0.10692584,-0.13928322
1747679467.5841184,0.268646,0.2507688,1.5320083,1.2677969,-0.10692584,-0.13928322
1747679467.5846517,0.268646,0.2507688,1.5320083,1.2677969,-0.10692584,-0.13928322
1747679467.5851717,0.268646,0.2507688,1.5320083,1.2677969,-0.10692584,-0.13928322
1747679467.5857263,0.268646,0.2507688,1.5320083,1.2677969,-0.10692584,-0.13928322
1747679467.5862632,0.268646,0.2507688,1.5320083,1.2677969,-0.10692584,-0.13928322
1747679467.5868313,0.268646,0.2507688,1.5320083,1.2677969,-0.10692584,-0.13928322
1747679467.587393,0.268646,0.2507688,1.5320083,1.2677969,-0.10692584,-0.13928322
1747679467.5880008,0.268646,0.2507688,1.5320083,1.2677969,-0.10692584,-0.13928322
1747679467.5885499,0.268646,0.2507688,1.5320083,1.2677969,-0.10692584,-0.13928322
1747679467.589161,0.268646,0.2507688,1.5320083,1.2677969,-0.10692584,-0.13928322
1747679467.5897129,0.268646,0.2507688,1.5320083,1.2677969,-0.10692584,-0.13928322
1747679467.5902615,0.268646,0.2507688,1.5320083,1.2677969,-0.10692584,-0.13928322
1747679467.5908225,0.268646,0.2507688,1.5320083,1.3008201,-0.0962732,-0.22663485
1747679467.5913613,0.268646,0.2507688,1.5320083,1.3008201,-0.0962732,-0.22663485
1747679467.5918877,0.29793286,0.2810319,1.5456756,1.3008201,-0.0962732,-0.22663485
1747679467.5924065,0.29793286,0.2810319,1.5456756,1.3008201,-0.0962732,-0.22663485
1747679467.5929255,0.29793286,0.2810319,1.5456756,1.3008201,-0.0962732,-0.22663485
1747679467.593444,0.29793286,0.2810319,1.5456756,1.3008201,-0.0962732,-0.22663485
1747679467.5939753,0.29793286,0.2810319,1.5456756,1.3008201,-0.0962732,-0.22663485
1747679467.5945446,0.29793286,0.2810319,1.5456756,1.3008201,-0.0962732,-0.22663485
1747679467.5950928,0.29793286,0.2810319,1.5456756,1.3008201,-0.0962732,-0.22663485
1747679467.5956259,0.29793286,0.2810319,1.5456756,1.3008201,-0.0962732,-0.22663485
1747679467.596146,0.29793286,0.2810319,1.5456756,1.3008201,-0.0962732,-0.22663485
1747679467.5966651,0.29793286,0.2810319,1.5456756,1.3008201,-0.0962732,-0.22663485
1747679467.5971835,0.29793286,0.2810319,1.5456756,1.3008201,-0.0962732,-0.22663485
1747679467.5977018,0.29793286,0.2810319,1.5456756,1.3008201,-0.0962732,-0.22663485
1747679467.5982203,0.29793286,0.2810319,1.5456756,1.3008201,-0.0962732,-0.22663485
1747679467.5987394,0.29793286,0.2810319,1.5456756,1.3008201,-0.0962732,-0.22663485
1747679467.5992572,0.29793286,0.2810319,1.5456756,1.3008201,-0.0962732,-0.22663485
1747679467.5997756,0.29793286,0.2810319,1.5456756,1.3008201,-0.0962732,-0.22663485
1747679467.6002936,0.29793286,0.2810319,1.5456756,1.3008201,-0.0962732,-0.22663485
1747679467.6008115,0.29793286,0.2810319,1.5456756,1.3008201,-0.0962732,-0.22663485
1747679467.6013405,0.29793286,0.2810319,1.5456756,1.3008201,-0.0962732,-0.22663485
1747679467.6018658,0.29793286,0.2810319,1.5456756,1.3008201,-0.0962732,-0.22663485
1747679467.6023848,0.29793286,0.2810319,1.5456756,1.3008201,-0.0962732,-0.22663485
1747679467.6029034,0.29793286,0.2810319,1.5456756,1.3008201,-0.0962732,-0.22663485
1747679467.603422,0.29793286,0.2810319,1.5456756,1.3008201,-0.0962732,-0.22663485
1747679467.6039507,0.31648123,0.28884175,1.5842366,1.3295822,-0.11225215,-0.30226856
1747679467.6044853,0.31648123,0.28884175,1.5842366,1.3295822,-0.11225215,-0.30226856
1747679467.605006,0.31648123,0.28884175,1.5842366,1.3295822,-0.11225215,-0.30226856
1747679467.6055245,0.31648123,0.28884175,1.5842366,1.3295822,-0.11225215,-0.30226856
1747679467.6060424,0.31648123,0.28884175,1.5842366,1.3295822,-0.11225215,-0.30226856
1747679467.6065605,0.31648123,0.28884175,1.5842366,1.3295822,-0.11225215,-0.30226856
1747679467.6070783,0.31648123,0.28884175,1.5842366,1.3295822,-0.11225215,-0.30226856
1747679467.6075964,0.31648123,0.28884175,1.5842366,1.3295822,-0.11225215,-0.30226856
1747679467.6081142,0.31648123,0.28884175,1.5842366,1.3295822,-0.11225215,-0.30226856
1747679467.6086323,0.31648123,0.28884175,1.5842366,1.3295822,-0.11225215,-0.30226856
1747679467.6091504,0.31648123,0.28884175,1.5842366,1.3295822,-0.11225215,-0.30226856
1747679467.609697,0.31648123,0.28884175,1.5842366,1.3295822,-0.11225215,-0.30226856
1747679467.6102436,0.31648123,0.28884175,1.5842366,1.3295822,-0.11225215,-0.30226856
1747679467.6108105,0.31648123,0.28884175,1.5842366,1.3295822,-0.11225215,-0.30226856
1747679467.6113439,0.31648123,0.28884175,1.5842366,1.3295822,-0.11225215,-0.30226856
1747679467.6118655,0.31648123,0.28884175,1.5842366,1.3295822,-0.11225215,-0.30226856
1747679467.6123865,0.34772056,0.27810323,1.6384172,1.3881717,-0.10053425,-0.4034686
1747679467.612905,0.34772056,0.27810323,1.6384172,1.3881717,-0.10053425,-0.4034686
1747679467.613436,0.34772056,0.27810323,1.6384172,1.3881717,-0.10053425,-0.4034686
1747679467.6139543,0.34772056,0.27810323,1.6384172,1.3881717,-0.10053425,-0.4034686
1747679467.614486,0.34772056,0.27810323,1.6384172,1.3881717,-0.10053425,-0.4034686
1747679467.6150236,0.34772056,0.27810323,1.6384172,1.3881717,-0.10053425,-0.4034686
1747679467.6155436,0.34772056,0.27810323,1.6384172,1.3881717,-0.10053425,-0.4034686
1747679467.61616,0.34772056,0.27810323,1.6384172,1.3881717,-0.10053425,-0.4034686
1747679467.6167307,0.34772056,0.27810323,1.6384172,1.3881717,-0.10053425,-0.4034686
1747679467.6172764,0.34772056,0.27810323,1.6384172,1.3881717,-0.10053425,-0.4034686
1747679467.6178203,0.34772056,0.27810323,1.6384172,1.3881717,-0.10053425,-0.4034686
1747679467.6183608,0.34772056,0.27810323,1.6384172,1.3881717,-0.10053425,-0.4034686
1747679467.6188939,0.34772056,0.27810323,1.6384172,1.3881717,-0.10053425,-0.4034686
1747679467.6194155,0.34772056,0.27810323,1.6384172,1.3881717,-0.10053425,-0.4034686
1747679467.6199367,0.34772056,0.27810323,1.6384172,1.3881717,-0.10053425,-0.4034686
1747679467.6204555,0.34772056,0.27810323,1.6384172,1.3881717,-0.10053425,-0.4034686
1747679467.6209736,0.34772056,0.27810323,1.6384172,1.3881717,-0.10053425,-0.4034686
1747679467.6214952,0.34772056,0.27810323,1.6384172,1.3881717,-0.10053425,-0.4034686
1747679467.622016,0.34772056,0.27810323,1.6384172,1.3881717,-0.10053425,-0.4034686
1747679467.6225345,0.34772056,0.27810323,1.6384172,1.3881717,-0.10053425,-0.4034686
1747679467.6230524,0.34772056,0.27810323,1.6384172,1.3881717,-0.10053425,-0.4034686
1747679467.6235836,0.34772056,0.27810323,1.6384172,1.3881717,-0.10053425,-0.4034686
1747679467.6241357,0.3755431,0.260043,1.7004079,1.3881717,-0.10053425,-0.4034686
1747679467.6246607,0.3755431,0.260043,1.7004079,1.4691317,-0.070706874,-0.5174518
1747679467.62518,0.3755431,0.260043,1.7004079,1.4691317,-0.070706874,-0.5174518
1747679467.6257286,0.3755431,0.260043,1.7004079,1.4691317,-0.070706874,-0.5174518
1747679467.6262743,0.3755431,0.260043,1.7004079,1.4691317,-0.070706874,-0.5174518
1747679467.6268382,0.3755431,0.260043,1.7004079,1.4691317,-0.070706874,-0.5174518
1747679467.6273718,0.3755431,0.260043,1.7004079,1.4691317,-0.070706874,-0.5174518
1747679467.6278913,0.3755431,0.260043,1.7004079,1.4691317,-0.070706874,-0.5174518
1747679467.6284096,0.3755431,0.260043,1.7004079,1.4691317,-0.070706874,-0.5174518
1747679467.628928,0.3755431,0.260043,1.7004079,1.4691317,-0.070706874,-0.5174518
1747679467.6294467,0.3755431,0.260043,1.7004079,1.4691317,-0.070706874,-0.5174518
1747679467.629965,0.3755431,0.260043,1.7004079,1.4691317,-0.070706874,-0.5174518
1747679467.6304832,0.3755431,0.260043,1.7004079,1.4691317,-0.070706874,-0.5174518
1747679467.6310413,0.3755431,0.260043,1.7004079,1.4691317,-0.070706874,-0.5174518
1747679467.6315875,0.3755431,0.260043,1.7004079,1.4691317,-0.070706874,-0.5174518
1747679467.6321127,0.3755431,0.260043,1.7004079,1.4691317,-0.070706874,-0.5174518
1747679467.6326315,0.3755431,0.260043,1.7004079,1.4691317,-0.070706874,-0.5174518
1747679467.6331496,0.3755431,0.260043,1.7004079,1.4691317,-0.070706874,-0.5174518
1747679467.6336808,0.3755431,0.260043,1.7004079,1.4691317,-0.070706874,-0.5174518
1747679467.6342185,0.3755431,0.260043,1.7004079,1.4691317,-0.070706874,-0.5174518
1747679467.6347384,0.3755431,0.260043,1.7004079,1.4691317,-0.070706874,-0.5174518
1747679467.6352568,0.3755431,0.260043,1.7004079,1.4691317,-0.070706874,-0.5174518
1747679467.6357775,0.39750823,0.23075612,1.8077931,1.591637,-0.021704746,-0.667654
1747679467.6362984,0.39750823,0.23075612,1.8077931,1.591637,-0.021704746,-0.667654
1747679467.6368167,0.39750823,0.23075612,1.8077931,1.591637,-0.021704746,-0.667654
1747679467.6373858,0.39750823,0.23075612,1.8077931,1.591637,-0.021704746,-0.667654
1747679467.6379058,0.39750823,0.23075612,1.8077931,1.591637,-0.021704746,-0.667654
1747679467.6384246,0.39750823,0.23075612,1.8077931,1.591637,-0.021704746,-0.667654
1747679467.6389427,0.39750823,0.23075612,1.8077931,1.591637,-0.021704746,-0.667654
1747679467.6394606,0.39750823,0.23075612,1.8077931,1.591637,-0.021704746,-0.667654
1747679467.6399791,0.39750823,0.23075612,1.8077931,1.591637,-0.021704746,-0.667654
1747679467.6404998,0.4165447,0.20879097,1.9068804,1.591637,-0.021704746,-0.667654
1747679467.6410213,0.4165447,0.20879097,1.9068804,1.7056203,0.027297381,-0.7667235
1747679467.641551,0.4165447,0.20879097,1.9068804,1.7056203,0.027297381,-0.7667235
1747679467.6421087,0.4165447,0.20879097,1.9068804,1.7056203,0.027297381,-0.7667235
1747679467.6426542,0.4165447,0.20879097,1.9068804,1.7056203,0.027297381,-0.7667235
1747679467.6431954,0.4165447,0.20879097,1.9068804,1.7056203,0.027297381,-0.7667235
1747679467.6437306,0.4165447,0.20879097,1.9068804,1.7056203,0.027297381,-0.7667235
1747679467.6442697,0.4165447,0.20879097,1.9068804,1.7056203,0.027297381,-0.7667235
1747679467.6447897,0.4165447,0.20879097,1.9068804,1.7056203,0.027297381,-0.7667235
1747679467.6453085,0.4165447,0.20879097,1.9068804,1.7056203,0.027297381,-0.7667235
1747679467.645827,0.4165447,0.20879097,1.9068804,1.7056203,0.027297381,-0.7667235
1747679467.6463742,0.4165447,0.20879097,1.9068804,1.7056203,0.027297381,-0.7667235
1747679467.6469407,0.4165447,0.20879097,1.9068804,1.7056203,0.027297381,-0.7667235
1747679467.6475043,0.4165447,0.20879097,1.9068804,1.7056203,0.027297381,-0.7667235
1747679467.6480727,0.4165447,0.20879097,1.9068804,1.7056203,0.027297381,-0.7667235
1747679467.6486275,0.4165447,0.20879097,1.9068804,1.7056203,0.027297381,-0.7667235
1747679467.649155,0.4165447,0.20879097,1.9068804,1.7056203,0.027297381,-0.7667235
1747679467.649676,0.4165447,0.20879097,1.9068804,1.7056203,0.027297381,-0.7667235
1747679467.650221,0.4165447,0.20879097,1.9068804,1.894172,0.08375636,-0.9041425
1747679467.6507502,0.4458316,0.17559919,2.0528266,1.894172,0.08375636,-0.9041425
1747679467.6512713,0.4458316,0.17559919,2.0528266,1.894172,0.08375636,-0.9041425
1747679467.6517923,0.4458316,0.17559919,2.0528266,1.894172,0.08375636,-0.9041425
1747679467.652313,0.4458316,0.17559919,2.0528266,1.894172,0.08375636,-0.9041425
1747679467.6528337,0.4458316,0.17559919,2.0528266,1.894172,0.08375636,-0.9041425
1747679467.6533554,0.4458316,0.17559919,2.0528266,1.894172,0.08375636,-0.9041425
1747679467.6538832,0.4458316,0.17559919,2.0528266,1.894172,0.08375636,-0.9041425
1747679467.6544154,0.4458316,0.17559919,2.0528266,1.894172,0.08375636,-0.9041425
1747679467.6549377,0.4458316,0.17559919,2.0528266,1.894172,0.08375636,-0.9041425
1747679467.6554582,0.4458316,0.17559919,2.0528266,1.894172,0.08375636,-0.9041425
1747679467.6559792,0.4458316,0.17559919,2.0528266,1.894172,0.08375636,-0.9041425
1747679467.6565003,0.4458316,0.17559919,2.0528266,1.894172,0.08375636,-0.9041425
1747679467.657021,0.4458316,0.17559919,2.0528266,1.894172,0.08375636,-0.9041425
1747679467.6575513,0.4458316,0.17559919,2.0528266,1.894172,0.08375636,-0.9041425
1747679467.6581063,0.4458316,0.17559919,2.0528266,1.894172,0.08375636,-0.9041425
1747679467.6586506,0.4458316,0.17559919,2.0528266,1.894172,0.08375636,-0.9041425
1747679467.659186,0.4458316,0.17559919,2.0528266,1.894172,0.08375636,-0.9041425
1747679467.6597075,0.4458316,0.17559919,2.0528266,1.894172,0.08375636,-0.9041425
1747679467.6602316,0.4458316,0.17559919,2.0528266,1.894172,0.08375636,-0.9041425
1747679467.6607537,0.4458316,0.17559919,2.0528266,1.894172,0.08375636,-0.9041425
1747679467.6612816,0.4458316,0.17559919,2.0528266,1.894172,0.08375636,-0.9041425
1747679467.66181,0.44876027,0.13118076,2.1753433,2.2233384,0.22756694,-1.0767152
1747679467.6623511,0.44876027,0.13118076,2.1753433,2.2233384,0.22756694,-1.0767152
1747679467.6628754,0.44876027,0.13118076,2.1753433,2.2233384,0.22756694,-1.0767152
1747679467.6633942,0.44876027,0.13118076,2.1753433,2.2233384,0.22756694,-1.0767152
1747679467.6639261,0.44876027,0.13118076,2.1753433,2.2233384,0.22756694,-1.0767152
1747679467.6644628,0.44876027,0.13118076,2.1753433,2.2233384,0.22756694,-1.0767152
1747679467.6649826,0.44876027,0.13118076,2.1753433,2.2233384,0.22756694,-1.0767152
1747679467.6655009,0.44876027,0.13118076,2.1753433,2.2233384,0.22756694,-1.0767152
1747679467.6660194,0.44876027,0.13118076,2.1753433,2.2233384,0.22756694,-1.0767152
1747679467.6665373,0.44876027,0.13118076,2.1753433,2.2233384,0.22756694,-1.0767152
1747679467.6670554,0.44876027,0.13118076,2.1753433,2.2233384,0.22756694,-1.0767152
1747679467.6675735,0.44876027,0.13118076,2.1753433,2.2233384,0.22756694,-1.0767152
1747679467.6680913,0.44876027,0.13118076,2.1753433,2.2233384,0.22756694,-1.0767152
1747679467.6686096,0.44876027,0.13118076,2.1753433,2.2233384,0.22756694,-1.0767152
1747679467.6691287,0.44876027,0.13118076,2.1753433,2.2233384,0.22756694,-1.0767152
1747679467.6696477,0.41556847,0.06919023,2.2109756,2.2233384,0.22756694,-1.0767152
1747679467.6701658,0.41556847,0.06919023,2.2109756,2.2233384,0.22756694,-1.0767152
1747679467.6706846,0.41556847,0.06919023,2.2109756,2.2233384,0.22756694,-1.0767152
1747679467.6712031,0.41556847,0.06919023,2.2109756,2.4758058,0.40546596,-1.152349
1747679467.6717212,0.41556847,0.06919023,2.2109756,2.4758058,0.40546596,-1.152349
1747679467.6722677,0.41556847,0.06919023,2.2109756,2.4758058,0.40546596,-1.152349
1747679467.672818,0.41556847,0.06919023,2.2109756,2.4758058,0.40546596,-1.152349
1747679467.6733804,0.41556847,0.06919023,2.2109756,2.4758058,0.40546596,-1.152349
1747679467.6739204,0.41556847,0.06919023,2.2109756,2.4758058,0.40546596,-1.152349
1747679467.674455,0.41556847,0.06919023,2.2109756,2.4758058,0.40546596,-1.152349
1747679467.675012,0.41556847,0.06919023,2.2109756,2.4758058,0.40546596,-1.152349
1747679467.675536,0.41556847,0.06919023,2.2109756,2.4758058,0.40546596,-1.152349
1747679467.6760547,0.41556847,0.06919023,2.2109756,2.4758058,0.40546596,-1.152349
1747679467.676573,0.41556847,0.06919023,2.2109756,2.4758058,0.40546596,-1.152349
1747679467.6771224,0.41556847,0.06919023,2.2109756,2.4758058,0.40546596,-1.152349
1747679467.6776807,0.41556847,0.06919023,2.2109756,2.4758058,0.40546596,-1.152349
1747679467.6782196,0.41556847,0.06919023,2.2109756,2.4758058,0.40546596,-1.152349
1747679467.6787546,0.41556847,0.06919023,2.2109756,2.4758058,0.40546596,-1.152349
1747679467.679287,0.41556847,0.06919023,2.2109756,2.4758058,0.40546596,-1.152349
1747679467.6798065,0.41556847,0.06919023,2.2109756,2.4758058,0.40546596,-1.152349
1747679467.6803248,0.41556847,0.06919023,2.2109756,2.4758058,0.40546596,-1.152349
1747679467.6808438,0.39360332,0.0140332915,2.1606998,2.4758058,0.40546596,-1.152349
1747679467.6813622,0.39360332,0.0140332915,2.1606998,2.4758058,0.40546596,-1.152349
1747679467.6818812,0.39360332,0.0140332915,2.1606998,2.8593009,0.7708514,-1.2258521
1747679467.6823995,0.39360332,0.0140332915,2.1606998,2.8593009,0.7708514,-1.2258521
1747679467.6829178,0.39360332,0.0140332915,2.1606998,2.8593009,0.7708514,-1.2258521
1747679467.6834357,0.39360332,0.0140332915,2.1606998,2.8593009,0.7708514,-1.2258521
1747679467.6839643,0.39360332,0.0140332915,2.1606998,2.8593009,0.7708514,-1.2258521
1747679467.6844945,0.39360332,0.0140332915,2.1606998,2.8593009,0.7708514,-1.2258521
1747679467.6850142,0.39360332,0.0140332915,2.1606998,2.8593009,0.7708514,-1.2258521
1747679467.6855326,0.39360332,0.0140332915,2.1606998,2.8593009,0.7708514,-1.2258521
1747679467.686051,0.39360332,0.0140332915,2.1606998,2.8593009,0.7708514,-1.2258521
1747679467.6865692,0.39360332,0.0140332915,2.1606998,2.8593009,0.7708514,-1.2258521
1747679467.687087,0.39360332,0.0140332915,2.1606998,2.8593009,0.7708514,-1.2258521
1747679467.6876051,0.39360332,0.0140332915,2.1606998,2.8593009,0.7708514,-1.2258521
1747679467.6881547,0.39360332,0.0140332915,2.1606998,2.8593009,0.7708514,-1.2258521
1747679467.6887069,0.39360332,0.0140332915,2.1606998,2.8593009,0.7708514,-1.2258521
1747679467.689275,0.39360332,0.0140332915,2.1606998,2.8593009,0.7708514,-1.2258521
1747679467.6898084,0.39360332,0.0140332915,2.1606998,2.8593009,0.7708514,-1.2258521
1747679467.6903276,0.39360332,0.0140332915,2.1606998,2.8593009,0.7708514,-1.2258521
1747679467.690847,0.3696857,-0.011348662,2.076744,2.8593009,0.7708514,-1.2258521
1747679467.6913662,0.3696857,-0.011348662,2.076744,3.1181598,1.0147967,-1.2652669
1747679467.691885,0.3696857,-0.011348662,2.076744,3.1181598,1.0147967,-1.2652669
1747679467.6924462,0.3696857,-0.011348662,2.076744,3.1181598,1.0147967,-1.2652669
1747679467.692993,0.3696857,-0.011348662,2.076744,3.1181598,1.0147967,-1.2652669
1747679467.6935184,0.3696857,-0.011348662,2.076744,3.1181598,1.0147967,-1.2652669
1747679467.6940472,0.3696857,-0.011348662,2.076744,3.1181598,1.0147967,-1.2652669
1747679467.6945817,0.3696857,-0.011348662,2.076744,3.1181598,1.0147967,-1.2652669
1747679467.695102,0.3696857,-0.011348662,2.076744,3.1181598,1.0147967,-1.2652669
1747679467.6956203,0.3696857,-0.011348662,2.076744,3.1181598,1.0147967,-1.2652669
1747679467.6961384,0.3696857,-0.011348662,2.076744,3.1181598,1.0147967,-1.2652669
1747679467.696657,0.3696857,-0.011348662,2.076744,3.1181598,1.0147967,-1.2652669
1747679467.6971748,0.3696857,-0.011348662,2.076744,3.1181598,1.0147967,-1.2652669
1747679467.6976929,0.3696857,-0.011348662,2.076744,3.1181598,1.0147967,-1.2652669
1747679467.698211,0.3696857,-0.011348662,2.076744,3.1181598,1.0147967,-1.2652669
1747679467.6987293,0.3696857,-0.011348662,2.076744,3.1181598,1.0147967,-1.2652669
1747679467.6992471,0.3696857,-0.011348662,2.076744,3.1181598,1.0147967,-1.2652669
1747679467.6997654,0.3696857,-0.011348662,2.076744,3.1181598,1.0147967,-1.2652669
1747679467.7002833,0.3696857,-0.011348662,2.076744,3.1181598,1.0147967,-1.2652669
1747679467.7008066,0.3696857,-0.011348662,2.076744,3.1181598,1.0147967,-1.2652669
1747679467.701328,0.3696857,-0.011348662,2.076744,3.1181598,1.0147967,-1.2652669
1747679467.701847,0.3277079,-0.021110952,1.8829627,3.1181598,1.0147967,-1.2652669
1747679467.7023678,0.3277079,-0.021110952,1.8829627,3.1181598,1.0147967,-1.2652669
1747679467.7028868,0.3277079,-0.021110952,1.8829627,3.437739,1.2438284,-1.2993553
1747679467.7034056,0.3277079,-0.021110952,1.8829627,3.437739,1.2438284,-1.2993553
1747679467.7039337,0.3277079,-0.021110952,1.8829627,3.437739,1.2438284,-1.2993553
1747679467.7044983,0.3277079,-0.021110952,1.8829627,3.437739,1.2438284,-1.2993553
1747679467.7050564,0.3277079,-0.021110952,1.8829627,3.437739,1.2438284,-1.2993553
1747679467.705602,0.3277079,-0.021110952,1.8829627,3.437739,1.2438284,-1.2993553
1747679467.7061353,0.3277079,-0.021110952,1.8829627,3.437739,1.2438284,-1.2993553
1747679467.7066548,0.3277079,-0.021110952,1.8829627,3.437739,1.2438284,-1.2993553
1747679467.7071726,0.3277079,-0.021110952,1.8829627,3.437739,1.2438284,-1.2993553
1747679467.7077305,0.3277079,-0.021110952,1.8829627,3.437739,1.2438284,-1.2993553
1747679467.708279,0.3277079,-0.021110952,1.8829627,3.437739,1.2438284,-1.2993553
1747679467.7088058,0.3277079,-0.021110952,1.8829627,3.437739,1.2438284,-1.2993553
1747679467.709344,0.3277079,-0.021110952,1.8829627,3.437739,1.2438284,-1.2993553
1747679467.7098768,0.3277079,-0.021110952,1.8829627,3.437739,1.2438284,-1.2993553
1747679467.7103958,0.3277079,-0.021110952,1.8829627,3.437739,1.2438284,-1.2993553
1747679467.7109146,0.3277079,-0.021110952,1.8829627,3.437739,1.2438284,-1.2993553
1747679467.7114332,0.3277079,-0.021110952,1.8829627,3.437739,1.2438284,-1.2993553
1747679467.7119517,0.3277079,-0.021110952,1.8829627,3.437739,1.2438284,-1.2993553
1747679467.71247,0.3277079,-0.021110952,1.8829627,3.437739,1.2438284,-1.2993553
1747679467.7129877,0.3277079,-0.021110952,1.8829627,3.437739,1.2438284,-1.2993553
1747679467.7135062,0.3277079,-0.021110952,1.8829627,3.437739,1.2438284,-1.2993553
1747679467.7140386,0.3277079,-0.021110952,1.8829627,3.437739,1.2438284,-1.2993553
1747679467.714573,0.3277079,-0.021110952,1.8829627,3.437739,1.2438284,-1.2993553
1747679467.7151022,0.31013575,-0.008908089,1.7623985,3.5751579,1.2821779,-1.3217258
1747679467.7156215,0.31013575,-0.008908089,1.7623985,3.5751579,1.2821779,-1.3217258
1747679467.7161396,0.31013575,-0.008908089,1.7623985,3.5751579,1.2821779,-1.3217258
1747679467.7166574,0.31013575,-0.008908089,1.7623985,3.5751579,1.2821779,-1.3217258
1747679467.7171752,0.31013575,-0.008908089,1.7623985,3.5751579,1.2821779,-1.3217258
1747679467.7176929,0.31013575,-0.008908089,1.7623985,3.5751579,1.2821779,-1.3217258
1747679467.7182107,0.31013575,-0.008908089,1.7623985,3.5751579,1.2821779,-1.3217258
1747679467.7187288,0.31013575,-0.008908089,1.7623985,3.5751579,1.2821779,-1.3217258
1747679467.7192762,0.31013575,-0.008908089,1.7623985,3.5751579,1.2821779,-1.3217258
1747679467.71983,0.31013575,-0.008908089,1.7623985,3.5751579,1.2821779,-1.3217258
1747679467.7203999,0.31013575,-0.008908089,1.7623985,3.5751579,1.2821779,-1.3217258
1747679467.7209334,0.31013575,-0.008908089,1.7623985,3.5751579,1.2821779,-1.3217258
1747679467.7214525,0.31013575,-0.008908089,1.7623985,3.5751579,1.2821779,-1.3217258
1747679467.7219708,0.31013575,-0.008908089,1.7623985,3.5751579,1.2821779,-1.3217258
1747679467.7224896,0.31013575,-0.008908089,1.7623985,3.5751579,1.2821779,-1.3217258
1747679467.7230308,0.31013575,-0.008908089,1.7623985,3.5751579,1.2821779,-1.3217258
1747679467.7235773,0.31013575,-0.008908089,1.7623985,3.5751579,1.2821779,-1.3217258
1747679467.7241108,0.27401528,0.01940255,1.6379292,3.6774232,1.2129358,-1.3483574
1747679467.7246382,0.27401528,0.01940255,1.6379292,3.6774232,1.2129358,-1.3483574
1747679467.7251585,0.27401528,0.01940255,1.6379292,3.6774232,1.2129358,-1.3483574
1747679467.725677,0.27401528,0.01940255,1.6379292,3.6774232,1.2129358,-1.3483574
1747679467.726195,0.27401528,0.01940255,1.6379292,3.6774232,1.2129358,-1.3483574
1747679467.7267134,0.27401528,0.01940255,1.6379292,3.6774232,1.2129358,-1.3483574
1747679467.7272315,0.27401528,0.01940255,1.6379292,3.6774232,1.2129358,-1.3483574
1747679467.727749,0.27401528,0.01940255,1.6379292,3.6774232,1.2129358,-1.3483574
1747679467.7282693,0.27401528,0.01940255,1.6379292,3.6774232,1.2129358,-1.3483574
1747679467.7287896,0.27401528,0.01940255,1.6379292,3.6774232,1.2129358,-1.3483574
1747679467.7293081,0.27401528,0.01940255,1.6379292,3.6774232,1.2129358,-1.3483574
1747679467.7298262,0.27401528,0.01940255,1.6379292,3.6774232,1.2129358,-1.3483574
1747679467.7303448,0.23691857,0.021843124,1.5495806,3.7317517,1.0755168,-1.3515532
1747679467.730863,0.23691857,0.021843124,1.5495806,3.7317517,1.0755168,-1.3515532
1747679467.7313812,0.23691857,0.021843124,1.5495806,3.7317517,1.0755168,-1.3515532
1747679467.731899,0.23691857,0.021843124,1.5495806,3.7317517,1.0755168,-1.3515532
1747679467.732417,0.23691857,0.021843124,1.5495806,3.7317517,1.0755168,-1.3515532
1747679467.7329345,0.23691857,0.021843124,1.5495806,3.7317517,1.0755168,-1.3515532
1747679467.7334523,0.23691857,0.021843124,1.5495806,3.7317517,1.0755168,-1.3515532
1747679467.7339702,0.23691857,0.021843124,1.5495806,3.7317517,1.0755168,-1.3515532
1747679467.734496,0.23691857,0.021843124,1.5495806,3.7317517,1.0755168,-1.3515532
1747679467.735037,0.23691857,0.021843124,1.5495806,3.7317517,1.0755168,-1.3515532
1747679467.735605,0.23691857,0.021843124,1.5495806,3.7317517,1.0755168,-1.3515532
1747679467.7361524,0.23691857,0.021843124,1.5495806,3.7317517,1.0755168,-1.3515532
1747679467.7366848,0.23691857,0.021843124,1.5495806,3.7317517,1.0755168,-1.3515532
1747679467.7372043,0.23691857,0.021843124,1.5495806,3.7317517,1.0755168,-1.3515532
1747679467.7378042,0.23691857,0.021843124,1.5495806,3.7317517,1.0755168,-1.3515532
1747679467.7383585,0.23691857,0.021843124,1.5495806,3.7317517,1.0755168,-1.3515532
1747679467.7388852,0.23691857,0.021843124,1.5495806,3.7317517,1.0755168,-1.3515532
1747679467.739417,0.23691857,0.021843124,1.5495806,3.7317517,1.0755168,-1.3515532
1747679467.7399495,0.23691857,0.021843124,1.5495806,3.7317517,1.0755168,-1.3515532
1747679467.740469,0.23691857,0.021843124,1.5495806,3.7317517,1.0755168,-1.3515532
1747679467.740987,0.23691857,0.021843124,1.5495806,3.7317517,1.0755168,-1.3515532
1747679467.7415056,0.23691857,0.021843124,1.5495806,3.7317517,1.0755168,-1.3515532
1747679467.742024,0.23691857,0.021843124,1.5495806,3.7317517,1.0755168,-1.3515532
1747679467.7425418,0.23691857,0.021843124,1.5495806,3.7317517,1.0755168,-1.3515532
1747679467.74306,0.23691857,0.021843124,1.5495806,3.7317517,1.0755168,-1.3515532
1747679467.743598,0.23691857,0.021843124,1.5495806,3.7317517,1.0755168,-1.3515532
1747679467.7441413,0.23594235,0.01159272,1.4866138,3.7626443,0.9167925,-1.3568796
1747679467.7446625,0.23594235,0.01159272,1.4866138,3.7626443,0.9167925,-1.3568796
1747679467.745181,0.23594235,0.01159272,1.4866138,3.7626443,0.9167925,-1.3568796
1747679467.7456994,0.23594235,0.01159272,1.4866138,3.7626443,0.9167925,-1.3568796
1747679467.74622,0.23594235,0.01159272,1.4866138,3.7626443,0.9167925,-1.3568796
1747679467.7467413,0.23594235,0.01159272,1.4866138,3.7626443,0.9167925,-1.3568796
1747679467.7472622,0.23594235,0.01159272,1.4866138,3.7626443,0.9167925,-1.3568796
1747679467.7477832,0.23594235,0.01159272,1.4866138,3.7626443,0.9167925,-1.3568796
1747679467.7483037,0.23594235,0.01159272,1.4866138,3.7626443,0.9167925,-1.3568796
1747679467.7488244,0.23594235,0.01159272,1.4866138,3.7626443,0.9167925,-1.3568796
1747679467.7493453,0.23594235,0.01159272,1.4866138,3.7626443,0.9167925,-1.3568796
1747679467.7498658,0.23594235,0.01159272,1.4866138,3.7626443,0.9167925,-1.3568796
1747679467.7503865,0.23594235,0.01159272,1.4866138,3.7626443,0.9167925,-1.3568796
1747679467.750922,0.23594235,0.01159272,1.4866138,3.7626443,0.9167925,-1.3568796
1747679467.7515247,0.20519114,0.0018304293,1.4412191,3.8084507,0.7964177,-1.3568796
1747679467.7520783,0.20519114,0.0018304293,1.4412191,3.8084507,0.7964177,-1.3568796
1747679467.7526135,0.20519114,0.0018304293,1.4412191,3.8084507,0.7964177,-1.3568796
1747679467.7531579,0.20519114,0.0018304293,1.4412191,3.8084507,0.7964177,-1.3568796
1747679467.753706,0.20519114,0.0018304293,1.4412191,3.8084507,0.7964177,-1.3568796
1747679467.7542434,0.20519114,0.0018304293,1.4412191,3.8084507,0.7964177,-1.3568796
1747679467.7547684,0.20519114,0.0018304293,1.4412191,3.8084507,0.7964177,-1.3568796
1747679467.7552898,0.20519114,0.0018304293,1.4412191,3.8084507,0.7964177,-1.3568796
1747679467.7558103,0.20519114,0.0018304293,1.4412191,3.8084507,0.7964177,-1.3568796
1747679467.7563312,0.20519114,0.0018304293,1.4412191,3.8084507,0.7964177,-1.3568796
1747679467.7568521,0.20519114,0.0018304293,1.4412191,3.8084507,0.7964177,-1.3568796
1747679467.7574527,0.20519114,0.0018304293,1.4412191,3.8084507,0.7964177,-1.3568796
1747679467.7579744,0.20519114,0.0018304293,1.4412191,3.8084507,0.7964177,-1.3568796
1747679467.758495,0.20519114,0.0018304293,1.4412191,3.8084507,0.7964177,-1.3568796
1747679467.7590158,0.20519114,0.0018304293,1.4412191,3.8084507,0.7964177,-1.3568796
1747679467.759537,0.20519114,0.0018304293,1.4412191,3.8084507,0.7964177,-1.3568796
1747679467.7600582,0.20519114,0.0018304293,1.4412191,3.8084507,0.7964177,-1.3568796
1747679467.760583,0.20519114,0.0018304293,1.4412191,3.8084507,0.7964177,-1.3568796
1747679467.7611089,0.1568678,-0.02843267,1.3977768,3.8713012,0.68989134,-1.3195953
1747679467.7616162,0.1568678,-0.02843267,1.3977768,3.8713012,0.68989134,-1.3195953
1747679467.7621348,0.1568678,-0.02843267,1.3977768,3.8713012,0.68989134,-1.3195953
1747679467.7626529,0.1568678,-0.02843267,1.3977768,3.8713012,0.68989134,-1.3195953
1747679467.7631705,0.1568678,-0.02843267,1.3977768,3.8713012,0.68989134,-1.3195953
1747679467.7636886,0.1568678,-0.02843267,1.3977768,3.8713012,0.68989134,-1.3195953
1747679467.7642148,0.1568678,-0.02843267,1.3977768,3.8713012,0.68989134,-1.3195953
1747679467.7647493,0.1568678,-0.02843267,1.3977768,3.8713012,0.68989134,-1.3195953
1747679467.7652688,0.1568678,-0.02843267,1.3977768,3.8713012,0.68989134,-1.3195953
1747679467.765787,0.1568678,-0.02843267,1.3977768,3.8713012,0.68989134,-1.3195953
1747679467.766305,0.1568678,-0.02843267,1.3977768,3.8713012,0.68989134,-1.3195953
1747679467.7668502,0.1568678,-0.02843267,1.3977768,3.8713012,0.68989134,-1.3195953
1747679467.7673948,0.1568678,-0.02843267,1.3977768,3.8713012,0.68989134,-1.3195953
1747679467.767944,0.1568678,-0.02843267,1.3977768,3.8713012,0.68989134,-1.3195953
1747679467.76849,0.1568678,-0.02843267,1.3977768,3.8713012,0.68989134,-1.3195953
1747679467.769034,0.1568678,-0.02843267,1.3977768,3.8713012,0.68989134,-1.3195953
1747679467.76959,0.1568678,-0.02843267,1.3977768,3.8713012,0.68989134,-1.3195953
1747679467.7701714,0.13099772,-0.06064823,1.3401794,3.9991329,0.6866956,-1.2141342
1747679467.7707033,0.13099772,-0.06064823,1.3401794,3.9991329,0.6866956,-1.2141342
1747679467.7712233,0.13099772,-0.06064823,1.3401794,3.9991329,0.6866956,-1.2141342
1747679467.7717416,0.13099772,-0.06064823,1.3401794,3.9991329,0.6866956,-1.2141342
1747679467.7722602,0.13099772,-0.06064823,1.3401794,3.9991329,0.6866956,-1.2141342
1747679467.7727783,0.13099772,-0.06064823,1.3401794,3.9991329,0.6866956,-1.2141342
1747679467.7733066,0.13099772,-0.06064823,1.3401794,3.9991329,0.6866956,-1.2141342
1747679467.7738369,0.13099772,-0.06064823,1.3401794,3.9991329,0.6866956,-1.2141342
1747679467.7743568,0.13099772,-0.06064823,1.3401794,3.9991329,0.6866956,-1.2141342
1747679467.774875,0.13099772,-0.06064823,1.3401794,3.9991329,0.6866956,-1.2141342
1747679467.7753928,0.13099772,-0.06064823,1.3401794,3.9991329,0.6866956,-1.2141342
1747679467.7759109,0.13099772,-0.06064823,1.3401794,3.9991329,0.6866956,-1.2141342
1747679467.7764287,0.13099772,-0.06064823,1.3401794,3.9991329,0.6866956,-1.2141342
1747679467.7769465,0.13099772,-0.06064823,1.3401794,3.9991329,0.6866956,-1.2141342
1747679467.7774642,0.13099772,-0.06064823,1.3401794,3.9991329,0.6866956,-1.2141342
1747679467.7779822,0.13099772,-0.06064823,1.3401794,3.9991329,0.6866956,-1.2141342
1747679467.7784998,0.13099772,-0.06064823,1.3401794,3.9991329,0.6866956,-1.2141342
1747679467.7790203,0.13099772,-0.06064823,1.3401794,3.9991329,0.6866956,-1.2141342
1747679467.7795408,0.12025921,-0.08017281,1.2459733,4.0960717,0.761264,-1.1385006
1747679467.780059,0.12025921,-0.08017281,1.2459733,4.0960717,0.761264,-1.1385006
1747679467.7805772,0.12025921,-0.08017281,1.2459733,4.0960717,0.761264,-1.1385006
1747679467.7810953,0.12025921,-0.08017281,1.2459733,4.0960717,0.761264,-1.1385006
1747679467.7816136,0.12025921,-0.08017281,1.2459733,4.0960717,0.761264,-1.1385006
1747679467.7821312,0.12025921,-0.08017281,1.2459733,4.0960717,0.761264,-1.1385006
1747679467.782662,0.12025921,-0.08017281,1.2459733,4.0960717,0.761264,-1.1385006
1747679467.7832274,0.12025921,-0.08017281,1.2459733,4.0960717,0.761264,-1.1385006
1747679467.7837946,0.12025921,-0.08017281,1.2459733,4.0960717,0.761264,-1.1385006
1747679467.7843444,0.12025921,-0.08017281,1.2459733,4.0960717,0.761264,-1.1385006
1747679467.7848694,0.12025921,-0.08017281,1.2459733,4.0960717,0.761264,-1.1385006
1747679467.7853885,0.12025921,-0.08017281,1.2459733,4.0960717,0.761264,-1.1385006
1747679467.7859073,0.12025921,-0.08017281,1.2459733,4.0960717,0.761264,-1.1385006
1747679467.7864249,0.12025921,-0.08017281,1.2459733,4.0960717,0.761264,-1.1385006
1747679467.786943,0.12025921,-0.08017281,1.2459733,4.0960717,0.761264,-1.1385006
1747679467.787461,0.12025921,-0.08017281,1.2459733,4.0960717,0.761264,-1.1385006
1747679467.7879794,0.12025921,-0.08017281,1.2459733,4.0960717,0.761264,-1.1385006
1747679467.7884974,0.12025921,-0.08017281,1.2459733,4.0960717,0.761264,-1.1385006
1747679467.7890155,0.12025921,-0.08017281,1.2459733,4.0960717,0.761264,-1.1385006
1747679467.7895336,0.12025921,-0.08017281,1.2459733,4.0960717,0.761264,-1.1385006
1747679467.7900517,0.12025921,-0.08017281,1.2459733,4.0960717,0.761264,-1.1385006
1747679467.7905703,0.11049692,-0.089935094,1.1376119,4.2047286,0.91998833,-1.0426267
1747679467.7910883,0.11049692,-0.089935094,1.1376119,4.2047286,0.91998833,-1.0426267
1747679467.7916064,0.11049692,-0.089935094,1.1376119,4.2047286,0.91998833,-1.0426267
1747679467.7921247,0.11049692,-0.089935094,1.1376119,4.2047286,0.91998833,-1.0426267
1747679467.7926428,0.11049692,-0.089935094,1.1376119,4.2047286,0.91998833,-1.0426267
1747679467.793161,0.11049692,-0.089935094,1.1376119,4.2047286,0.91998833,-1.0426267
1747679467.7936788,0.11049692,-0.089935094,1.1376119,4.2047286,0.91998833,-1.0426267
1747679467.794211,0.11049692,-0.089935094,1.1376119,4.2047286,0.91998833,-1.0426267
1747679467.794746,0.11049692,-0.089935094,1.1376119,4.2047286,0.91998833,-1.0426267
1747679467.7952654,0.11049692,-0.089935094,1.1376119,4.2047286,0.91998833,-1.0426267
1747679467.795784,0.11049692,-0.089935094,1.1376119,4.2047286,0.91998833,-1.0426267
1747679467.796302,0.11049692,-0.089935094,1.1376119,4.2047286,0.91998833,-1.0426267
1747679467.7968202,0.11049692,-0.089935094,1.1376119,4.2047286,0.91998833,-1.0426267
1747679467.7973652,0.11049692,-0.089935094,1.1376119,4.2047286,0.91998833,-1.0426267
1747679467.7979035,0.11049692,-0.089935094,1.1376119,4.2047286,0.91998833,-1.0426267
1747679467.7984605,0.11049692,-0.089935094,1.1376119,4.2047286,0.91998833,-1.0426267
1747679467.7990258,0.11049692,-0.089935094,1.1376119,4.2047286,0.91998833,-1.0426267
1747679467.7995818,0.11049692,-0.089935094,1.1376119,4.2047286,0.91998833,-1.0426267
1747679467.8001702,0.11049692,-0.089935094,1.1376119,4.2047286,0.91998833,-1.0426267
1747679467.8007462,0.1300215,-0.08895887,1.0434058,4.285689,1.1010832,-0.9552752
1747679467.8012795,0.1300215,-0.08895887,1.0434058,4.285689,1.1010832,-0.9552752
1747679467.8017995,0.1300215,-0.08895887,1.0434058,4.285689,1.1010832,-0.9552752
1747679467.8023179,0.1300215,-0.08895887,1.0434058,4.285689,1.1010832,-0.9552752
1747679467.802836,0.1300215,-0.08895887,1.0434058,4.285689,1.1010832,-0.9552752
1747679467.8033693,0.1300215,-0.08895887,1.0434058,4.285689,1.1010832,-0.9552752
1747679467.8039775,0.1300215,-0.08895887,1.0434058,4.285689,1.1010832,-0.9552752
1747679467.804498,0.1300215,-0.08895887,1.0434058,4.285689,1.1010832,-0.9552752
1747679467.8050163,0.1300215,-0.08895887,1.0434058,4.285689,1.1010832,-0.9552752
1747679467.8055344,0.1300215,-0.08895887,1.0434058,4.285689,1.1010832,-0.9552752
1747679467.8060527,0.1300215,-0.08895887,1.0434058,4.285689,1.1010832,-0.9552752
1747679467.8065705,0.1300215,-0.08895887,1.0434058,4.285689,1.1010832,-0.9552752
1747679467.8070886,0.1300215,-0.08895887,1.0434058,4.285689,1.1010832,-0.9552752
1747679467.8076065,0.1300215,-0.08895887,1.0434058,4.285689,1.1010832,-0.9552752
1747679467.8081248,0.1300215,-0.08895887,1.0434058,4.285689,1.1010832,-0.9552752
1747679467.8086426,0.1300215,-0.08895887,1.0434058,4.285689,1.1010832,-0.9552752
1747679467.8091602,0.1300215,-0.08895887,1.0434058,4.285689,1.1010832,-0.9552752
1747679467.8096802,0.1300215,-0.08895887,1.0434058,4.285689,1.1010832,-0.9552752
1747679467.8102007,0.1300215,-0.08895887,1.0434058,4.386889,1.363138,-0.8796415
1747679467.8107195,0.15735592,-0.112388365,0.9160078,4.386889,1.363138,-0.8796415
1747679467.8112378,0.15735592,-0.112388365,0.9160078,4.386889,1.363138,-0.8796415
1747679467.8117561,0.15735592,-0.112388365,0.9160078,4.386889,1.363138,-0.8796415
1747679467.812274,0.15735592,-0.112388365,0.9160078,4.386889,1.363138,-0.8796415
1747679467.8128037,0.15735592,-0.112388365,0.9160078,4.386889,1.363138,-0.8796415
1747679467.8133852,0.15735592,-0.112388365,0.9160078,4.386889,1.363138,-0.8796415
1747679467.8139544,0.15735592,-0.112388365,0.9160078,4.386889,1.363138,-0.8796415
1747679467.8145278,0.15735592,-0.112388365,0.9160078,4.386889,1.363138,-0.8796415
1747679467.815076,0.15735592,-0.112388365,0.9160078,4.386889,1.363138,-0.8796415
1747679467.8156004,0.15735592,-0.112388365,0.9160078,4.386889,1.363138,-0.8796415
1747679467.8161187,0.15735592,-0.112388365,0.9160078,4.386889,1.363138,-0.8796415
1747679467.816637,0.15735592,-0.112388365,0.9160078,4.386889,1.363138,-0.8796415
1747679467.8171551,0.15735592,-0.112388365,0.9160078,4.386889,1.363138,-0.8796415
1747679467.8176732,0.15735592,-0.112388365,0.9160078,4.386889,1.363138,-0.8796415
1747679467.8181915,0.15735592,-0.112388365,0.9160078,4.386889,1.363138,-0.8796415
1747679467.8187091,0.15735592,-0.112388365,0.9160078,4.386889,1.363138,-0.8796415
1747679467.8192272,0.15735592,-0.112388365,0.9160078,4.386889,1.363138,-0.8796415
1747679467.819745,0.15735592,-0.112388365,0.9160078,4.386889,1.363138,-0.8796415
1747679467.8202634,0.15735592,-0.112388365,0.9160078,4.386889,1.363138,-0.8796415
1747679467.8207812,0.15735592,-0.112388365,0.9160078,4.386889,1.363138,-0.8796415
1747679467.8212993,0.15735592,-0.112388365,0.9160078,4.386889,1.363138,-0.8796415
1747679467.8218172,0.15735592,-0.112388365,0.9160078,4.386889,1.363138,-0.8796415
1747679467.822336,0.15296288,-0.14948507,0.75053704,4.508329,1.6060181,-0.8146604
1747679467.8228545,0.15296288,-0.14948507,0.75053704,4.508329,1.6060181,-0.8146604
1747679467.8233724,0.15296288,-0.14948507,0.75053704,4.508329,1.6060181,-0.8146604
1747679467.82389,0.15296288,-0.14948507,0.75053704,4.508329,1.6060181,-0.8146604
1747679467.8244188,0.15296288,-0.14948507,0.75053704,4.508329,1.6060181,-0.8146604
1747679467.824956,0.15296288,-0.14948507,0.75053704,4.508329,1.6060181,-0.8146604
1747679467.8254757,0.15296288,-0.14948507,0.75053704,4.508329,1.6060181,-0.8146604
1747679467.8259938,0.15296288,-0.14948507,0.75053704,4.508329,1.6060181,-0.8146604
1747679467.8265116,0.15296288,-0.14948507,0.75053704,4.508329,1.6060181,-0.8146604
1747679467.8270297,0.15296288,-0.14948507,0.75053704,4.508329,1.6060181,-0.8146604
1747679467.8275476,0.15296288,-0.14948507,0.75053704,4.508329,1.6060181,-0.8146604
1747679467.8280659,0.15296288,-0.14948507,0.75053704,4.508329,1.6060181,-0.8146604
1747679467.8285835,0.15296288,-0.14948507,0.75053704,4.508329,1.6060181,-0.8146604
1747679467.8291123,0.15296288,-0.14948507,0.75053704,4.508329,1.6060181,-0.8146604
1747679467.8296838,0.15296288,-0.14948507,0.75053704,4.508329,1.6060181,-0.8146604
1747679467.830267,0.15296288,-0.14948507,0.75053704,4.508329,1.6060181,-0.8146604
1747679467.8308184,0.15296288,-0.14948507,0.75053704,4.508329,1.6060181,-0.8146604
1747679467.831355,0.15296288,-0.14948507,0.75053704,4.508329,1.6060181,-0.8146604
1747679467.8318777,0.15296288,-0.14948507,0.75053704,4.508329,1.6060181,-0.8146604
1747679467.8323994,0.15296288,-0.14948507,0.75053704,4.508329,1.6060181,-0.8146604
1747679467.832927,0.14076002,-0.16364038,0.6153294,4.5882235,1.6518245,-0.76565826
1747679467.8334723,0.14076002,-0.16364038,0.6153294,4.5882235,1.6518245,-0.76565826
1747679467.834028,0.14076002,-0.16364038,0.6153294,4.5882235,1.6518245,-0.76565826
1747679467.8345716,0.14076002,-0.16364038,0.6153294,4.5882235,1.6518245,-0.76565826
1747679467.835104,0.14076002,-0.16364038,0.6153294,4.5882235,1.6518245,-0.76565826
1747679467.8356235,0.14076002,-0.16364038,0.6153294,4.5882235,1.6518245,-0.76565826
1747679467.836142,0.14076002,-0.16364038,0.6153294,4.5882235,1.6518245,-0.76565826
1747679467.8366606,0.14076002,-0.16364038,0.6153294,4.5882235,1.6518245,-0.76565826
1747679467.8372157,0.14076002,-0.16364038,0.6153294,4.5882235,1.6518245,-0.76565826
1747679467.8377378,0.14076002,-0.16364038,0.6153294,4.5882235,1.6518245,-0.76565826
1747679467.8382564,0.14076002,-0.16364038,0.6153294,4.5882235,1.6518245,-0.76565826
1747679467.8387778,0.14076002,-0.16364038,0.6153294,4.5882235,1.6518245,-0.76565826
1747679467.8392975,0.14076002,-0.16364038,0.6153294,4.5882235,1.6518245,-0.76565826
1747679467.8398156,0.14076002,-0.16364038,0.6153294,4.5882235,1.6518245,-0.76565826
1747679467.8403332,0.14076002,-0.16364038,0.6153294,4.5882235,1.6518245,-0.76565826
1747679467.8408513,0.14076002,-0.16364038,0.6153294,4.5882235,1.6518245,-0.76565826
1747679467.8413692,0.14076002,-0.16364038,0.6153294,4.5882235,1.6518245,-0.76565826
1747679467.841887,0.14076002,-0.16364038,0.6153294,4.5882235,1.6518245,-0.76565826
1747679467.8424048,0.14076002,-0.16364038,0.6153294,4.5882235,1.6518245,-0.76565826
1747679467.842923,0.14076002,-0.16364038,0.6153294,4.5882235,1.6518245,-0.76565826
1747679467.843441,0.14076002,-0.16364038,0.6153294,4.5882235,1.6518245,-0.76565826
1747679467.8439767,0.14076002,-0.16364038,0.6153294,4.5882235,1.6518245,-0.76565826
1747679467.8445277,0.14076002,-0.16364038,0.6153294,4.5882235,1.6518245,-0.76565826
1747679467.8456898,0.092436686,-0.17633136,0.47816917,4.5882235,1.6518245,-0.76565826
1747679467.8465788,0.092436686,-0.17633136,0.47816917,4.6468134,1.5506244,-0.724113
1747679467.847144,0.092436686,-0.17633136,0.47816917,4.6468134,1.5506244,-0.724113
1747679467.8476877,0.092436686,-0.17633136,0.47816917,4.6468134,1.5506244,-0.724113
1747679467.848228,0.092436686,-0.17633136,0.47816917,4.6468134,1.5506244,-0.724113
1747679467.8487694,0.092436686,-0.17633136,0.47816917,4.6468134,1.5506244,-0.724113
1747679467.8493085,0.092436686,-0.17633136,0.47816917,4.6468134,1.5506244,-0.724113
1747679467.8498483,0.092436686,-0.17633136,0.47816917,4.6468134,1.5506244,-0.724113
1747679467.8503914,0.092436686,-0.17633136,0.47816917,4.6649227,1.4387717,-0.68895924
1747679467.8509316,0.092436686,-0.17633136,0.47816917,4.6649227,1.4387717,-0.68895924
1747679467.8514752,0.03679163,-0.17926005,0.392261,4.6649227,1.4387717,-0.68895924
1747679467.852015,0.03679163,-0.17926005,0.392261,4.6649227,1.4387717,-0.68895924
1747679467.852553,0.03679163,-0.17926005,0.392261,4.6649227,1.4387717,-0.68895924
1747679467.8530934,0.03679163,-0.17926005,0.392261,4.6649227,1.4387717,-0.68895924
1747679467.8536568,0.03679163,-0.17926005,0.392261,4.6649227,1.4387717,-0.68895924
1747679467.8542738,0.03679163,-0.17926005,0.392261,4.6649227,1.4387717,-0.68895924
1747679467.8548214,0.03679163,-0.17926005,0.392261,4.6649227,1.4387717,-0.68895924
1747679467.8553572,0.03679163,-0.17926005,0.392261,4.6649227,1.4387717,-0.68895924
1747679467.855879,0.03679163,-0.17926005,0.392261,4.6649227,1.4387717,-0.68895924
1747679467.8564005,0.03679163,-0.17926005,0.392261,4.6649227,1.4387717,-0.68895924
1747679467.8569212,0.03679163,-0.17926005,0.392261,4.6649227,1.4387717,-0.68895924
1747679467.8574414,0.03679163,-0.17926005,0.392261,4.6649227,1.4387717,-0.68895924
1747679467.8579845,0.03679163,-0.17926005,0.392261,4.6649227,1.4387717,-0.68895924
1747679467.8585057,0.03679163,-0.17926005,0.392261,4.6649227,1.4387717,-0.68895924
1747679467.8590262,0.03679163,-0.17926005,0.392261,4.6649227,1.4387717,-0.68895924
1747679467.859553,0.03679163,-0.17926005,0.392261,4.6649227,1.4387717,-0.68895924
1747679467.8601723,-0.009091132,-0.16754529,0.2902451,4.6649227,1.4387717,-0.68895924
1747679467.8653746,-0.009091132,-0.16754529,0.2902451,4.6723795,1.2683295,-0.6261087
1747679467.8659523,-0.009091132,-0.16754529,0.2902451,4.6723795,1.2683295,-0.6261087
1747679467.8664775,-0.009091132,-0.16754529,0.2902451,4.6723795,1.2683295,-0.6261087
1747679467.8669965,-0.009091132,-0.16754529,0.2902451,4.6723795,1.2683295,-0.6261087
1747679467.8675148,-0.009091132,-0.16754529,0.2902451,4.6723795,1.2683295,-0.6261087
1747679467.8680336,-0.009091132,-0.16754529,0.2902451,4.6723795,1.2683295,-0.6261087
1747679467.8685548,-0.026663255,-0.14216334,0.18334801,4.6723795,1.2683295,-0.6261087
1747679467.869075,-0.026663255,-0.14216334,0.18334801,4.6723795,1.2683295,-0.6261087
1747679467.8695972,-0.026663255,-0.14216334,0.18334801,4.6723795,1.2683295,-0.6261087
1747679467.87012,-0.026663255,-0.14216334,0.18334801,4.6414866,1.0265146,-0.56645393
1747679467.8706393,-0.026663255,-0.14216334,0.18334801,4.6414866,1.0265146,-0.56645393
1747679467.8711574,-0.026663255,-0.14216334,0.18334801,4.6414866,1.0265146,-0.56645393
1747679467.871692,-0.026663255,-0.14216334,0.18334801,4.6414866,1.0265146,-0.56645393
1747679467.8722327,-0.026663255,-0.14216334,0.18334801,4.6414866,1.0265146,-0.56645393
1747679467.8727553,-0.026663255,-0.14216334,0.18334801,4.6414866,1.0265146,-0.56645393
1747679467.8732734,-0.026663255,-0.14216334,0.18334801,4.6414866,1.0265146,-0.56645393
1747679467.873806,-0.026663255,-0.14216334,0.18334801,4.6414866,1.0265146,-0.56645393
1747679467.8743422,-0.026663255,-0.14216334,0.18334801,4.6414866,1.0265146,-0.56645393
1747679467.8748696,-0.026663255,-0.14216334,0.18334801,4.6414866,1.0265146,-0.56645393
1747679467.875424,-0.026663255,-0.14216334,0.18334801,4.6414866,1.0265146,-0.56645393
1747679467.8759754,-0.026663255,-0.14216334,0.18334801,4.6414866,1.0265146,-0.56645393
1747679467.876962,-0.026663255,-0.14216334,0.18334801,4.6414866,1.0265146,-0.56645393
1747679467.8775077,-0.026663255,-0.14216334,0.18334801,4.6414866,1.0265146,-0.56645393
1747679467.87804,-0.026663255,-0.14216334,0.18334801,4.6414866,1.0265146,-0.56645393
1747679467.8785598,-0.026663255,-0.14216334,0.18334801,4.6414866,1.0265146,-0.56645393
1747679467.8790784,-0.026663255,-0.14216334,0.18334801,4.6414866,1.0265146,-0.56645393
1747679467.8795962,-0.026663255,-0.14216334,0.18334801,4.6414866,1.0265146,-0.56645393
1747679467.8801148,-0.026663255,-0.14216334,0.18334801,4.6414866,1.0265146,-0.56645393
1747679467.880633,-0.026663255,-0.14216334,0.18334801,4.6414866,1.0265146,-0.56645393
1747679467.881151,-0.026663255,-0.14216334,0.18334801,4.6414866,1.0265146,-0.56645393
1747679467.8816688,-0.026663255,-0.14216334,0.18334801,4.6414866,1.0265146,-0.56645393
1747679467.882187,-0.026663255,-0.14216334,0.18334801,4.6414866,1.0265146,-0.56645393
1747679467.882705,-0.026663255,-0.14216334,0.18334801,4.6414866,1.0265146,-0.56645393
1747679467.883223,-0.026663255,-0.14216334,0.18334801,4.6414866,1.0265146,-0.56645393
1747679467.883741,-0.026663255,-0.14216334,0.18334801,4.6414866,1.0265146,-0.56645393
1747679467.8842764,-0.026663255,-0.14216334,0.18334801,4.6414866,1.0265146,-0.56645393
1747679467.8848221,-0.026663255,-0.14216334,0.18334801,4.6414866,1.0265146,-0.56645393
1747679467.8853464,-0.026663255,-0.14216334,0.18334801,4.6414866,1.0265146,-0.56645393
1747679467.885865,-0.026663255,-0.14216334,0.18334801,4.6414866,1.0265146,-0.56645393
1747679467.8863885,-0.02617514,-0.100673616,0.08572511,4.560527,0.7601988,-0.530235
1747679467.8869092,-0.02617514,-0.100673616,0.08572511,4.560527,0.7601988,-0.530235
1747679467.8874273,-0.02617514,-0.100673616,0.08572511,4.560527,0.7601988,-0.530235
1747679467.8879457,-0.02617514,-0.100673616,0.08572511,4.560527,0.7601988,-0.530235
1747679467.8884635,-0.02617514,-0.100673616,0.08572511,4.560527,0.7601988,-0.530235
1747679467.8889816,-0.02617514,-0.100673616,0.08572511,4.560527,0.7601988,-0.530235
1747679467.8895023,-0.02617514,-0.100673616,0.08572511,4.560527,0.7601988,-0.530235
1747679467.8900232,-0.02617514,-0.100673616,0.08572511,4.560527,0.7601988,-0.530235
1747679467.891506,-0.039842345,-0.06064823,-0.022148196,4.4231076,0.5684513,-0.5259739
1747679467.8939776,-0.039842345,-0.06064823,-0.022148196,4.4231076,0.5684513,-0.5259739
1747679467.8945432,-0.039842345,-0.06064823,-0.022148196,4.4231076,0.5684513,-0.5259739
1747679467.895093,-0.039842345,-0.06064823,-0.022148196,4.4231076,0.5684513,-0.5259739
1747679467.8956337,-0.039842345,-0.06064823,-0.022148196,4.4231076,0.5684513,-0.5259739
1747679467.8961737,-0.039842345,-0.06064823,-0.022148196,4.4231076,0.5684513,-0.5259739
1747679467.8967073,-0.039842345,-0.06064823,-0.022148196,4.4231076,0.5684513,-0.5259739
1747679467.897227,-0.039842345,-0.06064823,-0.022148196,4.4231076,0.5684513,-0.5259739
1747679467.8977454,-0.039842345,-0.06064823,-0.022148196,4.4231076,0.5684513,-0.5259739
1747679467.8982632,-0.039842345,-0.06064823,-0.022148196,4.4231076,0.5684513,-0.5259739
1747679467.8987815,-0.039842345,-0.06064823,-0.022148196,4.4231076,0.5684513,-0.5259739
1747679467.8992996,-0.039842345,-0.06064823,-0.022148196,4.4231076,0.5684513,-0.5259739
1747679467.8998177,-0.039842345,-0.06064823,-0.022148196,4.4231076,0.5684513,-0.5259739
1747679467.9003358,-0.039842345,-0.06064823,-0.022148196,4.4231076,0.5684513,-0.5259739
1747679467.900854,-0.039842345,-0.06064823,-0.022148196,4.4231076,0.5684513,-0.5259739
1747679467.9013748,-0.039842345,-0.06064823,-0.022148196,4.4231076,0.5684513,-0.5259739
1747679467.9019003,-0.057902582,-0.016717922,-0.11196126,4.2121854,0.47364286,-0.50679916
1747679467.9024224,-0.057902582,-0.016717922,-0.11196126,4.2121854,0.47364286,-0.50679916
1747679467.903005,-0.057902582,-0.016717922,-0.11196126,4.2121854,0.47364286,-0.50679916
1747679467.9035487,-0.057902582,-0.016717922,-0.11196126,4.2121854,0.47364286,-0.50679916
1747679467.9040835,-0.057902582,-0.016717922,-0.11196126,4.2121854,0.47364286,-0.50679916
1747679467.9046175,-0.057902582,-0.016717922,-0.11196126,4.2121854,0.47364286,-0.50679916
1747679467.9051397,-0.057902582,-0.016717922,-0.11196126,4.2121854,0.47364286,-0.50679916
1747679467.905658,-0.057902582,-0.016717922,-0.11196126,4.2121854,0.47364286,-0.50679916
1747679467.9061828,-0.057902582,-0.016717922,-0.11196126,4.2121854,0.47364286,-0.50679916
1747679467.906706,-0.057902582,-0.016717922,-0.11196126,4.2121854,0.47364286,-0.50679916
1747679467.9072285,-0.057902582,-0.016717922,-0.11196126,4.2121854,0.47364286,-0.50679916
1747679467.9083831,-0.057902582,-0.016717922,-0.11196126,4.2121854,0.47364286,-0.50679916
1747679467.908929,-0.057902582,-0.016717922,-0.11196126,4.2121854,0.47364286,-0.50679916
1747679467.9094617,-0.057902582,-0.016717922,-0.11196126,4.2121854,0.47364286,-0.50679916
1747679467.9099813,-0.057902582,-0.016717922,-0.11196126,4.2121854,0.47364286,-0.50679916
1747679467.9104996,-0.057902582,-0.016717922,-0.11196126,4.2121854,0.47364286,-0.50679916
1747679467.9110212,-0.057902582,-0.016717922,-0.11196126,4.2121854,0.47364286,-0.50679916
1747679467.9115398,-0.057902582,-0.016717922,-0.11196126,4.2121854,0.47364286,-0.50679916
1747679467.912058,-0.057902582,-0.016717922,-0.11196126,4.2121854,0.47364286,-0.50679916
1747679467.9125838,-0.046187833,0.029652953,-0.15882026,4.2121854,0.47364286,-0.50679916
1747679467.9131067,-0.046187833,0.029652953,-0.15882026,4.007655,0.44061968,-0.4833634
1747679467.913677,-0.046187833,0.029652953,-0.15882026,4.007655,0.44061968,-0.4833634
1747679467.9142318,-0.046187833,0.029652953,-0.15882026,4.007655,0.44061968,-0.4833634
1747679467.9147682,-0.046187833,0.029652953,-0.15882026,4.007655,0.44061968,-0.4833634
1747679467.9152927,-0.046187833,0.029652953,-0.15882026,4.007655,0.44061968,-0.4833634
1747679467.9158115,-0.046187833,0.029652953,-0.15882026,4.007655,0.44061968,-0.4833634
1747679467.9163296,-0.046187833,0.029652953,-0.15882026,4.007655,0.44061968,-0.4833634
1747679467.9168482,-0.046187833,0.029652953,-0.15882026,4.007655,0.44061968,-0.4833634
1747679467.9173665,-0.046187833,0.029652953,-0.15882026,4.007655,0.44061968,-0.4833634
1747679467.9178843,-0.046187833,0.029652953,-0.15882026,4.007655,0.44061968,-0.4833634
1747679467.9184022,-0.046187833,0.029652953,-0.15882026,4.007655,0.44061968,-0.4833634
1747679467.9189203,-0.046187833,0.029652953,-0.15882026,4.007655,0.44061968,-0.4833634
1747679467.9194384,-0.046187833,0.029652953,-0.15882026,4.007655,0.44061968,-0.4833634
1747679467.919956,-0.046187833,0.029652953,-0.15882026,4.007655,0.44061968,-0.4833634
1747679467.9204736,-0.046187833,0.029652953,-0.15882026,4.007655,0.44061968,-0.4833634
1747679467.9210763,-0.046187833,0.029652953,-0.15882026,4.007655,0.44061968,-0.4833634
1747679467.9216385,-0.046187833,0.029652953,-0.15882026,4.007655,0.44061968,-0.4833634
1747679467.9221833,-0.046187833,0.029652953,-0.15882026,4.007655,0.44061968,-0.4833634
1747679467.9243286,-0.024222683,0.09652464,-0.21837021,3.6795537,0.46512073,-0.46738443
1747679467.9248915,-0.024222683,0.09652464,-0.21837021,3.6795537,0.46512073,-0.46738443
1747679467.9254434,-0.024222683,0.09652464,-0.21837021,3.6795537,0.46512073,-0.46738443
1747679467.9259806,-0.024222683,0.09652464,-0.21837021,3.6795537,0.46512073,-0.46738443
1747679467.9265122,-0.024222683,0.09652464,-0.21837021,3.6795537,0.46512073,-0.46738443
1747679467.9270623,-0.024222683,0.09652464,-0.21837021,3.6795537,0.46512073,-0.46738443
1747679467.9276285,-0.024222683,0.09652464,-0.21837021,3.6795537,0.46512073,-0.46738443
1747679467.9281633,-0.024222683,0.09652464,-0.21837021,3.6795537,0.46512073,-0.46738443
1747679467.9286964,-0.024222683,0.09652464,-0.21837021,3.6795537,0.46512073,-0.46738443
1747679467.9292293,-0.024222683,0.09652464,-0.21837021,3.6795537,0.46512073,-0.46738443
1747679467.9297628,-0.024222683,0.09652464,-0.21837021,3.6795537,0.46512073,-0.46738443
1747679467.9302962,-0.024222683,0.09652464,-0.21837021,3.6795537,0.46512073,-0.46738443
1747679467.9308324,-0.024222683,0.09652464,-0.21837021,3.6795537,0.46512073,-0.46738443
1747679467.9313595,-0.024222683,0.09652464,-0.21837021,3.6795537,0.46512073,-0.46738443
1747679467.9318814,-0.024222683,0.09652464,-0.21837021,3.6795537,0.46512073,-0.46738443
1747679467.932403,-0.024222683,0.09652464,-0.21837021,3.6795537,0.46512073,-0.46738443
1747679467.932925,-0.024222683,0.09652464,-0.21837021,3.6795537,0.46512073,-0.46738443
1747679467.9334662,-0.024222683,0.09652464,-0.21837021,3.6795537,0.46512073,-0.46738443
1747679467.9340086,-0.024222683,0.09652464,-0.21837021,3.6795537,0.46512073,-0.46738443
1747679467.9345338,-0.024222683,0.09652464,-0.21837021,3.6795537,0.46512073,-0.46738443
1747679467.9350524,-0.024222683,0.09652464,-0.21837021,3.6795537,0.46512073,-0.46738443
1747679467.9355705,-0.024222683,0.09652464,-0.21837021,3.6795537,0.46512073,-0.46738443
1747679467.9360886,-0.024222683,0.09652464,-0.21837021,3.6795537,0.46512073,-0.46738443
1747679467.936632,-0.024222683,0.09652464,-0.21837021,3.6795537,0.46512073,-0.46738443
1747679467.9371648,-0.024222683,0.09652464,-0.21837021,3.6795537,0.46512073,-0.46738443
1747679467.9376857,-0.024222683,0.09652464,-0.21837021,3.6795537,0.46512073,-0.46738443
1747679467.9382045,-0.024222683,0.09652464,-0.21837021,3.6795537,0.46512073,-0.46738443
1747679467.9387274,-0.024222683,0.09652464,-0.21837021,3.6795537,0.46512073,-0.46738443
1747679467.9396577,-0.024222683,0.09652464,-0.21837021,3.6795537,0.46512073,-0.46738443
1747679467.9402168,-0.024222683,0.09652464,-0.21837021,3.6795537,0.46512073,-0.46738443
1747679467.94075,-0.024222683,0.09652464,-0.21837021,3.6795537,0.46512073,-0.46738443
1747679467.9412694,-0.024222683,0.09652464,-0.21837021,3.6795537,0.46512073,-0.46738443
1747679467.941788,-0.024222683,0.09652464,-0.21837021,3.6795537,0.46512073,-0.46738443
1747679467.9423065,-0.024222683,0.09652464,-0.21837021,3.6795537,0.46512073,-0.46738443
1747679467.9428253,-0.024222683,0.09652464,-0.21837021,3.6795537,0.46512073,-0.46738443
1747679467.9433434,-0.024222683,0.09652464,-0.21837021,3.6795537,0.46512073,-0.46738443
1747679467.9438791,-0.024222683,0.09652464,-0.21837021,3.6795537,0.46512073,-0.46738443
1747679467.9444246,-0.024222683,0.09652464,-0.21837021,3.6795537,0.46512073,-0.46738443
1747679467.944949,-0.024222683,0.09652464,-0.21837021,3.6795537,0.46512073,-0.46738443
1747679467.9454715,-0.024222683,0.09652464,-0.21837021,3.6795537,0.46512073,-0.46738443
1747679467.9459944,-0.024222683,0.09652464,-0.21837021,3.6795537,0.46512073,-0.46738443
1747679467.9465163,-0.024222683,0.09652464,-0.21837021,3.6795537,0.46512073,-0.46738443
1747679467.9470372,-0.024222683,0.09652464,-0.21837021,3.6795537,0.46512073,-0.46738443
1747679467.9475582,-0.024222683,0.09652464,-0.21837021,3.6795537,0.46512073,-0.46738443
1747679467.9480786,-0.024222683,0.09652464,-0.21837021,3.6795537,0.46512073,-0.46738443
1747679467.9485993,-0.024222683,0.09652464,-0.21837021,3.6795537,0.46512073,-0.46738443
1747679467.9491196,-0.024222683,0.09652464,-0.21837021,3.6795537,0.46512073,-0.46738443
1747679467.94964,-0.024222683,0.09652464,-0.21837021,3.6795537,0.46512073,-0.46738443
1747679467.9501607,-0.024222683,0.09652464,-0.21837021,3.6795537,0.46512073,-0.46738443
1747679467.950681,-0.024222683,0.09652464,-0.21837021,3.6795537,0.46512073,-0.46738443
1747679467.9512017,-0.024222683,0.09652464,-0.21837021,3.6795537,0.46512073,-0.46738443
1747679467.9518118,-0.024222683,0.09652464,-0.21837021,3.6795537,0.46512073,-0.46738443
1747679467.9523733,-0.024222683,0.09652464,-0.21837021,3.6795537,0.46512073,-0.46738443
1747679467.9529178,-0.024222683,0.09652464,-0.21837021,3.6795537,0.46512073,-0.46738443
1747679467.953459,-0.024222683,0.09652464,-0.21837021,3.6795537,0.46512073,-0.46738443
1747679467.9540398,-0.024222683,0.09652464,-0.21837021,3.6795537,0.46512073,-0.46738443
1747679467.954973,-0.024222683,0.09652464,-0.21837021,3.6795537,0.46512073,-0.46738443
1747679467.9555213,-0.024222683,0.09652464,-0.21837021,3.6795537,0.46512073,-0.46738443
1747679467.9560523,-0.024222683,0.09652464,-0.21837021,3.6795537,0.46512073,-0.46738443
1747679467.956575,-0.024222683,0.09652464,-0.21837021,3.6795537,0.46512073,-0.46738443
1747679467.9570959,-0.024222683,0.09652464,-0.21837021,3.6795537,0.46512073,-0.46738443
1747679467.9576166,-0.024222683,0.09652464,-0.21837021,3.6795537,0.46512073,-0.46738443
1747679467.9581378,-0.024222683,0.09652464,-0.21837021,3.6795537,0.46512073,-0.46738443
1747679467.958659,-0.024222683,0.09652464,-0.21837021,3.6795537,0.46512073,-0.46738443
1747679467.9591792,-0.024222683,0.09652464,-0.21837021,3.6795537,0.46512073,-0.46738443
1747679467.9596999,-0.024222683,0.09652464,-0.21837021,3.6795537,0.46512073,-0.46738443
1747679467.9602234,-0.024222683,0.09652464,-0.21837021,3.6795537,0.46512073,-0.46738443
1747679467.9607449,-0.024222683,0.09652464,-0.21837021,3.6795537,0.46512073,-0.46738443
1747679467.9612684,-0.024222683,0.09652464,-0.21837021,3.6795537,0.46512073,-0.46738443
1747679467.9617894,-0.024222683,0.09652464,-0.21837021,3.6795537,0.46512073,-0.46738443
1747679467.9623337,-0.024222683,0.09652464,-0.21837021,3.6795537,0.46512073,-0.46738443
1747679467.9628587,-0.024222683,0.09652464,-0.21837021,3.6795537,0.46512073,-0.46738443
1747679467.9633775,-0.024222683,0.09652464,-0.21837021,3.6795537,0.46512073,-0.46738443
1747679467.9638958,-0.024222683,0.09652464,-0.21837021,3.6795537,0.46512073,-0.46738443
1747679467.9644275,-0.024222683,0.09652464,-0.21837021,3.6795537,0.46512073,-0.46738443
1747679467.9649696,-0.024222683,0.09652464,-0.21837021,3.6795537,0.46512073,-0.46738443
1747679467.9655058,-0.024222683,0.09652464,-0.21837021,3.6795537,0.46512073,-0.46738443
1747679467.9660287,-0.024222683,0.09652464,-0.21837021,3.6795537,0.46512073,-0.46738443
1747679467.9665473,-0.024222683,0.09652464,-0.21837021,3.6795537,0.46512073,-0.46738443
1747679467.9670708,-0.024222683,0.09652464,-0.21837021,3.6795537,0.46512073,-0.46738443
1747679467.9675941,-0.024222683,0.09652464,-0.21837021,3.6795537,0.46512073,-0.46738443
1747679467.9681134,-0.024222683,0.09652464,-0.21837021,3.6795537,0.46512073,-0.46738443
1747679467.9686317,-0.024222683,0.09652464,-0.21837021,3.6795537,0.46512073,-0.46738443
1747679467.969154,-0.024222683,0.09652464,-0.21837021,3.6795537,0.46512073,-0.46738443
1747679467.9699564,-0.024222683,0.09652464,-0.21837021,3.6795537,0.46512073,-0.46738443
1747679467.9705136,-0.024222683,0.09652464,-0.21837021,3.6795537,0.46512073,-0.46738443
1747679467.971047,-0.024222683,0.09652464,-0.21837021,3.6795537,0.46512073,-0.46738443
1747679467.971566,-0.024222683,0.09652464,-0.21837021,3.6795537,0.46512073,-0.46738443
1747679467.9720845,-0.024222683,0.09652464,-0.21837021,3.6795537,0.46512073,-0.46738443
1747679467.9726024,-0.024222683,0.09652464,-0.21837021,3.6795537,0.46512073,-0.46738443
1747679467.97312,-0.024222683,0.09652464,-0.21837021,3.6795537,0.46512073,-0.46738443
1747679467.9736557,-0.024222683,0.09652464,-0.21837021,3.6795537,0.46512073,-0.46738443
1747679467.9742012,-0.024222683,0.09652464,-0.21837021,3.6795537,0.46512073,-0.46738443
1747679467.9747257,-0.024222683,0.09652464,-0.21837021,3.6795537,0.46512073,-0.46738443
1747679467.9752443,-0.024222683,0.09652464,-0.21837021,3.6795537,0.46512073,-0.46738443
1747679467.9757624,-0.024222683,0.09652464,-0.21837021,3.6795537,0.46512073,-0.46738443
1747679467.9762802,-0.024222683,0.09652464,-0.21837021,3.6795537,0.46512073,-0.46738443
1747679467.9767983,-0.024222683,0.09652464,-0.21837021,3.6795537,0.46512073,-0.46738443
1747679467.9773161,-0.024222683,0.09652464,-0.21837021,3.6795537,0.46512073,-0.46738443
1747679467.977834,-0.024222683,0.09652464,-0.21837021,3.6795537,0.46512073,-0.46738443
1747679467.9783578,-0.024222683,0.09652464,-0.21837021,3.6795537,0.46512073,-0.46738443
1747679467.9788787,-0.024222683,0.09652464,-0.21837021,3.6795537,0.46512073,-0.46738443
1747679467.979397,-0.024222683,0.09652464,-0.21837021,3.6795537,0.46512073,-0.46738443
1747679467.9799156,-0.024222683,0.09652464,-0.21837021,3.6795537,0.46512073,-0.46738443
1747679467.980434,-0.024222683,0.09652464,-0.21837021,3.6795537,0.46512073,-0.46738443
1747679467.9809518,-0.024222683,0.09652464,-0.21837021,3.6795537,0.46512073,-0.46738443
1747679467.9814696,-0.024222683,0.09652464,-0.21837021,3.6795537,0.46512073,-0.46738443
1747679467.9820812,-0.024222683,0.09652464,-0.21837021,3.6795537,0.46512073,-0.46738443
1747679467.9827058,-0.024222683,0.09652464,-0.21837021,3.6795537,0.46512073,-0.46738443
1747679467.9832623,-0.024222683,0.09652464,-0.21837021,3.6795537,0.46512073,-0.46738443
1747679467.98396,-0.024222683,0.09652464,-0.21837021,3.6795537,0.46512073,-0.46738443
1747679467.9845033,-0.024222683,0.09652464,-0.21837021,3.6795537,0.46512073,-0.46738443
1747679467.9850342,-0.024222683,0.09652464,-0.21837021,3.6795537,0.46512073,-0.46738443
1747679467.98591,-0.024222683,0.09652464,-0.21837021,3.6795537,0.46512073,-0.46738443
1747679467.9864633,-0.024222683,0.09652464,-0.21837021,3.6795537,0.46512073,-0.46738443
1747679467.9869964,-0.024222683,0.09652464,-0.21837021,3.6795537,0.46512073,-0.46738443
1747679467.987516,-0.024222683,0.09652464,-0.21837021,3.6795537,0.46512073,-0.46738443
1747679467.9880345,-0.024222683,0.09652464,-0.21837021,3.6795537,0.46512073,-0.46738443
1747679467.9885533,-0.024222683,0.09652464,-0.21837021,3.6795537,0.46512073,-0.46738443
1747679467.9890718,-0.024222683,0.09652464,-0.21837021,3.6795537,0.46512073,-0.46738443
1747679467.9895897,-0.024222683,0.09652464,-0.21837021,3.6795537,0.46512073,-0.46738443
1747679467.9901073,-0.024222683,0.09652464,-0.21837021,3.6795537,0.46512073,-0.46738443
1747679467.9906273,-0.024222683,0.09652464,-0.21837021,3.6795537,0.46512073,-0.46738443
1747679467.9911537,-0.068641104,0.45675316,-0.43118814,1.9112161,1.5239928,-0.78909403
1747679467.9916751,-0.068641104,0.45675316,-0.43118814,1.9112161,1.5239928,-0.78909403
1747679467.9921937,-0.068641104,0.45675316,-0.43118814,1.9112161,1.5239928,-0.78909403
1747679467.9927123,-0.068641104,0.45675316,-0.43118814,1.9112161,1.5239928,-0.78909403
1747679467.9932306,-0.068641104,0.45675316,-0.43118814,1.9112161,1.5239928,-0.78909403
1747679467.9937491,-0.068641104,0.45675316,-0.43118814,1.9112161,1.5239928,-0.78909403
1747679467.9942849,-0.068641104,0.45675316,-0.43118814,1.9112161,1.5239928,-0.78909403
1747679467.9948301,-0.068641104,0.45675316,-0.43118814,1.9112161,1.5239928,-0.78909403
1747679467.995355,-0.068641104,0.45675316,-0.43118814,1.9112161,1.5239928,-0.78909403
1747679467.9958737,-0.068641104,0.45675316,-0.43118814,1.9112161,1.5239928,-0.78909403
1747679467.996392,-0.068641104,0.45675316,-0.43118814,1.9112161,1.5239928,-0.78909403
1747679467.9969325,-0.068641104,0.45675316,-0.43118814,1.9112161,1.5239928,-0.78909403
1747679467.99749,-0.068641104,0.45675316,-0.43118814,1.9112161,1.5239928,-0.78909403
1747679467.9980538,-0.068641104,0.45675316,-0.43118814,1.9112161,1.5239928,-0.78909403
1747679467.9986017,-0.068641104,0.45675316,-0.43118814,1.9112161,1.5239928,-0.78909403
1747679467.999131,-0.13307221,0.51532686,-0.43167624,1.6896412,1.541037,-0.7592667
1747679467.9996521,-0.13307221,0.51532686,-0.43167624,1.6896412,1.541037,-0.7592667
1747679468.000176,-0.13307221,0.51532686,-0.43167624,1.6896412,1.541037,-0.7592667
1747679468.0006979,-0.13307221,0.51532686,-0.43167624,1.6896412,1.541037,-0.7592667
1747679468.00122,-0.13307221,0.51532686,-0.43167624,1.6896412,1.541037,-0.7592667
1747679468.002037,-0.13307221,0.51532686,-0.43167624,1.6896412,1.541037,-0.7592667
1747679468.00259,-0.13307221,0.51532686,-0.43167624,1.6896412,1.541037,-0.7592667
1747679468.003123,-0.13307221,0.51532686,-0.43167624,1.6896412,1.541037,-0.7592667
1747679468.0036595,-0.13307221,0.51532686,-0.43167624,1.6896412,1.541037,-0.7592667
1747679468.0042055,-0.13307221,0.51532686,-0.43167624,1.6896412,1.541037,-0.7592667
1747679468.0047302,-0.13307221,0.51532686,-0.43167624,1.6896412,1.541037,-0.7592667
1747679468.0052488,-0.13307221,0.51532686,-0.43167624,1.6896412,1.541037,-0.7592667
1747679468.005767,-0.13307221,0.51532686,-0.43167624,1.6896412,1.541037,-0.7592667
1747679468.0062854,-0.13307221,0.51532686,-0.43167624,1.6896412,1.541037,-0.7592667
1747679468.0068035,-0.13307221,0.51532686,-0.43167624,1.6896412,1.541037,-0.7592667
1747679468.0073214,-0.13307221,0.51532686,-0.43167624,1.6896412,1.541037,-0.7592667
1747679468.0078394,-0.13307221,0.51532686,-0.43167624,1.6896412,1.541037,-0.7592667
1747679468.008357,-0.13307221,0.51532686,-0.43167624,1.6896412,1.541037,-0.7592667
1747679468.008875,-0.13307221,0.51532686,-0.43167624,1.6896412,1.541037,-0.7592667
1747679468.009393,-0.13307221,0.51532686,-0.43167624,1.6896412,1.541037,-0.7592667
1747679468.0099108,-0.13307221,0.51532686,-0.43167624,1.6896412,1.541037,-0.7592667
1747679468.010429,-0.13307221,0.51532686,-0.43167624,1.6896412,1.541037,-0.7592667
1747679468.010947,-0.13307221,0.51532686,-0.43167624,1.6896412,1.541037,-0.7592667
1747679468.0114696,-0.17749064,0.5475424,-0.4228902,1.4978938,1.5708644,-0.6761761
1747679468.0119908,-0.17749064,0.5475424,-0.4228902,1.4978938,1.5708644,-0.6761761
1747679468.0125768,-0.17749064,0.5475424,-0.4228902,1.4978938,1.5708644,-0.6761761
1747679468.0131404,-0.17749064,0.5475424,-0.4228902,1.4978938,1.5708644,-0.6761761
1747679468.013689,-0.17749064,0.5475424,-0.4228902,1.4978938,1.5708644,-0.6761761
1747679468.014318,-0.17749064,0.5475424,-0.4228902,1.4978938,1.5708644,-0.6761761
1747679468.014863,-0.17749064,0.5475424,-0.4228902,1.4978938,1.5708644,-0.6761761
1747679468.0153883,-0.17749064,0.5475424,-0.4228902,1.4978938,1.5708644,-0.6761761
1747679468.0159075,-0.17749064,0.5475424,-0.4228902,1.4978938,1.5708644,-0.6761761
1747679468.0164301,-0.17749064,0.5475424,-0.4228902,1.4978938,1.5708644,-0.6761761
1747679468.0173202,-0.17749064,0.5475424,-0.4228902,1.4978938,1.5708644,-0.6761761
1747679468.0178657,-0.17749064,0.5475424,-0.4228902,1.4978938,1.5708644,-0.6761761
1747679468.0183983,-0.17749064,0.5475424,-0.4228902,1.4978938,1.5708644,-0.6761761
1747679468.0189176,-0.17749064,0.5475424,-0.4228902,1.4978938,1.5708644,-0.6761761
1747679468.0194364,-0.17749064,0.5475424,-0.4228902,1.4978938,1.5708644,-0.6761761
1747679468.0199542,-0.17749064,0.5475424,-0.4228902,1.4978938,1.5708644,-0.6761761
1747679468.0204723,-0.17749064,0.5475424,-0.4228902,1.4978938,1.5708644,-0.6761761
1747679468.0209904,-0.17749064,0.5475424,-0.4228902,1.4978938,1.5708644,-0.6761761
1747679468.0215087,-0.17749064,0.5475424,-0.4228902,1.4978938,1.5708644,-0.6761761
1747679468.022027,-0.17749064,0.5475424,-0.4228902,1.4978938,1.5708644,-0.6761761
1747679468.022545,-0.17749064,0.5475424,-0.4228902,1.4978938,1.5708644,-0.6761761
1747679468.0230632,-0.17749064,0.5475424,-0.4228902,1.4978938,1.5708644,-0.6761761
1747679468.0236032,-0.19506276,0.5792699,-0.4023894,1.3839107,1.5740602,-0.60267293
1747679468.0241487,-0.19506276,0.5792699,-0.4023894,1.3839107,1.5740602,-0.60267293
1747679468.024673,-0.19506276,0.5792699,-0.4023894,1.3839107,1.5740602,-0.60267293
1747679468.025192,-0.19506276,0.5792699,-0.4023894,1.3839107,1.5740602,-0.60267293
1747679468.0257106,-0.19506276,0.5792699,-0.4023894,1.3839107,1.5740602,-0.60267293
1747679468.026229,-0.19506276,0.5792699,-0.4023894,1.3839107,1.5740602,-0.60267293
1747679468.0267465,-0.19506276,0.5792699,-0.4023894,1.3839107,1.5740602,-0.60267293
1747679468.0272648,-0.19506276,0.5792699,-0.4023894,1.3839107,1.5740602,-0.60267293
1747679468.0278172,-0.19506276,0.5792699,-0.4023894,1.3839107,1.5740602,-0.60267293
1747679468.0283587,-0.19506276,0.5792699,-0.4023894,1.3839107,1.5740602,-0.60267293
1747679468.0288837,-0.19506276,0.5792699,-0.4023894,1.3839107,1.5740602,-0.60267293
1747679468.0294027,-0.19506276,0.5792699,-0.4023894,1.3839107,1.5740602,-0.60267293
1747679468.0299206,-0.19506276,0.5792699,-0.4023894,1.3839107,1.5740602,-0.60267293
1747679468.030439,-0.19506276,0.5792699,-0.4023894,1.3839107,1.5740602,-0.60267293
1747679468.0309567,-0.19506276,0.5792699,-0.4023894,1.3839107,1.5740602,-0.60267293
1747679468.0314796,-0.19506276,0.5792699,-0.4023894,1.3839107,1.5740602,-0.60267293
1747679468.0323372,-0.19506276,0.5792699,-0.4023894,1.3839107,1.5740602,-0.60267293
1747679468.0328808,-0.19506276,0.5792699,-0.4023894,1.3839107,1.5740602,-0.60267293
1747679468.0334127,-0.20726562,0.6056281,-0.39116275,1.3839107,1.5740602,-0.60267293
1747679468.033953,-0.20726562,0.6056281,-0.39116275,1.2837758,1.5357107,-0.51106024
1747679468.0344985,-0.20726562,0.6056281,-0.39116275,1.2837758,1.5357107,-0.51106024
1747679468.0350237,-0.20726562,0.6056281,-0.39116275,1.2837758,1.5357107,-0.51106024
1747679468.0355425,-0.20726562,0.6056281,-0.39116275,1.2837758,1.5357107,-0.51106024
1747679468.0360613,-0.20726562,0.6056281,-0.39116275,1.2837758,1.5357107,-0.51106024
1747679468.0365794,-0.20726562,0.6056281,-0.39116275,1.2837758,1.5357107,-0.51106024
1747679468.0371451,-0.20726562,0.6056281,-0.39116275,1.2837758,1.5357107,-0.51106024
1747679468.0376654,-0.20726562,0.6056281,-0.39116275,1.2837758,1.5357107,-0.51106024
1747679468.0381832,-0.20726562,0.6056281,-0.39116275,1.2837758,1.5357107,-0.51106024
1747679468.038701,-0.20726562,0.6056281,-0.39116275,1.2837758,1.5357107,-0.51106024
1747679468.0392191,-0.20726562,0.6056281,-0.39116275,1.2837758,1.5357107,-0.51106024
1747679468.039737,-0.20726562,0.6056281,-0.39116275,1.2837758,1.5357107,-0.51106024
1747679468.040255,-0.20726562,0.6056281,-0.39116275,1.2837758,1.5357107,-0.51106024
1747679468.040773,-0.20726562,0.6056281,-0.39116275,1.2837758,1.5357107,-0.51106024
1747679468.0412908,-0.20726562,0.6056281,-0.39116275,1.2837758,1.5357107,-0.51106024
1747679468.0418084,-0.20726562,0.6056281,-0.39116275,1.2837758,1.5357107,-0.51106024
1747679468.042326,-0.20726562,0.6056281,-0.39116275,1.2837758,1.5357107,-0.51106024
1747679468.0430126,-0.20726562,0.6056281,-0.39116275,1.2837758,1.5357107,-0.51106024
1747679468.0435686,-0.20726562,0.6056281,-0.39116275,1.2837758,1.5357107,-0.51106024
1747679468.0441146,-0.19701521,0.63540304,-0.38140047,1.2454263,1.4270538,-0.46631917
1747679468.0447326,-0.19701521,0.63540304,-0.38140047,1.2454263,1.4270538,-0.46631917
1747679468.045277,-0.19701521,0.63540304,-0.38140047,1.2454263,1.4270538,-0.46631917
1747679468.0458016,-0.19701521,0.63540304,-0.38140047,1.2454263,1.4270538,-0.46631917
1747679468.0463233,-0.19701521,0.63540304,-0.38140047,1.2454263,1.4270538,-0.46631917
1747679468.0468442,-0.19701521,0.63540304,-0.38140047,1.2454263,1.4270538,-0.46631917
1747679468.0473652,-0.19701521,0.63540304,-0.38140047,1.2454263,1.4270538,-0.46631917
1747679468.0478916,-0.19701521,0.63540304,-0.38140047,1.2454263,1.4270538,-0.46631917
1747679468.048793,-0.19701521,0.63540304,-0.38140047,1.2454263,1.4270538,-0.46631917
1747679468.0493507,-0.19701521,0.63540304,-0.38140047,1.2454263,1.4270538,-0.46631917
1747679468.0498862,-0.19701521,0.63540304,-0.38140047,1.2454263,1.4270538,-0.46631917
1747679468.0504081,-0.19701521,0.63540304,-0.38140047,1.2454263,1.4270538,-0.46631917
1747679468.0509343,-0.20433694,0.6554158,-0.3789599,1.2688621,1.2725905,-0.46844968
1747679468.051457,-0.20433694,0.6554158,-0.3789599,1.2688621,1.2725905,-0.46844968
1747679468.0519779,-0.20433694,0.6554158,-0.3789599,1.2688621,1.2725905,-0.46844968
1747679468.0524998,-0.20433694,0.6554158,-0.3789599,1.2688621,1.2725905,-0.46844968
1747679468.0530245,-0.20433694,0.6554158,-0.3789599,1.2688621,1.2725905,-0.46844968
1747679468.0535462,-0.20433694,0.6554158,-0.3789599,1.2688621,1.2725905,-0.46844968
1747679468.0540674,-0.20433694,0.6554158,-0.3789599,1.2688621,1.2725905,-0.46844968
1747679468.0546024,-0.20433694,0.6554158,-0.3789599,1.2688621,1.2725905,-0.46844968
1747679468.055151,-0.20433694,0.6554158,-0.3789599,1.2688621,1.2725905,-0.46844968
1747679468.0556786,-0.20433694,0.6554158,-0.3789599,1.2688621,1.2725905,-0.46844968
1747679468.0562003,-0.20433694,0.6554158,-0.3789599,1.2688621,1.2725905,-0.46844968
1747679468.0567212,-0.20433694,0.6554158,-0.3789599,1.2688621,1.2725905,-0.46844968
1747679468.0572417,-0.20433694,0.6554158,-0.3789599,1.2688621,1.2725905,-0.46844968
1747679468.0577621,-0.20433694,0.6554158,-0.3789599,1.2688621,1.2725905,-0.46844968
1747679468.0583284,-0.20433694,0.6554158,-0.3789599,1.2688621,1.2725905,-0.46844968
1747679468.0588675,-0.20433694,0.6554158,-0.3789599,1.2688621,1.2725905,-0.46844968
1747679468.0593925,-0.20433694,0.6554158,-0.3789599,1.2688621,1.2725905,-0.46844968
1747679468.0599136,-0.20433694,0.6554158,-0.3789599,1.2688621,1.2725905,-0.46844968
1747679468.06044,-0.23752871,0.66664237,-0.38335294,1.3359737,1.0574074,-0.49614653
1747679468.060963,-0.23752871,0.66664237,-0.38335294,1.3359737,1.0574074,-0.49614653
1747679468.0614917,-0.23752871,0.66664237,-0.38335294,1.3359737,1.0574074,-0.49614653
1747679468.062001,-0.23752871,0.66664237,-0.38335294,1.3359737,1.0574074,-0.49614653
1747679468.0625257,-0.23752871,0.66664237,-0.38335294,1.3359737,1.0574074,-0.49614653
1747679468.0630507,-0.23752871,0.66664237,-0.38335294,1.3359737,1.0574074,-0.49614653
1747679468.0638742,-0.23752871,0.66664237,-0.38335294,1.3359737,1.0574074,-0.49614653
1747679468.064438,-0.23752871,0.66664237,-0.38335294,1.3359737,1.0574074,-0.49614653
1747679468.0649843,-0.23752871,0.66664237,-0.38335294,1.3359737,1.0574074,-0.49614653
1747679468.0655093,-0.23752871,0.66664237,-0.38335294,1.3359737,1.0574074,-0.49614653
1747679468.0660279,-0.23752871,0.66664237,-0.38335294,1.3359737,1.0574074,-0.49614653
1747679468.066546,-0.23752871,0.66664237,-0.38335294,1.3359737,1.0574074,-0.49614653
1747679468.0670638,-0.23752871,0.66664237,-0.38335294,1.3359737,1.0574074,-0.49614653
1747679468.067582,-0.23752871,0.66664237,-0.38335294,1.3359737,1.0574074,-0.49614653
1747679468.0680997,-0.23752871,0.66664237,-0.38335294,1.3359737,1.0574074,-0.49614653
1747679468.0686178,-0.23752871,0.66664237,-0.38335294,1.3359737,1.0574074,-0.49614653
1747679468.0691352,-0.23752871,0.66664237,-0.38335294,1.3359737,1.0574074,-0.49614653
1747679468.0696535,-0.23752871,0.66664237,-0.38335294,1.3359737,1.0574074,-0.49614653
1747679468.0701811,-0.29170942,0.6554158,-0.39506766,1.3359737,1.0574074,-0.49614653
1747679468.070723,-0.29170942,0.6554158,-0.39506766,1.3359737,1.0574074,-0.49614653
1747679468.0712616,-0.29170942,0.6554158,-0.39506766,1.4446306,0.8411588,-0.5238434
1747679468.0717864,-0.29170942,0.6554158,-0.39506766,1.4446306,0.8411588,-0.5238434
1747679468.0723066,-0.29170942,0.6554158,-0.39506766,1.4446306,0.8411588,-0.5238434
1747679468.0728252,-0.29170942,0.6554158,-0.39506766,1.4446306,0.8411588,-0.5238434
1747679468.0733972,-0.29170942,0.6554158,-0.39506766,1.4446306,0.8411588,-0.5238434
1747679468.0739667,-0.29170942,0.6554158,-0.39506766,1.4446306,0.8411588,-0.5238434
1747679468.074523,-0.29170942,0.6554158,-0.39506766,1.4446306,0.8411588,-0.5238434
1747679468.0754173,-0.29170942,0.6554158,-0.39506766,1.4446306,0.8411588,-0.5238434
1747679468.075967,-0.29170942,0.6554158,-0.39506766,1.4446306,0.8411588,-0.5238434
1747679468.0764997,-0.29170942,0.6554158,-0.39506766,1.4446306,0.8411588,-0.5238434
1747679468.0770202,-0.29170942,0.6554158,-0.39506766,1.4446306,0.8411588,-0.5238434
1747679468.0775394,-0.29170942,0.6554158,-0.39506766,1.4446306,0.8411588,-0.5238434
1747679468.0780625,-0.29170942,0.6554158,-0.39506766,1.4446306,0.8411588,-0.5238434
1747679468.0785837,-0.29170942,0.6554158,-0.39506766,1.4446306,0.8411588,-0.5238434
1747679468.0791063,-0.29170942,0.6554158,-0.39506766,1.4446306,0.8411588,-0.5238434
1747679468.0801501,-0.35565242,0.62612885,-0.43948612,1.5735276,0.6472808,-0.5206476
1747679468.0807028,-0.35565242,0.62612885,-0.43948612,1.5735276,0.6472808,-0.5206476
1747679468.0812356,-0.35565242,0.62612885,-0.43948612,1.5735276,0.6472808,-0.5206476
1747679468.081755,-0.35565242,0.62612885,-0.43948612,1.5735276,0.6472808,-0.5206476
1747679468.082273,-0.35565242,0.62612885,-0.43948612,1.5735276,0.6472808,-0.5206476
1747679468.0827916,-0.35565242,0.62612885,-0.43948612,1.5735276,0.6472808,-0.5206476
1747679468.0833275,-0.35565242,0.62612885,-0.43948612,1.5735276,0.6472808,-0.5206476
1747679468.0838726,-0.35565242,0.62612885,-0.43948612,1.5735276,0.6472808,-0.5206476
1747679468.084397,-0.35565242,0.62612885,-0.43948612,1.5735276,0.6472808,-0.5206476
1747679468.0849154,-0.35565242,0.62612885,-0.43948612,1.5735276,0.6472808,-0.5206476
1747679468.0854335,-0.35565242,0.62612885,-0.43948612,1.5735276,0.6472808,-0.5206476
1747679468.0859516,-0.35565242,0.62612885,-0.43948612,1.5735276,0.6472808,-0.5206476
1747679468.0864694,-0.35565242,0.62612885,-0.43948612,1.5735276,0.6472808,-0.5206476
1747679468.0869868,-0.35565242,0.62612885,-0.43948612,1.5735276,0.6472808,-0.5206476
1747679468.0875046,-0.35565242,0.62612885,-0.43948612,1.5735276,0.6472808,-0.5206476
1747679468.088022,-0.35565242,0.62612885,-0.43948612,1.5735276,0.6472808,-0.5206476
1747679468.0885618,-0.35565242,0.62612885,-0.43948612,1.5735276,0.6472808,-0.5206476
1747679468.0890977,-0.35565242,0.62612885,-0.43948612,1.5735276,0.6472808,-0.5206476
1747679468.0896301,-0.35565242,0.62612885,-0.43948612,1.5735276,0.6472808,-0.5206476
1747679468.0901499,-0.35565242,0.62612885,-0.43948612,1.5735276,0.6472808,-0.5206476
1747679468.0906878,-0.35565242,0.62612885,-0.43948612,1.5735276,0.6472808,-0.5206476
1747679468.0912354,-0.41324997,0.61539036,-0.5239299,1.6928371,0.4896218,-0.47803706
1747679468.0917575,-0.41324997,0.61539036,-0.5239299,1.6928371,0.4896218,-0.47803706
1747679468.0922763,-0.41324997,0.61539036,-0.5239299,1.6928371,0.4896218,-0.47803706
1747679468.0927942,-0.41324997,0.61539036,-0.5239299,1.6928371,0.4896218,-0.47803706
1747679468.0933118,-0.41324997,0.61539036,-0.5239299,1.6928371,0.4896218,-0.47803706
1747679468.0938442,-0.41324997,0.61539036,-0.5239299,1.6928371,0.4896218,-0.47803706
1747679468.0943859,-0.41324997,0.61539036,-0.5239299,1.6928371,0.4896218,-0.47803706
1747679468.0951998,-0.41324997,0.61539036,-0.5239299,1.6928371,0.4896218,-0.47803706
1747679468.0957525,-0.41324997,0.61539036,-0.5239299,1.6928371,0.4896218,-0.47803706
1747679468.096285,-0.41324997,0.61539036,-0.5239299,1.6928371,0.4896218,-0.47803706
1747679468.0968049,-0.41324997,0.61539036,-0.5239299,1.6928371,0.4896218,-0.47803706
1747679468.097323,-0.41324997,0.61539036,-0.5239299,1.6928371,0.4896218,-0.47803706
1747679468.0978408,-0.41324997,0.61539036,-0.5239299,1.6928371,0.4896218,-0.47803706
1747679468.0983593,-0.41324997,0.61539036,-0.5239299,1.6928371,0.4896218,-0.47803706
1747679468.0988772,-0.41324997,0.61539036,-0.5239299,1.6928371,0.4896218,-0.47803706
1747679468.0993953,-0.41324997,0.61539036,-0.5239299,1.6928371,0.4896218,-0.47803706
1747679468.0999131,-0.41324997,0.61539036,-0.5239299,1.6928371,0.4896218,-0.47803706
1747679468.1004357,-0.41324997,0.61539036,-0.5239299,1.7556876,0.40653124,-0.3949465
1747679468.1009557,-0.41324997,0.61539036,-0.5239299,1.7556876,0.40653124,-0.3949465
1747679468.1014774,-0.48060974,0.6227121,-0.70599663,1.7556876,0.40653124,-0.3949465
1747679468.1019993,-0.48060974,0.6227121,-0.70599663,1.7556876,0.40653124,-0.3949465
1747679468.1025214,-0.48060974,0.6227121,-0.70599663,1.7556876,0.40653124,-0.3949465
1747679468.1030402,-0.48060974,0.6227121,-0.70599663,1.7556876,0.40653124,-0.3949465
1747679468.1035614,-0.48060974,0.6227121,-0.70599663,1.7556876,0.40653124,-0.3949465
1747679468.1042264,-0.48060974,0.6227121,-0.70599663,1.7556876,0.40653124,-0.3949465
1747679468.10626,-0.48060974,0.6227121,-0.70599663,1.7556876,0.40653124,-0.3949465
1747679468.1068172,-0.48060974,0.6227121,-0.70599663,1.7556876,0.40653124,-0.3949465
1747679468.1073582,-0.48060974,0.6227121,-0.70599663,1.7556876,0.40653124,-0.3949465
1747679468.1078901,-0.48060974,0.6227121,-0.70599663,1.7556876,0.40653124,-0.3949465
1747679468.1084225,-0.48060974,0.6227121,-0.70599663,1.7556876,0.40653124,-0.3949465
1747679468.1089551,-0.48060974,0.6227121,-0.70599663,1.7556876,0.40653124,-0.3949465
1747679468.1095035,-0.48060974,0.6227121,-0.70599663,1.7556876,0.40653124,-0.3949465
1747679468.1100557,-0.48060974,0.6227121,-0.70599663,1.7556876,0.40653124,-0.3949465
1747679468.1122687,-0.5191708,0.622224,-0.8509666,1.7152076,0.4012049,-0.27350643
1747679468.1128302,-0.5191708,0.622224,-0.8509666,1.7152076,0.4012049,-0.27350643
1747679468.11339,-0.5191708,0.622224,-0.8509666,1.7152076,0.4012049,-0.27350643
1747679468.1139424,-0.5191708,0.622224,-0.8509666,1.7152076,0.4012049,-0.27350643
1747679468.1144881,-0.5191708,0.622224,-0.8509666,1.7152076,0.4012049,-0.27350643
1747679468.115034,-0.5191708,0.622224,-0.8509666,1.7152076,0.4012049,-0.27350643
1747679468.1155744,-0.5191708,0.622224,-0.8509666,1.7152076,0.4012049,-0.27350643
1747679468.116099,-0.5191708,0.622224,-0.8509666,1.7152076,0.4012049,-0.27350643
1747679468.1166174,-0.5191708,0.622224,-0.8509666,1.7152076,0.4012049,-0.27350643
1747679468.1171355,-0.5191708,0.622224,-0.8509666,1.7152076,0.4012049,-0.27350643
1747679468.117654,-0.5191708,0.622224,-0.8509666,1.7152076,0.4012049,-0.27350643
1747679468.118172,-0.5191708,0.622224,-0.8509666,1.7152076,0.4012049,-0.27350643
1747679468.11869,-0.5191708,0.622224,-0.8509666,1.7152076,0.4012049,-0.27350643
1747679468.1192243,-0.5191708,0.622224,-0.8509666,1.7152076,0.4012049,-0.27350643
1747679468.1197593,-0.5191708,0.622224,-0.8509666,1.7152076,0.4012049,-0.27350643
1747679468.120281,-0.5191708,0.622224,-0.8509666,1.7152076,0.4012049,-0.27350643
1747679468.1207995,-0.5191708,0.622224,-0.8509666,1.7152076,0.4012049,-0.27350643
1747679468.1213362,-0.5601724,0.6197834,-0.997401,1.7152076,0.4012049,-0.27350643
1747679468.1218753,-0.5601724,0.6197834,-0.997401,1.7152076,0.4012049,-0.27350643
1747679468.1223974,-0.5601724,0.6197834,-0.997401,1.7152076,0.4012049,-0.27350643
1747679468.1229157,-0.5601724,0.6197834,-0.997401,1.7152076,0.4012049,-0.27350643
1747679468.1234524,-0.5601724,0.6197834,-0.997401,1.587376,0.41505334,-0.16165376
1747679468.1239908,-0.5601724,0.6197834,-0.997401,1.587376,0.41505334,-0.16165376
1747679468.1245136,-0.5601724,0.6197834,-0.997401,1.587376,0.41505334,-0.16165376
1747679468.1250358,-0.5601724,0.6197834,-0.997401,1.587376,0.41505334,-0.16165376
1747679468.1255572,-0.5601724,0.6197834,-0.997401,1.587376,0.41505334,-0.16165376
1747679468.1260798,-0.5601724,0.6197834,-0.997401,1.587376,0.41505334,-0.16165376
1747679468.1269112,-0.5601724,0.6197834,-0.997401,1.587376,0.41505334,-0.16165376
1747679468.1274643,-0.5601724,0.6197834,-0.997401,1.587376,0.41505334,-0.16165376
1747679468.1279974,-0.5601724,0.6197834,-0.997401,1.587376,0.41505334,-0.16165376
1747679468.128517,-0.5601724,0.6197834,-0.997401,1.587376,0.41505334,-0.16165376
1747679468.129035,-0.5601724,0.6197834,-0.997401,1.587376,0.41505334,-0.16165376
1747679468.1295533,-0.5601724,0.6197834,-0.997401,1.587376,0.41505334,-0.16165376
1747679468.1300716,-0.5601724,0.6197834,-0.997401,1.587376,0.41505334,-0.16165376
1747679468.13059,-0.5601724,0.6197834,-0.997401,1.587376,0.41505334,-0.16165376
1747679468.1311135,-0.5943404,0.6129498,-1.1413947,1.2731233,0.36711648,0.02157159
1747679468.1316342,-0.5943404,0.6129498,-1.1413947,1.2731233,0.36711648,0.02157159
1747679468.1321523,-0.5943404,0.6129498,-1.1413947,1.2731233,0.36711648,0.02157159
1747679468.1326704,-0.5943404,0.6129498,-1.1413947,1.2731233,0.36711648,0.02157159
1747679468.1331882,-0.5943404,0.6129498,-1.1413947,1.2731233,0.36711648,0.02157159
1747679468.1337235,-0.5943404,0.6129498,-1.1413947,1.2731233,0.36711648,0.02157159
1747679468.134539,-0.5943404,0.6129498,-1.1413947,1.2731233,0.36711648,0.02157159
1747679468.1352057,-0.5943404,0.6129498,-1.1413947,1.2731233,0.36711648,0.02157159
1747679468.135765,-0.5943404,0.6129498,-1.1413947,1.2731233,0.36711648,0.02157159
1747679468.1363258,-0.5943404,0.6129498,-1.1413947,1.2731233,0.36711648,0.02157159
1747679468.1368747,-0.5943404,0.6129498,-1.1413947,1.2731233,0.36711648,0.02157159
1747679468.137408,-0.5943404,0.6129498,-1.1413947,1.2731233,0.36711648,0.02157159
1747679468.1379275,-0.5943404,0.6129498,-1.1413947,1.2731233,0.36711648,0.02157159
1747679468.1384459,-0.5943404,0.6129498,-1.1413947,1.2731233,0.36711648,0.02157159
1747679468.138964,-0.5943404,0.6129498,-1.1413947,1.2731233,0.36711648,0.02157159
1747679468.139482,-0.5943404,0.6129498,-1.1413947,1.2731233,0.36711648,0.02157159
1747679468.1400006,-0.5943404,0.6129498,-1.1413947,1.2731233,0.36711648,0.02157159
1747679468.1405184,-0.5943404,0.6129498,-1.1413947,1.2731233,0.36711648,0.02157159
1747679468.1410418,-0.5943404,0.6129498,-1.1413947,1.2731233,0.36711648,0.02157159
1747679468.141957,-0.5943404,0.6129498,-1.1413947,1.2731233,0.36711648,0.02157159
1747679468.1425102,-0.5943404,0.6129498,-1.1413947,1.2731233,0.36711648,0.02157159
1747679468.1430428,-0.5943404,0.6129498,-1.1413947,1.2731233,0.36711648,0.02157159
1747679468.1435626,-0.5943404,0.6129498,-1.1413947,1.2731233,0.36711648,0.02157159
1747679468.1440976,-0.5943404,0.6129498,-1.1413947,1.2731233,0.36711648,0.02157159
1747679468.1446426,-0.5943404,0.6129498,-1.1413947,1.2731233,0.36711648,0.02157159
1747679468.145167,-0.5943404,0.6129498,-1.1413947,1.2731233,0.36711648,0.02157159
1747679468.145686,-0.5943404,0.6129498,-1.1413947,1.2731233,0.36711648,0.02157159
1747679468.146207,-0.5943404,0.6129498,-1.1413947,1.2731233,0.36711648,0.02157159
1747679468.1467283,-0.5943404,0.6129498,-1.1413947,1.2731233,0.36711648,0.02157159
1747679468.147249,-0.5943404,0.6129498,-1.1413947,1.2731233,0.36711648,0.02157159
1747679468.1478124,-0.5943404,0.6129498,-1.1413947,1.2731233,0.36711648,0.02157159
1747679468.1483583,-0.60507894,0.62515265,-1.2346246,1.2731233,0.36711648,0.02157159
1747679468.1488824,-0.60507894,0.62515265,-1.2346246,1.2731233,0.36711648,0.02157159
1747679468.149419,-0.60507894,0.62515265,-1.2346246,1.2731233,0.36711648,0.02157159
1747679468.1499555,-0.60507894,0.62515265,-1.2346246,1.2731233,0.36711648,0.02157159
1747679468.1504793,-0.60507894,0.62515265,-1.2346246,1.2731233,0.36711648,0.02157159
1747679468.1510003,-0.60507894,0.62515265,-1.2346246,1.2731233,0.36711648,0.02157159
1747679468.1515207,-0.60507894,0.62515265,-1.2346246,1.2731233,0.36711648,0.02157159
1747679468.152041,-0.60507894,0.62515265,-1.2346246,1.2731233,0.36711648,0.02157159
1747679468.152562,-0.60507894,0.62515265,-1.2346246,1.2731233,0.36711648,0.02157159
1747679468.153083,-0.60507894,0.62515265,-1.2346246,1.2731233,0.36711648,0.02157159
1747679468.153604,-0.60507894,0.62515265,-1.2346246,1.2731233,0.36711648,0.02157159
1747679468.1541247,-0.60507894,0.62515265,-1.2346246,1.2731233,0.36711648,0.02157159
1747679468.154655,-0.60507894,0.62515265,-1.2346246,1.2731233,0.36711648,0.02157159
1747679468.1551938,-0.60507894,0.62515265,-1.2346246,1.2731233,0.36711648,0.02157159
1747679468.1557183,-0.60507894,0.62515265,-1.2346246,1.2731233,0.36711648,0.02157159
1747679468.1562443,-0.60507894,0.62515265,-1.2346246,1.2731233,0.36711648,0.02157159
1747679468.156768,-0.60507894,0.62515265,-1.2346246,1.2731233,0.36711648,0.02157159
1747679468.1572938,-0.60507894,0.62515265,-1.2346246,1.2731233,0.36711648,0.02157159
1747679468.1582794,-0.60507894,0.62515265,-1.2346246,1.2731233,0.36711648,0.02157159
1747679468.158838,-0.60507894,0.62515265,-1.2346246,1.2731233,0.36711648,0.02157159
1747679468.1593733,-0.60507894,0.62515265,-1.2346246,1.2731233,0.36711648,0.02157159
1747679468.159895,-0.60507894,0.62515265,-1.2346246,1.2731233,0.36711648,0.02157159
1747679468.160416,-0.60507894,0.62515265,-1.2346246,1.2731233,0.36711648,0.02157159
1747679468.160937,-0.60507894,0.62515265,-1.2346246,1.2731233,0.36711648,0.02157159
1747679468.1614602,-0.60507894,0.62515265,-1.2346246,1.2731233,0.36711648,0.02157159
1747679468.161981,-0.60507894,0.62515265,-1.2346246,1.2731233,0.36711648,0.02157159
1747679468.1625257,-0.60507894,0.62515265,-1.2346246,1.2731233,0.36711648,0.02157159
1747679468.163051,-0.60507894,0.62515265,-1.2346246,1.2731233,0.36711648,0.02157159
1747679468.16357,-0.60507894,0.62515265,-1.2346246,1.2731233,0.36711648,0.02157159
1747679468.1641018,-0.60507894,0.62515265,-1.2346246,1.2731233,0.36711648,0.02157159
1747679468.1647272,-0.60507894,0.62515265,-1.2346246,1.2731233,0.36711648,0.02157159
1747679468.1653485,-0.60507894,0.62515265,-1.2346246,1.2731233,0.36711648,0.02157159
1747679468.165919,-0.60507894,0.62515265,-1.2346246,1.2731233,0.36711648,0.02157159
1747679468.166564,-0.60507894,0.62515265,-1.2346246,0.6265082,-0.19534272,0.31878015
1747679468.167114,-0.54455274,0.67640465,-1.253661,0.32610384,-0.6608629,0.40932757
1747679468.1676383,-0.54455274,0.67640465,-1.253661,0.32610384,-0.6608629,0.40932757
1747679468.1681566,-0.54455274,0.67640465,-1.253661,0.32610384,-0.6608629,0.40932757
1747679468.1686747,-0.54455274,0.67640465,-1.253661,0.32610384,-0.6608629,0.40932757
1747679468.1691928,-0.54455274,0.67640465,-1.253661,0.32610384,-0.6608629,0.40932757
1747679468.169711,-0.54455274,0.67640465,-1.253661,0.32610384,-0.6608629,0.40932757
1747679468.170229,-0.54455274,0.67640465,-1.253661,0.32610384,-0.6608629,0.40932757
1747679468.1707468,-0.54455274,0.67640465,-1.253661,0.32610384,-0.6608629,0.40932757
1747679468.1712644,-0.54455274,0.67640465,-1.253661,0.32610384,-0.6608629,0.40932757
1747679468.1717823,-0.54455274,0.67640465,-1.253661,0.32610384,-0.6608629,0.40932757
1747679468.1723497,-0.54455274,0.67640465,-1.253661,0.016112113,-1.0965557,0.48176548
1747679468.1728954,-0.54455274,0.6739641,-1.2692808,0.016112113,-1.0965557,0.48176548
1747679468.1738136,-0.54455274,0.6739641,-1.2692808,0.016112113,-1.0965557,0.48176548
1747679468.1743686,-0.54455274,0.6739641,-1.2692808,0.016112113,-1.0965557,0.48176548
1747679468.174914,-0.54455274,0.6739641,-1.2692808,0.016112113,-1.0965557,0.48176548
1747679468.1754386,-0.54455274,0.6739641,-1.2692808,0.016112113,-1.0965557,0.48176548
