timestamp,acc_x,acc_y,acc_z,gyro_x,gyro_y,gyro_z
1747679516.3514888,-0.089141905,0.98001194,-0.02166008,-0.2619217,-0.32104382,0.24847275
1747679516.3520465,-0.05399767,1.0005127,0.053509556,-0.2619217,-0.32104382,0.24847275
1747679516.3526106,-0.05399767,1.0005127,0.053509556,-0.2619217,-0.32104382,0.24847275
1747679516.353166,-0.05399767,1.0005127,0.053509556,-0.2619217,-0.32104382,0.24847275
1747679516.353715,-0.05399767,1.0005127,0.053509556,-0.2619217,-0.32104382,0.24847275
1747679516.3542752,-0.05399767,1.0005127,0.053509556,-0.2619217,-0.32104382,0.24847275
1747679516.354815,-0.05399767,1.0005127,0.053509556,-0.2619217,-0.32104382,0.24847275
1747679516.3553915,-0.05399767,1.0005127,0.053509556,-0.2619217,-0.32104382,0.24847275
1747679516.3559883,-0.05399767,1.0005127,0.053509556,-0.2619217,-0.32104382,0.24847275
1747679516.3565197,-0.05399767,1.0005127,0.053509556,-0.2619217,-0.32104382,0.24847275
1747679516.3570461,-0.05399767,1.0005127,0.053509556,-0.2619217,-0.32104382,0.24847275
1747679516.35759,-0.05399767,1.0005127,0.053509556,-0.2619217,-0.32104382,0.24847275
1747679516.35812,-0.05399767,1.0005127,0.053509556,-0.2619217,-0.32104382,0.24847275
1747679516.3586662,-0.05399767,1.0005127,0.053509556,-0.2619217,-0.32104382,0.24847275
1747679516.359198,-0.05399767,1.0005127,0.053509556,-0.2619217,-0.32104382,0.24847275
1747679516.3597198,-0.05399767,1.0005127,0.053509556,-0.2619217,-0.32104382,0.24847275
1747679516.3602693,-0.05399767,1.0005127,0.053509556,-0.2619217,-0.32104382,0.24847275
1747679516.360825,0.02263631,1.0000246,0.094511166,-0.3087933,-0.2720417,0.30067065
1747679516.3613563,0.02263631,1.0000246,0.094511166,-0.3087933,-0.2720417,0.30067065
1747679516.361921,0.02263631,1.0000246,0.094511166,-0.3087933,-0.2720417,0.30067065
1747679516.3624368,0.02263631,1.0000246,0.094511166,-0.3087933,-0.2720417,0.30067065
1747679516.362962,0.02263631,1.0000246,0.094511166,-0.3087933,-0.2720417,0.30067065
1747679516.3634882,0.02263631,1.0000246,0.094511166,-0.3087933,-0.2720417,0.30067065
1747679516.36403,0.02263631,1.0000246,0.094511166,-0.3087933,-0.2720417,0.30067065
1747679516.364559,0.02263631,1.0000246,0.094511166,-0.3087933,-0.2720417,0.30067065
1747679516.3651106,0.02263631,1.0000246,0.094511166,-0.3087933,-0.2720417,0.30067065
1747679516.3656616,0.02263631,1.0000246,0.094511166,-0.3087933,-0.2720417,0.30067065
1747679516.3661942,0.02263631,1.0000246,0.094511166,-0.3087933,-0.2720417,0.30067065
1747679516.3667347,0.02263631,1.0000246,0.094511166,-0.3087933,-0.2720417,0.30067065
1747679516.3672795,0.02263631,1.0000246,0.094511166,-0.3087933,-0.2720417,0.30067065
1747679516.3678188,0.02263631,1.0000246,0.094511166,-0.3087933,-0.2720417,0.30067065
1747679516.3683457,0.02263631,1.0000246,0.094511166,-0.3087933,-0.2720417,0.30067065
1747679516.3688776,0.02263631,1.0000246,0.094511166,-0.3087933,-0.2720417,0.30067065
1747679516.3694093,0.02263631,1.0000246,0.094511166,-0.3087933,-0.2720417,0.30067065
1747679516.3699424,0.02263631,1.0000246,0.094511166,-0.3087933,-0.2720417,0.30067065
1747679516.370473,0.02263631,1.0000246,0.094511166,-0.3087933,-0.2720417,0.30067065
1747679516.3711476,0.02263631,1.0000246,0.094511166,-0.3087933,-0.2720417,0.30067065
1747679516.3717418,0.02263631,1.0000246,0.094511166,-0.3087933,-0.2720417,0.30067065
1747679516.3722699,0.02263631,1.0000246,0.094511166,-0.3087933,-0.2720417,0.30067065
1747679516.372821,0.02263631,1.0000246,0.094511166,-0.3087933,-0.2720417,0.30067065
1747679516.3733685,0.02263631,1.0000246,0.094511166,-0.3375554,-0.1814943,0.24634221
1747679516.3739223,0.02263631,1.0000246,0.094511166,-0.3375554,-0.1814943,0.24634221
1747679516.374474,0.02263631,1.0000246,0.094511166,-0.3375554,-0.1814943,0.24634221
1747679516.3750317,0.02263631,1.0000246,0.094511166,-0.3375554,-0.1814943,0.24634221
1747679516.3755722,0.02263631,1.0000246,0.094511166,-0.3375554,-0.1814943,0.24634221
1747679516.376144,0.02263631,1.0000246,0.094511166,-0.3375554,-0.1814943,0.24634221
1747679516.3766801,0.02263631,1.0000246,0.094511166,-0.3375554,-0.1814943,0.24634221
1747679516.3772311,0.02263631,1.0000246,0.094511166,-0.3375554,-0.1814943,0.24634221
1747679516.377772,0.02263631,1.0000246,0.094511166,-0.3375554,-0.1814943,0.24634221
1747679516.3783402,0.02263631,1.0000246,0.094511166,-0.3375554,-0.1814943,0.24634221
1747679516.3788931,0.02263631,1.0000246,0.094511166,-0.3375554,-0.1814943,0.24634221
1747679516.379431,0.02263631,1.0000246,0.094511166,-0.3375554,-0.1814943,0.24634221
1747679516.3799603,0.02263631,1.0000246,0.094511166,-0.3375554,-0.1814943,0.24634221
1747679516.3805003,0.02263631,1.0000246,0.094511166,-0.3375554,-0.1814943,0.24634221
1747679516.3810363,0.02263631,1.0000246,0.094511166,-0.3375554,-0.1814943,0.24634221
1747679516.3815973,0.02263631,1.0000246,0.094511166,-0.3375554,-0.1814943,0.24634221
1747679516.392809,0.30671895,1.0151561,0.26144633,-0.2970754,-0.030226856,0.06418213
1747679516.3934357,0.30671895,1.0151561,0.26144633,-0.2970754,-0.030226856,0.06418213
1747679516.3939815,0.24277595,1.0034415,0.25558895,-0.2970754,-0.030226856,0.06418213
1747679516.3945162,0.24277595,1.0034415,0.25558895,-0.2970754,-0.030226856,0.06418213
1747679516.3950832,0.24277595,1.0034415,0.25558895,-0.2970754,-0.030226856,0.06418213
1747679516.395626,0.24277595,1.0034415,0.25558895,-0.2970754,-0.030226856,0.06418213
1747679516.3961825,0.24277595,1.0034415,0.25558895,-0.2970754,-0.030226856,0.06418213
1747679516.396735,0.24277595,1.0034415,0.25558895,-0.2970754,-0.030226856,0.06418213
1747679516.3972843,0.24277595,1.0034415,0.25558895,-0.2970754,-0.030226856,0.06418213
1747679516.3978186,0.24277595,1.0034415,0.25558895,-0.2970754,-0.030226856,0.06418213
1747679516.3983757,0.24277595,1.0034415,0.25558895,-0.2970754,-0.030226856,0.06418213
1747679516.3989372,0.24277595,1.0034415,0.25558895,-0.2970754,-0.030226856,0.06418213
1747679516.3994808,0.24277595,1.0034415,0.25558895,-0.2970754,-0.030226856,0.06418213
1747679516.4000251,0.24277595,1.0034415,0.25558895,-0.2970754,-0.030226856,0.06418213
1747679516.4005783,0.24277595,1.0034415,0.25558895,-0.2970754,-0.030226856,0.06418213
1747679516.401161,0.24277595,1.0034415,0.25558895,-0.2970754,-0.030226856,0.06418213
1747679516.4017634,0.24277595,1.0034415,0.25558895,-0.2970754,-0.030226856,0.06418213
1747679516.4023108,0.24277595,1.0034415,0.25558895,-0.2970754,-0.030226856,0.06418213
1747679516.402864,0.24277595,1.0034415,0.25558895,-0.2970754,-0.030226856,0.06418213
1747679516.4034154,0.24277595,1.0034415,0.25558895,-0.2970754,-0.030226856,0.06418213
1747679516.4039693,0.24277595,1.0034415,0.25558895,-0.2970754,-0.030226856,0.06418213
1747679516.404533,0.24277595,1.0034415,0.25558895,-0.2970754,-0.030226856,0.06418213
1747679516.405087,0.24277595,1.0034415,0.25558895,-0.2970754,-0.030226856,0.06418213
1747679516.4056277,0.24277595,1.0034415,0.25558895,-0.2970754,-0.030226856,0.06418213
1747679516.406181,0.24277595,1.0034415,0.25558895,-0.2970754,-0.030226856,0.06418213
1747679516.406736,0.24277595,1.0034415,0.25558895,-0.2970754,-0.030226856,0.06418213
1747679516.4073014,0.24277595,1.0034415,0.25558895,-0.2970754,-0.030226856,0.06418213
1747679516.4078634,0.24277595,1.0034415,0.25558895,-0.2970754,-0.030226856,0.06418213
1747679516.4084277,0.24277595,1.0034415,0.25558895,-0.2970754,-0.030226856,0.06418213
1747679516.4089851,0.24277595,1.0034415,0.25558895,-0.2970754,-0.030226856,0.06418213
1747679516.409519,0.24277595,1.0034415,0.25558895,-0.2970754,-0.030226856,0.06418213
1747679516.4100554,0.24277595,1.0034415,0.25558895,-0.2970754,-0.030226856,0.06418213
1747679516.4105926,0.24277595,1.0034415,0.25558895,-0.2970754,-0.030226856,0.06418213
1747679516.4111297,0.24277595,1.0034415,0.25558895,-0.2970754,-0.030226856,0.06418213
1747679516.4116662,0.24277595,1.0034415,0.25558895,-0.2970754,-0.030226856,0.06418213
1747679516.4122026,0.24277595,1.0034415,0.25558895,-0.2970754,-0.030226856,0.06418213
1747679516.4127448,0.10073463,1.0200373,0.21068242,-0.15433007,0.1966743,-0.24687485
1747679516.4132755,0.10073463,1.0200373,0.21068242,-0.15433007,0.1966743,-0.24687485
1747679516.4138167,0.10073463,1.0200373,0.21068242,-0.15433007,0.1966743,-0.24687485
1747679516.4143646,0.10073463,1.0200373,0.21068242,-0.15433007,0.1966743,-0.24687485
1747679516.414906,0.10073463,1.0200373,0.21068242,-0.15433007,0.1966743,-0.24687485
1747679516.4154477,0.10073463,1.0200373,0.21068242,-0.15433007,0.1966743,-0.24687485
1747679516.4159887,0.10073463,1.0200373,0.21068242,-0.15433007,0.1966743,-0.24687485
1747679516.416592,0.10073463,1.0200373,0.21068242,-0.15433007,0.1966743,-0.24687485
1747679516.4170952,0.10073463,1.0200373,0.21068242,-0.15433007,0.1966743,-0.24687485
1747679516.4176288,-0.024710797,1.0234541,0.1594304,-0.11917637,0.15086797,-0.20852536
1747679516.418157,-0.024710797,1.0234541,0.1594304,-0.11917637,0.15086797,-0.20852536
1747679516.4187746,-0.024710797,1.0234541,0.1594304,-0.11917637,0.15086797,-0.20852536
1747679516.4193408,-0.024710797,1.0234541,0.1594304,-0.11917637,0.15086797,-0.20852536
1747679516.4198568,-0.024710797,1.0234541,0.1594304,-0.11917637,0.15086797,-0.20852536
1747679516.4204023,-0.024710797,1.0234541,0.1594304,-0.11917637,0.15086797,-0.20852536
1747679516.4209595,-0.024710797,1.0234541,0.1594304,-0.11917637,0.15086797,-0.20852536
1747679516.4215128,-0.06473618,1.0166205,0.14576319,-0.10213215,0.057124764,-0.15526217
1747679516.4220676,-0.06473618,1.0166205,0.14576319,-0.10213215,0.057124764,-0.15526217
1747679516.4226334,-0.06473618,1.0166205,0.14576319,-0.10213215,0.057124764,-0.15526217
1747679516.4231906,-0.06473618,1.0166205,0.14576319,-0.10213215,0.057124764,-0.15526217
1747679516.4237454,-0.06473618,1.0166205,0.14576319,-0.10213215,0.057124764,-0.15526217
1747679516.4243016,-0.06473618,1.0166205,0.14576319,-0.10213215,0.057124764,-0.15526217
1747679516.424869,-0.06473618,1.0166205,0.14576319,-0.10213215,0.057124764,-0.15526217
1747679516.4254231,-0.06473618,1.0166205,0.14576319,-0.10213215,0.057124764,-0.15526217
1747679516.425984,-0.06473618,1.0166205,0.14576319,-0.10213215,0.057124764,-0.15526217
1747679516.4265401,-0.06473618,1.0166205,0.14576319,-0.10213215,0.057124764,-0.15526217
1747679516.4270878,-0.06473618,1.0166205,0.14576319,-0.10213215,0.057124764,-0.15526217
1747679516.4276404,-0.06473618,1.0166205,0.14576319,-0.10213215,0.057124764,-0.15526217
1747679516.4281936,-0.06473618,1.0166205,0.14576319,-0.10213215,0.057124764,-0.15526217
1747679516.428746,-0.06473618,1.0166205,0.14576319,-0.10213215,0.057124764,-0.15526217
1747679516.429299,-0.06473618,1.0166205,0.14576319,-0.10213215,0.057124764,-0.15526217
1747679516.4298515,-0.06473618,1.0166205,0.14576319,-0.10213215,0.057124764,-0.15526217
1747679516.4304056,-0.07596282,1.0161324,0.16187097,-0.07976162,-0.13036163,-0.07643267
1747679516.43096,-0.07596282,1.0161324,0.16187097,-0.07976162,-0.13036163,-0.07643267
1747679516.431513,-0.07596282,1.0161324,0.16187097,-0.07976162,-0.13036163,-0.07643267
1747679516.4320853,-0.07596282,1.0161324,0.16187097,-0.07976162,-0.13036163,-0.07643267
1747679516.4326398,-0.07596282,1.0161324,0.16187097,-0.07976162,-0.13036163,-0.07643267
1747679516.4332,-0.07596282,1.0161324,0.16187097,-0.07976162,-0.13036163,-0.07643267
1747679516.433752,-0.07596282,1.0161324,0.16187097,-0.07976162,-0.13036163,-0.07643267
1747679516.4343154,-0.07596282,1.0161324,0.16187097,-0.07976162,-0.13036163,-0.07643267
1747679516.4348571,-0.07596282,1.0161324,0.16187097,-0.07976162,-0.13036163,-0.07643267
1747679516.4354086,-0.07596282,1.0161324,0.16187097,-0.07976162,-0.13036163,-0.07643267
1747679516.4359612,-0.07596282,1.0161324,0.16187097,-0.07976162,-0.13036163,-0.07643267
1747679516.4365141,-0.07596282,1.0161324,0.16187097,-0.07976162,-0.13036163,-0.07643267
1747679516.4370666,-0.07596282,1.0161324,0.16187097,-0.07976162,-0.13036163,-0.07643267
1747679516.4376209,-0.07596282,1.0161324,0.16187097,-0.07976162,-0.13036163,-0.07643267
1747679516.4381728,-0.07596282,1.0161324,0.16187097,-0.07976162,-0.13036163,-0.07643267
1747679516.4387279,-0.07596282,1.0161324,0.16187097,-0.07976162,-0.13036163,-0.07643267
1747679516.4393058,-0.07596282,1.0161324,0.16187097,-0.07976162,-0.13036163,-0.07643267
1747679516.439845,-0.07596282,1.0161324,0.16187097,-0.07976162,-0.13036163,-0.07643267
1747679516.440395,-0.035449315,1.0234541,0.21946847,-0.07976162,-0.13036163,-0.07643267
1747679516.440944,-0.035449315,1.0234541,0.21946847,-0.07976162,-0.13036163,-0.07643267
1747679516.4414976,-0.035449315,1.0234541,0.21946847,-0.07976162,-0.13036163,-0.07643267
1747679516.4420512,-0.035449315,1.0234541,0.21946847,-0.036085807,-0.29654276,0.0023968432
1747679516.4426022,-0.035449315,1.0234541,0.21946847,-0.036085807,-0.29654276,0.0023968432
1747679516.4431539,-0.035449315,1.0234541,0.21946847,-0.036085807,-0.29654276,0.0023968432
1747679516.4437084,-0.035449315,1.0234541,0.21946847,-0.036085807,-0.29654276,0.0023968432
1747679516.4442687,-0.035449315,1.0234541,0.21946847,-0.036085807,-0.29654276,0.0023968432
1747679516.4448197,-0.035449315,1.0234541,0.21946847,-0.036085807,-0.29654276,0.0023968432
1747679516.4453638,-0.035449315,1.0234541,0.21946847,-0.036085807,-0.29654276,0.0023968432
1747679516.4459176,-0.035449315,1.0234541,0.21946847,-0.036085807,-0.29654276,0.0023968432
1747679516.446471,-0.035449315,1.0234541,0.21946847,-0.036085807,-0.29654276,0.0023968432
1747679516.4470642,-0.035449315,1.0234541,0.21946847,-0.036085807,-0.29654276,0.0023968432
1747679516.447639,-0.035449315,1.0234541,0.21946847,-0.036085807,-0.29654276,0.0023968432
1747679516.4481938,-0.035449315,1.0234541,0.21946847,-0.036085807,-0.29654276,0.0023968432
1747679516.4488034,-0.035449315,1.0234541,0.21946847,-0.036085807,-0.29654276,0.0023968432
1747679516.4493394,-0.035449315,1.0234541,0.21946847,-0.036085807,-0.29654276,0.0023968432
1747679516.44991,-0.035449315,1.0234541,0.21946847,-0.036085807,-0.29654276,0.0023968432
1747679516.4504702,-0.035449315,1.0234541,0.21946847,-0.036085807,-0.29654276,0.0023968432
1747679516.4510052,0.039232206,1.0283352,0.24924345,0.032091066,-0.3519365,0.023702117
1747679516.4515567,0.039232206,1.0283352,0.24924345,0.032091066,-0.3519365,0.023702117
1747679516.452134,0.039232206,1.0283352,0.24924345,0.032091066,-0.3519365,0.023702117
1747679516.4526968,0.039232206,1.0283352,0.24924345,0.032091066,-0.3519365,0.023702117
1747679516.4532356,0.039232206,1.0283352,0.24924345,0.032091066,-0.3519365,0.023702117
1747679516.4537783,0.039232206,1.0283352,0.24924345,0.032091066,-0.3519365,0.023702117
1747679516.4543326,0.039232206,1.0283352,0.24924345,0.032091066,-0.3519365,0.023702117
1747679516.4548807,0.039232206,1.0283352,0.24924345,0.032091066,-0.3519365,0.023702117
1747679516.4554179,0.039232206,1.0283352,0.24924345,0.032091066,-0.3519365,0.023702117
1747679516.455954,0.039232206,1.0283352,0.24924345,0.032091066,-0.3519365,0.023702117
1747679516.4565012,0.039232206,1.0283352,0.24924345,0.032091066,-0.3519365,0.023702117
1747679516.4570432,0.039232206,1.0283352,0.24924345,0.032091066,-0.3519365,0.023702117
1747679516.4575868,0.039232206,1.0283352,0.24924345,0.032091066,-0.3519365,0.023702117
1747679516.4581237,0.039232206,1.0283352,0.24924345,0.032091066,-0.3519365,0.023702117
1747679516.4586604,0.039232206,1.0283352,0.24924345,0.032091066,-0.3519365,0.023702117
1747679516.459219,0.039232206,1.0283352,0.24924345,0.032091066,-0.3519365,0.023702117
1747679516.4597812,0.039232206,1.0283352,0.24924345,0.032091066,-0.3519365,0.023702117
1747679516.4603293,0.039232206,1.0283352,0.24924345,0.032091066,-0.3519365,0.023702117
1747679516.4608693,0.039232206,1.0283352,0.24924345,0.032091066,-0.3519365,0.023702117
1747679516.4614122,0.08365062,1.014668,0.26535124,0.032091066,-0.3519365,0.023702117
1747679516.461948,0.08365062,1.014668,0.26535124,0.032091066,-0.3519365,0.023702117
1747679516.462489,0.08365062,1.014668,0.26535124,0.032091066,-0.3519365,0.023702117
1747679516.4630258,0.08365062,1.014668,0.26535124,0.06511424,-0.3039996,0.0109189525
1747679516.4635565,0.08365062,1.014668,0.26535124,0.06511424,-0.3039996,0.0109189525
1747679516.4640927,0.08365062,1.014668,0.26535124,0.06511424,-0.3039996,0.0109189525
1747679516.4646568,0.08365062,1.014668,0.26535124,0.06511424,-0.3039996,0.0109189525
1747679516.4651895,0.08365062,1.014668,0.26535124,0.06511424,-0.3039996,0.0109189525
1747679516.4657092,0.08365062,1.014668,0.26535124,0.06511424,-0.3039996,0.0109189525
1747679516.4662282,0.08365062,1.014668,0.26535124,0.06511424,-0.3039996,0.0109189525
1747679516.4667466,0.08365062,1.014668,0.26535124,0.06511424,-0.3039996,0.0109189525
1747679516.4672651,0.08365062,1.014668,0.26535124,0.06511424,-0.3039996,0.0109189525
1747679516.4677835,0.08365062,1.014668,0.26535124,0.06511424,-0.3039996,0.0109189525
1747679516.468302,0.08365062,1.014668,0.26535124,0.06511424,-0.3039996,0.0109189525
1747679516.4688203,0.08365062,1.014668,0.26535124,0.06511424,-0.3039996,0.0109189525
1747679516.4693384,0.08365062,1.014668,0.26535124,0.06511424,-0.3039996,0.0109189525
1747679516.4698777,0.08365062,1.014668,0.26535124,0.06511424,-0.3039996,0.0109189525
1747679516.4704442,0.08365062,1.014668,0.26535124,0.06511424,-0.3039996,0.0109189525
1747679516.4710193,0.08365062,1.014668,0.26535124,0.06511424,-0.3039996,0.0109189525
1747679516.4715788,0.08365062,1.014668,0.26535124,0.06511424,-0.3039996,0.0109189525
1747679516.4721234,0.08365062,1.014668,0.26535124,0.06511424,-0.3039996,0.0109189525
1747679516.4726658,0.08365062,1.014668,0.26535124,0.06511424,-0.3039996,0.0109189525
1747679516.473203,0.08365062,1.014668,0.26535124,0.06511424,-0.3039996,0.0109189525
1747679516.47374,0.08365062,1.014668,0.26535124,0.06511424,-0.3039996,0.0109189525
1747679516.4742832,0.08365062,1.014668,0.26535124,0.06511424,-0.3039996,0.0109189525
1747679516.4748452,0.08365062,1.014668,0.26535124,0.06511424,-0.3039996,0.0109189525
1747679516.47539,0.08365062,1.014668,0.26535124,0.06511424,-0.3039996,0.0109189525
1747679516.475929,0.11049692,1.0185729,0.27023238,0.09174583,-0.16871113,-0.014647375
1747679516.476463,0.11049692,1.0185729,0.27023238,0.09174583,-0.16871113,-0.014647375
1747679516.4769962,0.11049692,1.0185729,0.27023238,0.09174583,-0.16871113,-0.014647375
1747679516.4775505,0.11049692,1.0185729,0.27023238,0.09174583,-0.16871113,-0.014647375
1747679516.478111,0.11049692,1.0185729,0.27023238,0.09174583,-0.16871113,-0.014647375
1747679516.478668,0.11049692,1.0185729,0.27023238,0.09174583,-0.16871113,-0.014647375
1747679516.4792142,0.11049692,1.0185729,0.27023238,0.09174583,-0.16871113,-0.014647375
1747679516.479767,0.11049692,1.0185729,0.27023238,0.09174583,-0.16871113,-0.014647375
1747679516.4803212,0.11049692,1.0185729,0.27023238,0.09174583,-0.16871113,-0.014647375
1747679516.480865,0.11049692,1.0185729,0.27023238,0.09174583,-0.16871113,-0.014647375
1747679516.4813993,0.11049692,1.0185729,0.27023238,0.09174583,-0.16871113,-0.014647375
1747679516.4819186,0.11049692,1.0185729,0.27023238,0.09174583,-0.16871113,-0.014647375
1747679516.482442,0.11049692,1.0185729,0.27023238,0.09174583,-0.16871113,-0.014647375
1747679516.4829645,0.12269978,1.0258946,0.2741373,0.09174583,-0.16871113,-0.014647375
1747679516.483518,0.12269978,1.0258946,0.2741373,0.09174583,-0.16871113,-0.014647375
1747679516.484083,0.12269978,1.0258946,0.2741373,0.09174583,-0.16871113,-0.014647375
1747679516.484608,0.12269978,1.0258946,0.2741373,0.11944269,0.033688962,-0.05725792
1747679516.4851274,0.12269978,1.0258946,0.2741373,0.11944269,0.033688962,-0.05725792
1747679516.485668,0.12269978,1.0258946,0.2741373,0.11944269,0.033688962,-0.05725792
1747679516.486233,0.12269978,1.0258946,0.2741373,0.11944269,0.033688962,-0.05725792
1747679516.486791,0.12269978,1.0258946,0.2741373,0.11944269,0.033688962,-0.05725792
1747679516.4873474,0.12269978,1.0258946,0.2741373,0.11944269,0.033688962,-0.05725792
1747679516.4878807,0.12269978,1.0258946,0.2741373,0.11944269,0.033688962,-0.05725792
1747679516.4884005,0.12269978,1.0258946,0.2741373,0.11944269,0.033688962,-0.05725792
1747679516.4889195,0.12269978,1.0258946,0.2741373,0.11944269,0.033688962,-0.05725792
1747679516.4894383,0.12269978,1.0258946,0.2741373,0.11944269,0.033688962,-0.05725792
1747679516.4900134,0.12269978,1.0258946,0.2741373,0.11944269,0.033688962,-0.05725792
1747679516.4905322,0.12269978,1.0258946,0.2741373,0.11944269,0.033688962,-0.05725792
1747679516.4910502,0.12269978,1.0258946,0.2741373,0.11944269,0.033688962,-0.05725792
1747679516.4915683,0.12269978,1.0258946,0.2741373,0.11944269,0.033688962,-0.05725792
1747679516.4920864,0.12269978,1.0258946,0.2741373,0.11944269,0.033688962,-0.05725792
1747679516.4926047,0.12269978,1.0258946,0.2741373,0.11944269,0.033688962,-0.05725792
1747679516.4931457,0.089508,1.0254065,0.26193443,0.11944269,0.033688962,-0.05725792
1747679516.4937153,0.089508,1.0254065,0.26193443,0.11944269,0.033688962,-0.05725792
1747679516.4942849,0.089508,1.0254065,0.26193443,0.11944269,0.033688962,-0.05725792
1747679516.4948125,0.089508,1.0254065,0.26193443,0.11944269,0.033688962,-0.05725792
1747679516.4953327,0.089508,1.0254065,0.26193443,0.11944269,0.033688962,-0.05725792
1747679516.4958515,0.089508,1.0254065,0.26193443,0.11944269,0.033688962,-0.05725792
1747679516.49637,0.089508,1.0254065,0.26193443,0.11944269,0.033688962,-0.05725792
1747679516.4968884,0.089508,1.0254065,0.26193443,0.11944269,0.033688962,-0.05725792
1747679516.4974067,0.089508,1.0254065,0.26193443,0.11944269,0.033688962,-0.05725792
1747679516.4979248,0.089508,1.0254065,0.26193443,0.11944269,0.033688962,-0.05725792
1747679516.4984431,0.089508,1.0254065,0.26193443,0.11944269,0.033688962,-0.05725792
1747679516.4989607,0.089508,1.0254065,0.26193443,0.11944269,0.033688962,-0.05725792
1747679516.499479,0.089508,1.0254065,0.26193443,0.11944269,0.033688962,-0.05725792
1747679516.499997,0.089508,1.0254065,0.26193443,0.11944269,0.033688962,-0.05725792
1747679516.500515,0.089508,1.0254065,0.26193443,0.11944269,0.033688962,-0.05725792
1747679516.5010526,0.089508,1.0254065,0.26193443,0.11944269,0.033688962,-0.05725792
1747679516.501612,0.089508,1.0254065,0.26193443,0.11944269,0.033688962,-0.05725792
1747679516.5021586,0.089508,1.0254065,0.26193443,0.11944269,0.033688962,-0.05725792
1747679516.502696,0.089508,1.0254065,0.26193443,0.11944269,0.033688962,-0.05725792
1747679516.5032434,0.055828094,1.0254065,0.26583937,0.21212062,0.40333545,-0.094542146
1747679516.503787,0.055828094,1.0254065,0.26583937,0.21212062,0.40333545,-0.094542146
1747679516.50434,0.055828094,1.0254065,0.26583937,0.21212062,0.40333545,-0.094542146
1747679516.5049038,0.055828094,1.0254065,0.26583937,0.21212062,0.40333545,-0.094542146
1747679516.505451,0.055828094,1.0254065,0.26583937,0.21212062,0.40333545,-0.094542146
1747679516.5059786,0.055828094,1.0254065,0.26583937,0.21212062,0.40333545,-0.094542146
1747679516.5065107,0.055828094,1.0254065,0.26583937,0.21212062,0.40333545,-0.094542146
1747679516.5070438,0.055828094,1.0254065,0.26583937,0.21212062,0.40333545,-0.094542146
1747679516.5075777,0.055828094,1.0254065,0.26583937,0.21212062,0.40333545,-0.094542146
1747679516.5081465,0.055828094,1.0254065,0.26583937,0.21212062,0.40333545,-0.094542146
1747679516.508729,0.055828094,1.0254065,0.26583937,0.21212062,0.40333545,-0.094542146
1747679516.5092876,0.055828094,1.0254065,0.26583937,0.21212062,0.40333545,-0.094542146
1747679516.509851,0.055828094,1.0254065,0.26583937,0.21212062,0.40333545,-0.094542146
1747679516.510418,0.055828094,1.0254065,0.26583937,0.21212062,0.40333545,-0.094542146
1747679516.51118,0.055828094,1.0254065,0.26583937,0.21212062,0.40333545,-0.094542146
1747679516.5117395,0.055828094,1.0254065,0.26583937,0.21212062,0.40333545,-0.094542146
1747679516.5122986,0.055828094,1.0254065,0.26583937,0.21212062,0.40333545,-0.094542146
1747679516.5128477,0.037767857,1.031752,0.25314838,0.30692908,0.3522028,-0.10199899
1747679516.513394,0.037767857,1.031752,0.25314838,0.30692908,0.3522028,-0.10199899
1747679516.5139256,0.037767857,1.031752,0.25314838,0.30692908,0.3522028,-0.10199899
1747679516.5144532,0.037767857,1.031752,0.25314838,0.30692908,0.3522028,-0.10199899
1747679516.514974,0.037767857,1.031752,0.25314838,0.30692908,0.3522028,-0.10199899
1747679516.5154924,0.037767857,1.031752,0.25314838,0.30692908,0.3522028,-0.10199899
1747679516.5160258,0.037767857,1.031752,0.25314838,0.30692908,0.3522028,-0.10199899
1747679516.516583,0.037767857,1.031752,0.25314838,0.30692908,0.3522028,-0.10199899
1747679516.5171387,0.037767857,1.031752,0.25314838,0.30692908,0.3522028,-0.10199899
1747679516.5176978,0.037767857,1.031752,0.25314838,0.30692908,0.3522028,-0.10199899
1747679516.5182433,0.037767857,1.031752,0.25314838,0.30692908,0.3522028,-0.10199899
1747679516.5187793,0.037767857,1.031752,0.25314838,0.30692908,0.3522028,-0.10199899
1747679516.5193174,0.037767857,1.031752,0.25314838,0.30692908,0.3522028,-0.10199899
1747679516.5198631,0.037767857,1.031752,0.25314838,0.30692908,0.3522028,-0.10199899
1747679516.5204148,0.016778937,1.031752,0.21458733,0.30692908,0.3522028,-0.10199899
1747679516.5209546,0.016778937,1.031752,0.21458733,0.4006723,0.1732385,-0.11797795
1747679516.5214765,0.016778937,1.031752,0.21458733,0.4006723,0.1732385,-0.11797795
1747679516.521995,0.016778937,1.031752,0.21458733,0.4006723,0.1732385,-0.11797795
1747679516.5225134,0.016778937,1.031752,0.21458733,0.4006723,0.1732385,-0.11797795
1747679516.5230315,0.016778937,1.031752,0.21458733,0.4006723,0.1732385,-0.11797795
1747679516.5235775,0.016778937,1.031752,0.21458733,0.4006723,0.1732385,-0.11797795
1747679516.5241492,0.016778937,1.031752,0.21458733,0.4006723,0.1732385,-0.11797795
1747679516.524698,0.016778937,1.031752,0.21458733,0.4006723,0.1732385,-0.11797795
1747679516.5252237,0.016778937,1.031752,0.21458733,0.4006723,0.1732385,-0.11797795
1747679516.5257428,0.016778937,1.031752,0.21458733,0.4006723,0.1732385,-0.11797795
1747679516.526261,0.016778937,1.031752,0.21458733,0.4006723,0.1732385,-0.11797795
1747679516.5267792,0.016778937,1.031752,0.21458733,0.4006723,0.1732385,-0.11797795
1747679516.527297,0.016778937,1.031752,0.21458733,0.4006723,0.1732385,-0.11797795
1747679516.5278153,0.016778937,1.031752,0.21458733,0.4006723,0.1732385,-0.11797795
1747679516.528334,0.016778937,1.031752,0.21458733,0.4006723,0.1732385,-0.11797795
1747679516.5288553,0.016778937,1.031752,0.21458733,0.4006723,0.1732385,-0.11797795
1747679516.529377,0.016778937,1.031752,0.21458733,0.4006723,0.1732385,-0.11797795
1747679516.5298965,0.016778937,1.031752,0.21458733,0.4006723,0.1732385,-0.11797795
1747679516.5304172,-0.023246452,1.0258946,0.15503736,0.4006723,0.1732385,-0.11797795
1747679516.5309453,-0.023246452,1.0258946,0.15503736,0.45180494,-0.00039947388,-0.11371689
1747679516.531481,-0.023246452,1.0258946,0.15503736,0.45180494,-0.00039947388,-0.11371689
1747679516.5320382,-0.023246452,1.0258946,0.15503736,0.45180494,-0.00039947388,-0.11371689
1747679516.5325913,-0.023246452,1.0258946,0.15503736,0.45180494,-0.00039947388,-0.11371689
1747679516.5331242,-0.023246452,1.0258946,0.15503736,0.45180494,-0.00039947388,-0.11371689
1747679516.5336773,-0.023246452,1.0258946,0.15503736,0.45180494,-0.00039947388,-0.11371689
1747679516.534243,-0.023246452,1.0258946,0.15503736,0.45180494,-0.00039947388,-0.11371689
1747679516.5347638,-0.023246452,1.0258946,0.15503736,0.45180494,-0.00039947388,-0.11371689
1747679516.5352826,-0.023246452,1.0258946,0.15503736,0.45180494,-0.00039947388,-0.11371689
1747679516.535801,-0.023246452,1.0258946,0.15503736,0.45180494,-0.00039947388,-0.11371689
1747679516.53632,-0.023246452,1.0258946,0.15503736,0.45180494,-0.00039947388,-0.11371689
1747679516.5368383,-0.023246452,1.0258946,0.15503736,0.45180494,-0.00039947388,-0.11371689
1747679516.5373564,-0.023246452,1.0258946,0.15503736,0.45180494,-0.00039947388,-0.11371689
1747679516.5378747,-0.023246452,1.0258946,0.15503736,0.45180494,-0.00039947388,-0.11371689
1747679516.5384257,-0.023246452,1.0258946,0.15503736,0.45180494,-0.00039947388,-0.11371689
1747679516.5389953,-0.05399767,1.0151561,0.118428774,0.44008705,-0.08881636,-0.075367406
1747679516.5395882,-0.05399767,1.0151561,0.118428774,0.44008705,-0.08881636,-0.075367406
1747679516.5401351,-0.05399767,1.0151561,0.118428774,0.44008705,-0.08881636,-0.075367406
1747679516.540673,-0.05399767,1.0151561,0.118428774,0.44008705,-0.08881636,-0.075367406
1747679516.541229,-0.05399767,1.0151561,0.118428774,0.44008705,-0.08881636,-0.075367406
1747679516.541793,-0.05399767,1.0151561,0.118428774,0.44008705,-0.08881636,-0.075367406
1747679516.542342,-0.05399767,1.0151561,0.118428774,0.44008705,-0.08881636,-0.075367406
1747679516.542884,-0.05399767,1.0151561,0.118428774,0.44008705,-0.08881636,-0.075367406
1747679516.543423,-0.05399767,1.0151561,0.118428774,0.44008705,-0.08881636,-0.075367406
1747679516.5439558,-0.05399767,1.0151561,0.118428774,0.44008705,-0.08881636,-0.075367406
1747679516.5445058,-0.05399767,1.0151561,0.118428774,0.44008705,-0.08881636,-0.075367406
1747679516.5450346,-0.05399767,1.0151561,0.118428774,0.44008705,-0.08881636,-0.075367406
1747679516.5455563,-0.05399767,1.0151561,0.118428774,0.44008705,-0.08881636,-0.075367406
1747679516.5460777,-0.05399767,1.0151561,0.118428774,0.44008705,-0.08881636,-0.075367406
1747679516.546599,-0.05399767,1.0151561,0.118428774,0.44008705,-0.08881636,-0.075367406
1747679516.547155,-0.05399767,1.0151561,0.118428774,0.44008705,-0.08881636,-0.075367406
1747679516.5477095,-0.05399767,1.0151561,0.118428774,0.44008705,-0.08881636,-0.075367406
1747679516.5482764,-0.05399767,1.0151561,0.118428774,0.44008705,-0.08881636,-0.075367406
1747679516.5488276,-0.05399767,1.0151561,0.118428774,0.44008705,-0.08881636,-0.075367406
1747679516.5493715,-0.04374726,1.0068582,0.11940502,0.3942807,-0.071772136,-0.014647375
1747679516.5499237,-0.04374726,1.0068582,0.11940502,0.3942807,-0.071772136,-0.014647375
1747679516.5504594,-0.04374726,1.0068582,0.11940502,0.3942807,-0.071772136,-0.014647375
1747679516.5509963,-0.04374726,1.0068582,0.11940502,0.3942807,-0.071772136,-0.014647375
1747679516.5515327,-0.04374726,1.0068582,0.11940502,0.3942807,-0.071772136,-0.014647375
1747679516.552072,-0.04374726,1.0068582,0.11940502,0.3942807,-0.071772136,-0.014647375
1747679516.5526266,-0.04374726,1.0068582,0.11940502,0.3942807,-0.071772136,-0.014647375
1747679516.5532012,-0.04374726,1.0068582,0.11940502,0.3942807,-0.071772136,-0.014647375
1747679516.5537562,-0.04374726,1.0068582,0.11940502,0.3942807,-0.071772136,-0.014647375
1747679516.5543082,-0.04374726,1.0068582,0.11940502,0.3942807,-0.071772136,-0.014647375
1747679516.5548642,-0.04374726,1.0068582,0.11940502,0.3942807,-0.071772136,-0.014647375
1747679516.555395,-0.04374726,1.0068582,0.11940502,0.3942807,-0.071772136,-0.014647375
1747679516.555923,-0.04374726,1.0068582,0.11940502,0.3942807,-0.071772136,-0.014647375
1747679516.556451,-0.04374726,1.0068582,0.11940502,0.3942807,-0.071772136,-0.014647375
1747679516.5569792,-0.04374726,1.0068582,0.11940502,0.3942807,-0.071772136,-0.014647375
1747679516.5575073,-0.04374726,1.0068582,0.11940502,0.3942807,-0.071772136,-0.014647375
1747679516.5580356,-0.04374726,1.0068582,0.11940502,0.3942807,-0.071772136,-0.014647375
1747679516.5585635,-0.04374726,1.0068582,0.11940502,0.3942807,-0.071772136,-0.014647375
1747679516.5590975,-0.04374726,1.0068582,0.11940502,0.3942807,-0.071772136,-0.014647375
1747679516.55963,-0.04374726,1.0068582,0.11940502,0.3942807,-0.071772136,-0.014647375
1747679516.5601594,-0.04374726,1.0068582,0.11940502,0.3942807,-0.071772136,-0.014647375
1747679516.5606902,-0.04374726,1.0068582,0.11940502,0.3942807,-0.071772136,-0.014647375
1747679516.5612202,-0.04374726,1.0068582,0.11940502,0.3942807,-0.071772136,-0.014647375
1747679516.561749,-0.04374726,1.0068582,0.11940502,0.3942807,-0.071772136,-0.014647375
1747679516.5622792,-0.04374726,1.0068582,0.11940502,0.33143014,0.017710008,0.042876862
1747679516.5628092,-0.005674331,0.99953645,0.1360009,0.33143014,0.017710008,0.042876862
1747679516.5633385,-0.005674331,0.99953645,0.1360009,0.33143014,0.017710008,0.042876862
1747679516.5638697,-0.005674331,0.99953645,0.1360009,0.33143014,0.017710008,0.042876862
1747679516.5644176,-0.005674331,0.99953645,0.1360009,0.33143014,0.017710008,0.042876862
1747679516.564968,-0.005674331,0.99953645,0.1360009,0.33143014,0.017710008,0.042876862
1747679516.5655196,-0.005674331,0.99953645,0.1360009,0.33143014,0.017710008,0.042876862
1747679516.5660608,-0.005674331,0.99953645,0.1360009,0.33143014,0.017710008,0.042876862
1747679516.56659,-0.005674331,0.99953645,0.1360009,0.33143014,0.017710008,0.042876862
1747679516.5671186,-0.005674331,0.99953645,0.1360009,0.33143014,0.017710008,0.042876862
1747679516.567647,-0.005674331,0.99953645,0.1360009,0.33143014,0.017710008,0.042876862
1747679516.5681746,-0.005674331,0.99953645,0.1360009,0.33143014,0.017710008,0.042876862
1747679516.5687373,-0.005674331,0.99953645,0.1360009,0.33143014,0.017710008,0.042876862
1747679516.569295,-0.005674331,0.99953645,0.1360009,0.33143014,0.017710008,0.042876862
1747679516.5698326,-0.005674331,0.99953645,0.1360009,0.33143014,0.017710008,0.042876862
1747679516.570357,-0.005674331,0.99953645,0.1360009,0.33143014,0.017710008,0.042876862
1747679516.5709715,0.02263631,1.0000246,0.1560136,0.33143014,0.017710008,0.042876862
1747679516.571528,0.02263631,1.0000246,0.1560136,0.3037333,0.099735305,0.05779055
1747679516.572101,0.02263631,1.0000246,0.1560136,0.3037333,0.099735305,0.05779055
1747679516.572647,0.02263631,1.0000246,0.1560136,0.3037333,0.099735305,0.05779055
1747679516.5731788,0.02263631,1.0000246,0.1560136,0.3037333,0.099735305,0.05779055
1747679516.5737073,0.02263631,1.0000246,0.1560136,0.3037333,0.099735305,0.05779055
1747679516.5742545,0.02263631,1.0000246,0.1560136,0.3037333,0.099735305,0.05779055
1747679516.5748188,0.02263631,1.0000246,0.1560136,0.3037333,0.099735305,0.05779055
1747679516.575351,0.02263631,1.0000246,0.1560136,0.3037333,0.099735305,0.05779055
1747679516.5758712,0.02263631,1.0000246,0.1560136,0.3037333,0.099735305,0.05779055
1747679516.57639,0.02263631,1.0000246,0.1560136,0.3037333,0.099735305,0.05779055
1747679516.5769088,0.02263631,1.0000246,0.1560136,0.3037333,0.099735305,0.05779055
1747679516.5774274,0.02263631,1.0000246,0.1560136,0.3037333,0.099735305,0.05779055
1747679516.5779467,0.02263631,1.0000246,0.1560136,0.3037333,0.099735305,0.05779055
1747679516.5784845,0.02263631,1.0000246,0.1560136,0.3037333,0.099735305,0.05779055
1747679516.5790484,0.02263631,1.0000246,0.1560136,0.3037333,0.099735305,0.05779055
1747679516.5796003,0.02263631,1.0000246,0.1560136,0.3037333,0.099735305,0.05779055
1747679516.5801346,0.02263631,1.0000246,0.1560136,0.3037333,0.099735305,0.05779055
1747679516.5806708,0.02263631,1.0000246,0.1560136,0.3037333,0.099735305,0.05779055
1747679516.5811915,0.02263631,1.0000246,0.1560136,0.3037333,0.099735305,0.05779055
1747679516.5817134,0.051923178,1.0024651,0.1867648,0.2952112,0.16897744,0.05992108
1747679516.5822358,0.051923178,1.0024651,0.1867648,0.2952112,0.16897744,0.05992108
1747679516.582756,0.051923178,1.0024651,0.1867648,0.2952112,0.16897744,0.05992108
1747679516.5832748,0.051923178,1.0024651,0.1867648,0.2952112,0.16897744,0.05992108
1747679516.583807,0.051923178,1.0024651,0.1867648,0.2952112,0.16897744,0.05992108
1747679516.5843525,0.051923178,1.0024651,0.1867648,0.2952112,0.16897744,0.05992108
1747679516.58488,0.051923178,1.0024651,0.1867648,0.2952112,0.16897744,0.05992108
1747679516.5853992,0.051923178,1.0024651,0.1867648,0.2952112,0.16897744,0.05992108
1747679516.5859177,0.051923178,1.0024651,0.1867648,0.2952112,0.16897744,0.05992108
1747679516.5864356,0.051923178,1.0024651,0.1867648,0.2952112,0.16897744,0.05992108
1747679516.5869539,0.051923178,1.0024651,0.1867648,0.2952112,0.16897744,0.05992108
1747679516.5874724,0.051923178,1.0024651,0.1867648,0.2952112,0.16897744,0.05992108
1747679516.5879905,0.051923178,1.0024651,0.1867648,0.2952112,0.16897744,0.05992108
1747679516.5885086,0.051923178,1.0024651,0.1867648,0.2952112,0.16897744,0.05992108
1747679516.589027,0.051923178,1.0024651,0.1867648,0.2952112,0.16897744,0.05992108
1747679516.5895448,0.051923178,1.0024651,0.1867648,0.2952112,0.16897744,0.05992108
1747679516.5900629,0.051923178,1.0024651,0.1867648,0.2952112,0.16897744,0.05992108
1747679516.5905807,0.051923178,1.0024651,0.1867648,0.2952112,0.16897744,0.05992108
1747679516.5910988,0.051923178,1.0024651,0.1867648,0.2952112,0.16897744,0.05992108
1747679516.5916169,0.051923178,1.0024651,0.1867648,0.2952112,0.16897744,0.05992108
1747679516.592135,0.051923178,1.0024651,0.1867648,0.2952112,0.16897744,0.05992108
1747679516.5926564,0.051923178,1.0024651,0.1867648,0.2952112,0.16897744,0.05992108
1747679516.5931785,0.06900719,1.0112512,0.19945578,0.2952112,0.16897744,0.05992108
1747679516.5936983,0.06900719,1.0112512,0.19945578,0.2952112,0.16897744,0.05992108
1747679516.5943003,0.06900719,1.0112512,0.19945578,0.3175817,0.24993747,0.037550543
1747679516.5948727,0.06900719,1.0112512,0.19945578,0.3175817,0.24993747,0.037550543
1747679516.5954187,0.06900719,1.0112512,0.19945578,0.3175817,0.24993747,0.037550543
1747679516.5959532,0.06900719,1.0112512,0.19945578,0.3175817,0.24993747,0.037550543
1747679516.5964735,0.06900719,1.0112512,0.19945578,0.3175817,0.24993747,0.037550543
1747679516.5969915,0.06900719,1.0112512,0.19945578,0.3175817,0.24993747,0.037550543
1747679516.5975103,0.06900719,1.0112512,0.19945578,0.3175817,0.24993747,0.037550543
1747679516.5980287,0.06900719,1.0112512,0.19945578,0.3175817,0.24993747,0.037550543
1747679516.5985506,0.06900719,1.0112512,0.19945578,0.3175817,0.24993747,0.037550543
1747679516.5991058,0.06900719,1.0112512,0.19945578,0.3175817,0.24993747,0.037550543
1747679516.5996704,0.06900719,1.0112512,0.19945578,0.3175817,0.24993747,0.037550543
1747679516.6002185,0.06900719,1.0112512,0.19945578,0.3175817,0.24993747,0.037550543
1747679516.600756,0.06900719,1.0112512,0.19945578,0.3175817,0.24993747,0.037550543
1747679516.6013007,0.06900719,1.0112512,0.19945578,0.3175817,0.24993747,0.037550543
1747679516.601845,0.06900719,1.0112512,0.19945578,0.3175817,0.24993747,0.037550543
1747679516.6023808,0.06900719,1.0112512,0.19945578,0.3175817,0.24993747,0.037550543
1747679516.6029005,0.06900719,1.0112512,0.19945578,0.3175817,0.24993747,0.037550543
1747679516.6034355,0.06900719,1.0112512,0.19945578,0.3175817,0.24993747,0.037550543
1747679516.6039765,0.06900719,1.0112512,0.19945578,0.3175817,0.24993747,0.037550543
1747679516.6044974,0.06900719,1.0112512,0.19945578,0.3175817,0.24993747,0.037550543
1747679516.6050212,0.04655392,1.0175967,0.17358571,0.35380068,0.32663646,0.01944106
1747679516.605574,0.04655392,1.0175967,0.17358571,0.35380068,0.32663646,0.01944106
1747679516.6061156,0.04655392,1.0175967,0.17358571,0.35380068,0.32663646,0.01944106
1747679516.6066368,0.04655392,1.0175967,0.17358571,0.35380068,0.32663646,0.01944106
1747679516.607155,0.04655392,1.0175967,0.17358571,0.35380068,0.32663646,0.01944106
1747679516.6076736,0.04655392,1.0175967,0.17358571,0.35380068,0.32663646,0.01944106
1747679516.6081917,0.04655392,1.0175967,0.17358571,0.35380068,0.32663646,0.01944106
1747679516.6087096,0.04655392,1.0175967,0.17358571,0.35380068,0.32663646,0.01944106
1747679516.6092274,0.04655392,1.0175967,0.17358571,0.35380068,0.32663646,0.01944106
1747679516.6097457,0.04655392,1.0175967,0.17358571,0.35380068,0.32663646,0.01944106
1747679516.6103134,0.04655392,1.0175967,0.17358571,0.35380068,0.32663646,0.01944106
1747679516.6108644,0.04655392,1.0175967,0.17358571,0.35380068,0.32663646,0.01944106
1747679516.6114376,0.04655392,1.0175967,0.17358571,0.35380068,0.32663646,0.01944106
1747679516.6119726,0.04655392,1.0175967,0.17358571,0.35380068,0.32663646,0.01944106
1747679516.6124928,0.04655392,1.0175967,0.17358571,0.35380068,0.32663646,0.01944106
1747679516.6130111,0.04655392,1.0175967,0.17358571,0.35380068,0.32663646,0.01944106
1747679516.613544,0.04655392,1.0175967,0.17358571,0.35380068,0.32663646,0.01944106
1747679516.6141698,0.04655392,1.0175967,0.17358571,0.35380068,0.32663646,0.01944106
1747679516.614717,0.02800557,1.027359,0.1560136,0.35380068,0.32663646,0.01944106
1747679516.615242,0.02800557,1.027359,0.1560136,0.35380068,0.32663646,0.01944106
1747679516.6157641,0.02800557,1.027359,0.1560136,0.37830174,0.34155014,0.029028434
1747679516.6162841,0.02800557,1.027359,0.1560136,0.37830174,0.34155014,0.029028434
1747679516.616803,0.02800557,1.027359,0.1560136,0.37830174,0.34155014,0.029028434
1747679516.617321,0.02800557,1.027359,0.1560136,0.37830174,0.34155014,0.029028434
1747679516.6178393,0.02800557,1.027359,0.1560136,0.37830174,0.34155014,0.029028434
1747679516.6183593,0.02800557,1.027359,0.1560136,0.37830174,0.34155014,0.029028434
1747679516.6188786,0.02800557,1.027359,0.1560136,0.37830174,0.34155014,0.029028434
1747679516.6193998,0.02800557,1.027359,0.1560136,0.37830174,0.34155014,0.029028434
1747679516.619919,0.02800557,1.027359,0.1560136,0.37830174,0.34155014,0.029028434
1747679516.6204376,0.02800557,1.027359,0.1560136,0.37830174,0.34155014,0.029028434
1747679516.62099,0.02800557,1.027359,0.1560136,0.37830174,0.34155014,0.029028434
1747679516.6215498,0.02800557,1.027359,0.1560136,0.37830174,0.34155014,0.029028434
1747679516.622093,0.025076883,1.0361451,0.14918,0.37830174,0.34155014,0.029028434
1747679516.622632,0.025076883,1.0361451,0.14918,0.40706387,0.2840259,0.03968107
1747679516.6231534,0.025076883,1.0361451,0.14918,0.40706387,0.2840259,0.03968107
1747679516.623683,0.025076883,1.0361451,0.14918,0.40706387,0.2840259,0.03968107
1747679516.624219,0.025076883,1.0361451,0.14918,0.40706387,0.2840259,0.03968107
1747679516.62474,0.025076883,1.0361451,0.14918,0.40706387,0.2840259,0.03968107
1747679516.6252582,0.025076883,1.0361451,0.14918,0.40706387,0.2840259,0.03968107
1747679516.6257765,0.025076883,1.0361451,0.14918,0.40706387,0.2840259,0.03968107
1747679516.626309,0.025076883,1.0361451,0.14918,0.40706387,0.2840259,0.03968107
1747679516.626867,0.025076883,1.0361451,0.14918,0.40706387,0.2840259,0.03968107
1747679516.6274116,0.025076883,1.0361451,0.14918,0.40706387,0.2840259,0.03968107
1747679516.6279457,0.025076883,1.0361451,0.14918,0.40706387,0.2840259,0.03968107
1747679516.628466,0.025076883,1.0361451,0.14918,0.40706387,0.2840259,0.03968107
1747679516.629023,0.025076883,1.0361451,0.14918,0.40706387,0.2840259,0.03968107
1747679516.629572,0.025076883,1.0361451,0.14918,0.40706387,0.2840259,0.03968107
1747679516.6301203,0.025076883,1.0361451,0.14918,0.40706387,0.2840259,0.03968107
1747679516.6306744,0.0358154,1.0424905,0.14088205,0.45713127,0.20732693,0.040746335
1747679516.6312163,0.0358154,1.0424905,0.14088205,0.45713127,0.20732693,0.040746335
1747679516.631743,0.0358154,1.0424905,0.14088205,0.45713127,0.20732693,0.040746335
1747679516.632262,0.0358154,1.0424905,0.14088205,0.45713127,0.20732693,0.040746335
1747679516.6327808,0.0358154,1.0424905,0.14088205,0.45713127,0.20732693,0.040746335
1747679516.633299,0.0358154,1.0424905,0.14088205,0.45713127,0.20732693,0.040746335
1747679516.633837,0.0358154,1.0424905,0.14088205,0.45713127,0.20732693,0.040746335
1747679516.6343787,0.0358154,1.0424905,0.14088205,0.45713127,0.20732693,0.040746335
1747679516.6348994,0.0358154,1.0424905,0.14088205,0.45713127,0.20732693,0.040746335
1747679516.635418,0.0358154,1.0424905,0.14088205,0.45713127,0.20732693,0.040746335
1747679516.6359363,0.0358154,1.0424905,0.14088205,0.45713127,0.20732693,0.040746335
1747679516.6364543,0.0358154,1.0424905,0.14088205,0.45713127,0.20732693,0.040746335
1747679516.6369731,0.0358154,1.0424905,0.14088205,0.45713127,0.20732693,0.040746335
1747679516.6375313,0.0358154,1.0424905,0.14088205,0.45713127,0.20732693,0.040746335
1747679516.6380851,0.0358154,1.0424905,0.14088205,0.45713127,0.20732693,0.040746335
1747679516.638619,0.0358154,1.0424905,0.14088205,0.45713127,0.20732693,0.040746335
1747679516.6391397,0.042160887,1.0385855,0.14381073,0.49761128,0.18389113,0.030093698
1747679516.6396587,0.042160887,1.0385855,0.14381073,0.49761128,0.18389113,0.030093698
1747679516.6401775,0.042160887,1.0385855,0.14381073,0.49761128,0.18389113,0.030093698
1747679516.6406963,0.042160887,1.0385855,0.14381073,0.49761128,0.18389113,0.030093698
1747679516.6412182,0.042160887,1.0385855,0.14381073,0.49761128,0.18389113,0.030093698
1747679516.641797,0.042160887,1.0385855,0.14381073,0.49761128,0.18389113,0.030093698
1747679516.6423357,0.042160887,1.0385855,0.14381073,0.49761128,0.18389113,0.030093698
1747679516.6428561,0.042160887,1.0385855,0.14381073,0.49761128,0.18389113,0.030093698
1747679516.6433778,0.042160887,1.0385855,0.14381073,0.49761128,0.18389113,0.030093698
1747679516.6439195,0.042160887,1.0385855,0.14381073,0.49761128,0.18389113,0.030093698
1747679516.6444995,0.042160887,1.0385855,0.14381073,0.49761128,0.18389113,0.030093698
1747679516.6450346,0.042160887,1.0385855,0.14381073,0.49761128,0.18389113,0.030093698
1747679516.6455722,0.042160887,1.0385855,0.14381073,0.49761128,0.18389113,0.030093698
1747679516.6460986,0.042160887,1.0385855,0.14381073,0.49761128,0.18389113,0.030093698
1747679516.6466205,0.042160887,1.0385855,0.14381073,0.49761128,0.18389113,0.030093698
1747679516.647142,0.042160887,1.0385855,0.14381073,0.49761128,0.18389113,0.030093698
1747679516.647663,0.042160887,1.0385855,0.14381073,0.49761128,0.18389113,0.030093698
1747679516.648184,0.042160887,1.0385855,0.14381073,0.49761128,0.18389113,0.030093698
1747679516.648705,0.042160887,1.0385855,0.14381073,0.49761128,0.18389113,0.030093698
1747679516.649226,0.042160887,1.0385855,0.14381073,0.49761128,0.18389113,0.030093698
1747679516.6497476,0.042160887,1.0385855,0.14381073,0.49761128,0.18389113,0.030093698
1747679516.6502695,0.042160887,1.0385855,0.14381073,0.49761128,0.18389113,0.030093698
1747679516.6507905,0.042160887,1.0385855,0.14381073,0.49761128,0.18389113,0.030093698
1747679516.651312,0.042160887,1.0454192,0.13014352,0.5562008,0.19880483,0.018375797
1747679516.651833,0.042160887,1.0454192,0.13014352,0.5562008,0.19880483,0.018375797
1747679516.652354,0.042160887,1.0454192,0.13014352,0.5562008,0.19880483,0.018375797
1747679516.652875,0.042160887,1.0454192,0.13014352,0.5562008,0.19880483,0.018375797
1747679516.653396,0.042160887,1.0454192,0.13014352,0.5562008,0.19880483,0.018375797
1747679516.6539166,0.042160887,1.0454192,0.13014352,0.5562008,0.19880483,0.018375797
1747679516.65444,0.042160887,1.0454192,0.13014352,0.5562008,0.19880483,0.018375797
1747679516.6549666,0.042160887,1.0454192,0.13014352,0.5562008,0.19880483,0.018375797
1747679516.6554892,0.042160887,1.0454192,0.13014352,0.5562008,0.19880483,0.018375797
1747679516.6560104,0.042160887,1.0454192,0.13014352,0.5562008,0.19880483,0.018375797
1747679516.656531,0.042160887,1.0454192,0.13014352,0.5562008,0.19880483,0.018375797
1747679516.657055,0.042160887,1.0454192,0.13014352,0.5562008,0.19880483,0.018375797
1747679516.6576064,0.042160887,1.0454192,0.13014352,0.5562008,0.19880483,0.018375797
1747679516.6581538,0.042160887,1.0454192,0.13014352,0.5562008,0.19880483,0.018375797
1747679516.658692,0.042160887,1.0454192,0.13014352,0.5562008,0.19880483,0.018375797
1747679516.6592245,0.042160887,1.0454192,0.13014352,0.5562008,0.19880483,0.018375797
1747679516.6597722,0.042160887,1.0454192,0.13014352,0.5562008,0.19880483,0.018375797
1747679516.6602998,0.042160887,1.0454192,0.13014352,0.5562008,0.19880483,0.018375797
1747679516.6608315,0.029958028,1.0590864,0.07937962,0.6020071,0.24780695,0.018375797
1747679516.6613643,0.029958028,1.0590864,0.07937962,0.6020071,0.24780695,0.018375797
1747679516.6618867,0.029958028,1.0590864,0.07937962,0.6020071,0.24780695,0.018375797
1747679516.6624057,0.029958028,1.0590864,0.07937962,0.6020071,0.24780695,0.018375797
1747679516.6629238,0.029958028,1.0590864,0.07937962,0.6020071,0.24780695,0.018375797
1747679516.6634421,0.029958028,1.0590864,0.07937962,0.6020071,0.24780695,0.018375797
1747679516.6639638,0.029958028,1.0590864,0.07937962,0.6020071,0.24780695,0.018375797
1747679516.664495,0.029958028,1.0590864,0.07937962,0.6020071,0.24780695,0.018375797
1747679516.665021,0.029958028,1.0590864,0.07937962,0.6020071,0.24780695,0.018375797
1747679516.66554,0.029958028,1.0590864,0.07937962,0.6020071,0.24780695,0.018375797
1747679516.6660585,0.029958028,1.0590864,0.07937962,0.6020071,0.24780695,0.018375797
1747679516.6665769,0.029958028,1.0590864,0.07937962,0.6020071,0.24780695,0.018375797
1747679516.6670947,0.029958028,1.0590864,0.07937962,0.6020071,0.24780695,0.018375797
1747679516.6676133,0.029958028,1.0590864,0.07937962,0.6020071,0.24780695,0.018375797
1747679516.6681314,0.029958028,1.0590864,0.07937962,0.6020071,0.24780695,0.018375797
1747679516.6686497,0.029958028,1.0590864,0.07937962,0.6020071,0.24780695,0.018375797
1747679516.6691685,0.033862945,1.0688487,0.005674331,0.6020071,0.24780695,0.018375797
1747679516.6696868,0.033862945,1.0688487,0.005674331,0.6020071,0.24780695,0.018375797
1747679516.6702049,0.033862945,1.0688487,0.005674331,0.6020071,0.24780695,0.018375797
1747679516.670723,0.033862945,1.0688487,0.005674331,0.6020071,0.24780695,0.018375797
1747679516.6712413,0.033862945,1.0688487,0.005674331,0.6020071,0.24780695,0.018375797
1747679516.6717598,0.033862945,1.0688487,0.005674331,0.593485,0.32770172,0.03648528
1747679516.6722786,0.033862945,1.0688487,0.005674331,0.593485,0.32770172,0.03648528
1747679516.6727998,0.033862945,1.0688487,0.005674331,0.593485,0.32770172,0.03648528
1747679516.673343,0.033862945,1.0688487,0.005674331,0.593485,0.32770172,0.03648528
1747679516.673883,0.033862945,1.0688487,0.005674331,0.593485,0.32770172,0.03648528
1747679516.674426,0.033862945,1.0688487,0.005674331,0.593485,0.32770172,0.03648528
1747679516.6749783,0.033862945,1.0688487,0.005674331,0.593485,0.32770172,0.03648528
1747679516.6755037,0.033862945,1.0688487,0.005674331,0.593485,0.32770172,0.03648528
1747679516.6760228,0.033862945,1.0688487,0.005674331,0.593485,0.32770172,0.03648528
1747679516.6765418,0.033862945,1.0688487,0.005674331,0.593485,0.32770172,0.03648528
1747679516.67706,0.033862945,1.0688487,0.005674331,0.593485,0.32770172,0.03648528
1747679516.6775782,0.033862945,1.0688487,0.005674331,0.593485,0.32770172,0.03648528
1747679516.6780965,0.033862945,1.0688487,0.005674331,0.593485,0.32770172,0.03648528
1747679516.6786149,0.033862945,1.0688487,0.005674331,0.593485,0.32770172,0.03648528
1747679516.6791332,0.033862945,1.0688487,0.005674331,0.593485,0.32770172,0.03648528
1747679516.679654,0.033862945,1.0688487,0.005674331,0.5583313,0.38948703,0.038615808
1747679516.6801724,0.033862945,1.0688487,0.005674331,0.5583313,0.38948703,0.038615808
1747679516.680691,0.033862945,1.0688487,0.005674331,0.5583313,0.38948703,0.038615808
1747679516.6812098,0.049482606,1.0869089,-0.027029341,0.5583313,0.38948703,0.038615808
1747679516.681729,0.049482606,1.0869089,-0.027029341,0.5583313,0.38948703,0.038615808
1747679516.6822565,0.049482606,1.0869089,-0.027029341,0.5583313,0.38948703,0.038615808
1747679516.6827753,0.049482606,1.0869089,-0.027029341,0.5583313,0.38948703,0.038615808
1747679516.6832936,0.049482606,1.0869089,-0.027029341,0.5583313,0.38948703,0.038615808
1747679516.6838152,0.049482606,1.0869089,-0.027029341,0.5583313,0.38948703,0.038615808
1747679516.6843393,0.049482606,1.0869089,-0.027029341,0.5583313,0.38948703,0.038615808
1747679516.6848593,0.049482606,1.0869089,-0.027029341,0.5583313,0.38948703,0.038615808
1747679516.6853778,0.049482606,1.0869089,-0.027029341,0.5583313,0.38948703,0.038615808
1747679516.6858964,0.049482606,1.0869089,-0.027029341,0.5583313,0.38948703,0.038615808
1747679516.6864145,0.049482606,1.0869089,-0.027029341,0.5583313,0.38948703,0.038615808
1747679516.6869326,0.049482606,1.0869089,-0.027029341,0.5583313,0.38948703,0.038615808
1747679516.687451,0.049482606,1.0869089,-0.027029341,0.5583313,0.38948703,0.038615808
1747679516.687969,0.049482606,1.0869089,-0.027029341,0.5583313,0.38948703,0.038615808
1747679516.6884897,0.049482606,1.0869089,-0.027029341,0.5583313,0.38948703,0.038615808
1747679516.6890485,0.049482606,1.0869089,-0.027029341,0.5583313,0.38948703,0.038615808
1747679516.6896172,0.049482606,1.0869089,-0.027029341,0.5583313,0.38948703,0.038615808
1747679516.6902058,0.049482606,1.0869089,-0.027029341,0.5583313,0.38948703,0.038615808
1747679516.690734,0.049482606,1.0869089,-0.027029341,0.5583313,0.38948703,0.038615808
1747679516.691355,0.049482606,1.0869089,-0.027029341,0.5583313,0.38948703,0.038615808
1747679516.6919026,0.049482606,1.0869089,-0.027029341,0.5583313,0.38948703,0.038615808
1747679516.6924362,0.049482606,1.0869089,-0.027029341,0.5583313,0.38948703,0.038615808
1747679516.6929564,0.049482606,1.0869089,-0.027029341,0.5285039,0.41292283,0.02157159
1747679516.6934752,0.049482606,1.0869089,-0.027029341,0.5285039,0.41292283,0.02157159
1747679516.6939976,0.059733015,1.0966712,-0.048994493,0.5285039,0.41292283,0.02157159
1747679516.6945217,0.059733015,1.0966712,-0.048994493,0.5285039,0.41292283,0.02157159
1747679516.695042,0.059733015,1.0966712,-0.048994493,0.5285039,0.41292283,0.02157159
1747679516.6955612,0.059733015,1.0966712,-0.048994493,0.5285039,0.41292283,0.02157159
1747679516.69608,0.059733015,1.0966712,-0.048994493,0.5285039,0.41292283,0.02157159
1747679516.6965985,0.059733015,1.0966712,-0.048994493,0.5285039,0.41292283,0.02157159
1747679516.6971169,0.059733015,1.0966712,-0.048994493,0.5285039,0.41292283,0.02157159
1747679516.6976352,0.059733015,1.0966712,-0.048994493,0.5285039,0.41292283,0.02157159
1747679516.6981533,0.059733015,1.0966712,-0.048994493,0.5285039,0.41292283,0.02157159
1747679516.6986716,0.059733015,1.0966712,-0.048994493,0.5285039,0.41292283,0.02157159
1747679516.6991894,0.059733015,1.0966712,-0.048994493,0.5285039,0.41292283,0.02157159
1747679516.699708,0.059733015,1.0966712,-0.048994493,0.5285039,0.41292283,0.02157159
1747679516.700226,0.059733015,1.0966712,-0.048994493,0.5285039,0.41292283,0.02157159
1747679516.7007442,0.059733015,1.0966712,-0.048994493,0.5285039,0.41292283,0.02157159
1747679516.7012622,0.059733015,1.0966712,-0.048994493,0.5285039,0.41292283,0.02157159
1747679516.7017806,0.059733015,1.0966712,-0.048994493,0.5285039,0.41292283,0.02157159
1747679516.7022986,0.059733015,1.0966712,-0.048994493,0.5285039,0.41292283,0.02157159
1747679516.7028167,0.059733015,1.0966712,-0.048994493,0.5285039,0.41292283,0.02157159
1747679516.7033355,0.059733015,1.0966712,-0.048994493,0.5285039,0.41292283,0.02157159
1747679516.703854,0.059733015,1.0966712,-0.048994493,0.5285039,0.41292283,0.02157159
1747679516.7043922,0.059733015,1.0966712,-0.048994493,0.5285039,0.41292283,0.02157159
1747679516.704951,0.049482606,1.1088741,-0.08072194,0.49015445,0.41505334,0.0002663159
1747679516.7055068,0.049482606,1.1088741,-0.08072194,0.49015445,0.41505334,0.0002663159
1747679516.7060452,0.049482606,1.1088741,-0.08072194,0.49015445,0.41505334,0.0002663159
1747679516.7065778,0.049482606,1.1088741,-0.08072194,0.49015445,0.41505334,0.0002663159
1747679516.7070973,0.049482606,1.1088741,-0.08072194,0.49015445,0.41505334,0.0002663159
1747679516.707616,0.049482606,1.1088741,-0.08072194,0.49015445,0.41505334,0.0002663159
1747679516.708135,0.049482606,1.1088741,-0.08072194,0.49015445,0.41505334,0.0002663159
1747679516.7086532,0.049482606,1.1088741,-0.08072194,0.49015445,0.41505334,0.0002663159
1747679516.7091715,0.049482606,1.1088741,-0.08072194,0.49015445,0.41505334,0.0002663159
1747679516.7096896,0.049482606,1.1088741,-0.08072194,0.49015445,0.41505334,0.0002663159
1747679516.7102077,0.049482606,1.1088741,-0.08072194,0.49015445,0.41505334,0.0002663159
1747679516.7107263,0.049482606,1.1088741,-0.08072194,0.49015445,0.41505334,0.0002663159
1747679516.711244,0.049482606,1.1088741,-0.08072194,0.49015445,0.41505334,0.0002663159
1747679516.7117624,0.049482606,1.1088741,-0.08072194,0.49015445,0.41505334,0.0002663159
1747679516.7122808,0.049482606,1.1088741,-0.08072194,0.49015445,0.41505334,0.0002663159
1747679516.712799,0.049482606,1.1088741,-0.08072194,0.49015445,0.41505334,0.0002663159
1747679516.7133179,0.025564997,1.1157078,-0.09146046,0.4411523,0.42890176,-0.0018642114
1747679516.7138395,0.025564997,1.1157078,-0.09146046,0.4411523,0.42890176,-0.0018642114
1747679516.714371,0.025564997,1.1157078,-0.09146046,0.4411523,0.42890176,-0.0018642114
1747679516.714897,0.025564997,1.1157078,-0.09146046,0.4411523,0.42890176,-0.0018642114
1747679516.715416,0.025564997,1.1157078,-0.09146046,0.4411523,0.42890176,-0.0018642114
1747679516.7159345,0.025564997,1.1157078,-0.09146046,0.4411523,0.42890176,-0.0018642114
1747679516.7164526,0.025564997,1.1157078,-0.09146046,0.4411523,0.42890176,-0.0018642114
1747679516.7169707,0.025564997,1.1157078,-0.09146046,0.4411523,0.42890176,-0.0018642114
1747679516.717489,0.025564997,1.1157078,-0.09146046,0.4411523,0.42890176,-0.0018642114
1747679516.718022,0.025564997,1.1157078,-0.09146046,0.4411523,0.42890176,-0.0018642114
1747679516.7185535,0.025564997,1.1157078,-0.09146046,0.4411523,0.42890176,-0.0018642114
1747679516.719075,0.025564997,1.1157078,-0.09146046,0.4411523,0.42890176,-0.0018642114
1747679516.7196171,0.025564997,1.1157078,-0.09146046,0.4411523,0.42890176,-0.0018642114
1747679516.720238,0.025564997,1.1157078,-0.09146046,0.4411523,0.42890176,-0.0018642114
1747679516.7207918,0.025564997,1.1157078,-0.09146046,0.4411523,0.42890176,-0.0018642114
1747679516.72132,0.025564997,1.1157078,-0.09146046,0.4411523,0.42890176,-0.0018642114
1747679516.7218893,0.025564997,1.1157078,-0.09146046,0.4411523,0.42890176,-0.0018642114
1747679516.7224436,0.025564997,1.1157078,-0.09146046,0.4411523,0.42890176,-0.0018642114
1747679516.7229764,0.025564997,1.1157078,-0.09146046,0.4411523,0.42890176,-0.0018642114
1747679516.7234964,0.025564997,1.1157078,-0.09146046,0.4411523,0.42890176,-0.0018642114
1747679516.7240179,0.025564997,1.1157078,-0.09146046,0.4411523,0.42890176,-0.0018642114
1747679516.7246456,0.019707624,1.1201007,-0.07681701,0.4177165,0.43848914,0.020506324
1747679516.7251673,0.019707624,1.1201007,-0.07681701,0.4177165,0.43848914,0.020506324
1747679516.725686,0.019707624,1.1201007,-0.07681701,0.4177165,0.43848914,0.020506324
1747679516.7262044,0.019707624,1.1201007,-0.07681701,0.4177165,0.43848914,0.020506324
1747679516.7267227,0.019707624,1.1201007,-0.07681701,0.4177165,0.43848914,0.020506324
1747679516.7272413,0.019707624,1.1201007,-0.07681701,0.4177165,0.43848914,0.020506324
1747679516.7277594,0.019707624,1.1201007,-0.07681701,0.4177165,0.43848914,0.020506324
1747679516.7282774,0.019707624,1.1201007,-0.07681701,0.4177165,0.43848914,0.020506324
1747679516.7287958,0.019707624,1.1201007,-0.07681701,0.4177165,0.43848914,0.020506324
1747679516.729314,0.019707624,1.1201007,-0.07681701,0.4177165,0.43848914,0.020506324
1747679516.7298322,0.019707624,1.1201007,-0.07681701,0.4177165,0.43848914,0.020506324
1747679516.73035,0.019707624,1.1201007,-0.07681701,0.4177165,0.43848914,0.020506324
1747679516.7308683,0.019707624,1.1201007,-0.07681701,0.4177165,0.43848914,0.020506324
1747679516.7313862,0.019707624,1.1201007,-0.07681701,0.4177165,0.43848914,0.020506324
1747679516.7319043,0.019707624,1.1201007,-0.07681701,0.4177165,0.43848914,0.020506324
1747679516.7324224,0.019707624,1.1201007,-0.07681701,0.4177165,0.43848914,0.020506324
1747679516.7329404,0.019707624,1.1201007,-0.07681701,0.4177165,0.43848914,0.020506324
1747679516.7334588,0.019707624,1.1201007,-0.07681701,0.4177165,0.43848914,0.020506324
1747679516.7339766,0.019707624,1.1201007,-0.07681701,0.4177165,0.43848914,0.020506324
1747679516.7344978,0.019707624,1.1201007,-0.07681701,0.4177165,0.43848914,0.020506324
1747679516.7350235,0.019707624,1.1201007,-0.07681701,0.4177165,0.43848914,0.020506324
1747679516.7356007,0.019707624,1.1201007,-0.07681701,0.4177165,0.43848914,0.020506324
1747679516.7361507,0.019707624,1.1201007,-0.07681701,0.4177165,0.43848914,0.020506324
1747679516.7366772,0.019707624,1.1201007,-0.07681701,0.4177165,0.43848914,0.020506324
1747679516.7371967,0.019707624,1.1201007,-0.07681701,0.4177165,0.43848914,0.020506324
1747679516.7377155,0.019707624,1.1201007,-0.07681701,0.4177165,0.43848914,0.020506324
1747679516.7382345,0.05387564,1.1196126,-0.047042035,0.4177165,0.43848914,0.020506324
1747679516.7387543,0.05387564,1.1196126,-0.047042035,0.4241081,0.43316284,0.04500739
1747679516.739273,0.05387564,1.1196126,-0.047042035,0.4241081,0.43316284,0.04500739
1747679516.7397912,0.05387564,1.1196126,-0.047042035,0.4241081,0.43316284,0.04500739
1747679516.74031,0.05387564,1.1196126,-0.047042035,0.4241081,0.43316284,0.04500739
1747679516.7408288,0.05387564,1.1196126,-0.047042035,0.46032706,0.40227017,0.034354754
1747679516.7413468,0.05387564,1.1196126,-0.047042035,0.46032706,0.40227017,0.034354754
1747679516.7418652,0.095853485,1.1269343,-0.024588767,0.46032706,0.40227017,0.034354754
1747679516.7423832,0.095853485,1.1269343,-0.024588767,0.46032706,0.40227017,0.034354754
1747679516.7429016,0.095853485,1.1269343,-0.024588767,0.46032706,0.40227017,0.034354754
1747679516.7434227,0.095853485,1.1269343,-0.024588767,0.46032706,0.40227017,0.034354754
1747679516.743947,0.095853485,1.1269343,-0.024588767,0.46032706,0.40227017,0.034354754
1747679516.7444744,0.095853485,1.1269343,-0.024588767,0.46032706,0.40227017,0.034354754
1747679516.7449968,0.095853485,1.1269343,-0.024588767,0.46032706,0.40227017,0.034354754
1747679516.7455177,0.095853485,1.1269343,-0.024588767,0.46032706,0.40227017,0.034354754
1747679516.7460387,0.095853485,1.1269343,-0.024588767,0.46032706,0.40227017,0.034354754
1747679516.7465599,0.095853485,1.1269343,-0.024588767,0.46032706,0.40227017,0.034354754
1747679516.7470808,0.095853485,1.1269343,-0.024588767,0.46032706,0.40227017,0.034354754
1747679516.7476015,0.095853485,1.1269343,-0.024588767,0.46032706,0.40227017,0.034354754
1747679516.7481234,0.095853485,1.1269343,-0.024588767,0.46032706,0.40227017,0.034354754
1747679516.7486484,0.095853485,1.1269343,-0.024588767,0.46032706,0.40227017,0.034354754
1747679516.749172,0.095853485,1.1269343,-0.024588767,0.532765,0.3543333,-0.019973693
1747679516.7496936,0.12953338,1.1318154,-0.012874019,0.532765,0.3543333,-0.019973693
1747679516.7502148,0.12953338,1.1318154,-0.012874019,0.532765,0.3543333,-0.019973693
1747679516.7507644,0.12953338,1.1318154,-0.012874019,0.532765,0.3543333,-0.019973693
1747679516.7513306,0.12953338,1.1318154,-0.012874019,0.532765,0.3543333,-0.019973693
1747679516.7518795,0.12953338,1.1318154,-0.012874019,0.532765,0.3543333,-0.019973693
1747679516.7524147,0.12953338,1.1318154,-0.012874019,0.532765,0.3543333,-0.019973693
1747679516.7529373,0.12953338,1.1318154,-0.012874019,0.532765,0.3543333,-0.019973693
1747679516.7534587,0.12953338,1.1318154,-0.012874019,0.532765,0.3543333,-0.019973693
1747679516.7539828,0.12953338,1.1318154,-0.012874019,0.532765,0.3543333,-0.019973693
1747679516.7545192,0.12953338,1.1318154,-0.012874019,0.532765,0.3543333,-0.019973693
1747679516.7550464,0.12953338,1.1318154,-0.012874019,0.532765,0.3543333,-0.019973693
1747679516.7555678,0.12953338,1.1318154,-0.012874019,0.532765,0.3543333,-0.019973693
1747679516.7560894,0.12953338,1.1318154,-0.012874019,0.532765,0.3543333,-0.019973693
1747679516.7566106,0.12953338,1.1318154,-0.012874019,0.532765,0.3543333,-0.019973693
1747679516.7571313,0.12953338,1.1318154,-0.012874019,0.532765,0.3543333,-0.019973693
1747679516.7576523,0.12953338,1.1318154,-0.012874019,0.532765,0.3543333,-0.019973693
1747679516.7581725,0.12953338,1.1318154,-0.012874019,0.532765,0.3543333,-0.019973693
1747679516.7587016,0.12953338,1.1318154,-0.012874019,0.532765,0.3543333,-0.019973693
1747679516.7592373,0.12953338,1.1318154,-0.012874019,0.532765,0.3543333,-0.019973693
1747679516.759786,0.12953338,1.1318154,-0.012874019,0.532765,0.3543333,-0.019973693
1747679516.7603066,0.12953338,1.1318154,-0.012874019,0.532765,0.3543333,-0.019973693
1747679516.7608259,0.14954607,1.1347442,-0.010433447,0.5956155,0.3074617,-0.093476884
1747679516.7613447,0.14954607,1.1347442,-0.010433447,0.5956155,0.3074617,-0.093476884
1747679516.761863,0.14954607,1.1347442,-0.010433447,0.5956155,0.3074617,-0.093476884
1747679516.7623808,0.14954607,1.1347442,-0.010433447,0.5956155,0.3074617,-0.093476884
1747679516.7628992,0.14954607,1.1347442,-0.010433447,0.5956155,0.3074617,-0.093476884
1747679516.7634175,0.14954607,1.1347442,-0.010433447,0.5956155,0.3074617,-0.093476884
1747679516.7639358,0.14954607,1.1347442,-0.010433447,0.5956155,0.3074617,-0.093476884
1747679516.7644565,0.14954607,1.1347442,-0.010433447,0.5956155,0.3074617,-0.093476884
1747679516.7649794,0.14954607,1.1347442,-0.010433447,0.5956155,0.3074617,-0.093476884
1747679516.7654998,0.14954607,1.1347442,-0.010433447,0.5956155,0.3074617,-0.093476884
1747679516.7660475,0.14954607,1.1347442,-0.010433447,0.5956155,0.3074617,-0.093476884
1747679516.7666073,0.14954607,1.1347442,-0.010433447,0.5956155,0.3074617,-0.093476884
1747679516.7671716,0.14954607,1.1347442,-0.010433447,0.5956155,0.3074617,-0.093476884
1747679516.7677276,0.14954607,1.1347442,-0.010433447,0.5956155,0.3074617,-0.093476884
1747679516.76826,0.14954607,1.1347442,-0.010433447,0.5956155,0.3074617,-0.093476884
1747679516.7687802,0.14905797,1.1283987,-0.012385906,0.5956155,0.3074617,-0.093476884
1747679516.7692997,0.14905797,1.1283987,-0.012385906,0.65100926,0.32024488,-0.16591482
1747679516.7698185,0.14905797,1.1283987,-0.012385906,0.65100926,0.32024488,-0.16591482
1747679516.7703373,0.14905797,1.1283987,-0.012385906,0.65100926,0.32024488,-0.16591482
1747679516.770913,0.14905797,1.1283987,-0.012385906,0.65100926,0.32024488,-0.16591482
1747679516.7714322,0.14905797,1.1283987,-0.012385906,0.65100926,0.32024488,-0.16591482
1747679516.7719538,0.14905797,1.1283987,-0.012385906,0.65100926,0.32024488,-0.16591482
1747679516.7724764,0.14905797,1.1283987,-0.012385906,0.65100926,0.32024488,-0.16591482
1747679516.7730057,0.14905797,1.1283987,-0.012385906,0.65100926,0.32024488,-0.16591482
1747679516.7735374,0.14905797,1.1283987,-0.012385906,0.65100926,0.32024488,-0.16591482
1747679516.7740657,0.14905797,1.1283987,-0.012385906,0.65100926,0.32024488,-0.16591482
1747679516.7745883,0.14905797,1.1283987,-0.012385906,0.65100926,0.32024488,-0.16591482
1747679516.775108,0.14905797,1.1283987,-0.012385906,0.65100926,0.32024488,-0.16591482
1747679516.7756276,0.14905797,1.1283987,-0.012385906,0.65100926,0.32024488,-0.16591482
1747679516.7761488,0.14905797,1.1283987,-0.012385906,0.65100926,0.32024488,-0.16591482
1747679516.776674,0.14905797,1.1283987,-0.012385906,0.65100926,0.32024488,-0.16591482
1747679516.7771986,0.14905797,1.1283987,-0.012385906,0.65100926,0.32024488,-0.16591482
1747679516.777718,0.14905797,1.1283987,-0.012385906,0.65100926,0.32024488,-0.16591482
1747679516.7782397,0.14905797,1.1283987,-0.012385906,0.65100926,0.32024488,-0.16591482
1747679516.778759,0.14905797,1.1283987,-0.012385906,0.65100926,0.32024488,-0.16591482
1747679516.77928,0.14905797,1.1283987,-0.012385906,0.65100926,0.32024488,-0.16591482
1747679516.779809,0.11830675,1.1088741,-0.031910483,0.65100926,0.32024488,-0.16591482
1747679516.7803502,0.11830675,1.1088741,-0.031910483,0.65100926,0.32024488,-0.16591482
1747679516.7808893,0.11830675,1.1088741,-0.031910483,0.65100926,0.32024488,-0.16591482
1747679516.7814908,0.11830675,1.1088741,-0.031910483,0.7010766,0.34687647,-0.21917799
1747679516.782043,0.11830675,1.1088741,-0.031910483,0.7010766,0.34687647,-0.21917799
1747679516.7825952,0.11830675,1.1088741,-0.031910483,0.7010766,0.34687647,-0.21917799
1747679516.7831612,0.11830675,1.1088741,-0.031910483,0.7010766,0.34687647,-0.21917799
1747679516.7837286,0.11830675,1.1088741,-0.031910483,0.7010766,0.34687647,-0.21917799
1747679516.7842796,0.11830675,1.1088741,-0.031910483,0.7010766,0.34687647,-0.21917799
1747679516.784815,0.11830675,1.1088741,-0.031910483,0.7010766,0.34687647,-0.21917799
1747679516.7853398,0.11830675,1.1088741,-0.031910483,0.7010766,0.34687647,-0.21917799
1747679516.7858634,0.11830675,1.1088741,-0.031910483,0.7010766,0.34687647,-0.21917799
1747679516.7863865,0.11830675,1.1088741,-0.031910483,0.7010766,0.34687647,-0.21917799
1747679516.7869096,0.11830675,1.1088741,-0.031910483,0.7010766,0.34687647,-0.21917799
1747679516.7874358,0.11830675,1.1088741,-0.031910483,0.7010766,0.34687647,-0.21917799
1747679516.787958,0.11830675,1.1088741,-0.031910483,0.7010766,0.34687647,-0.21917799
1747679516.7884796,0.11830675,1.1088741,-0.031910483,0.7010766,0.34687647,-0.21917799
1747679516.789001,0.11830675,1.1088741,-0.031910483,0.7010766,0.34687647,-0.21917799
1747679516.789522,0.11830675,1.1088741,-0.031910483,0.7010766,0.34687647,-0.21917799
1747679516.7900467,0.11830675,1.1088741,-0.031910483,0.7010766,0.34687647,-0.21917799
1747679516.7905784,0.11830675,1.1088741,-0.031910483,0.7010766,0.34687647,-0.21917799
1747679516.7911122,0.08999611,1.1049693,-0.047042035,0.72664297,0.349007,-0.23622221
1747679516.7916403,0.08999611,1.1049693,-0.047042035,0.72664297,0.349007,-0.23622221
1747679516.7921627,0.08999611,1.1049693,-0.047042035,0.72664297,0.349007,-0.23622221
1747679516.7926843,0.08999611,1.1049693,-0.047042035,0.72664297,0.349007,-0.23622221
1747679516.7932067,0.08999611,1.1049693,-0.047042035,0.72664297,0.349007,-0.23622221
1747679516.793727,0.08999611,1.1049693,-0.047042035,0.72664297,0.349007,-0.23622221
1747679516.794248,0.08999611,1.1049693,-0.047042035,0.72664297,0.349007,-0.23622221
1747679516.794774,0.08999611,1.1049693,-0.047042035,0.72664297,0.349007,-0.23622221
1747679516.7952983,0.08999611,1.1049693,-0.047042035,0.72664297,0.349007,-0.23622221
1747679516.7958229,0.08999611,1.1049693,-0.047042035,0.72664297,0.349007,-0.23622221
1747679516.7963424,0.08999611,1.1049693,-0.047042035,0.72664297,0.349007,-0.23622221
1747679516.7969003,0.08999611,1.1049693,-0.047042035,0.72664297,0.349007,-0.23622221
1747679516.79744,0.08999611,1.1049693,-0.047042035,0.72664297,0.349007,-0.23622221
1747679516.7979846,0.08999611,1.1049693,-0.047042035,0.72664297,0.349007,-0.23622221
1747679516.7985241,0.08999611,1.1049693,-0.047042035,0.72664297,0.349007,-0.23622221
1747679516.7990553,0.08999611,1.1049693,-0.047042035,0.72664297,0.349007,-0.23622221
1747679516.7995758,0.08999611,1.1049693,-0.047042035,0.72664297,0.349007,-0.23622221
1747679516.8000941,0.08999611,1.1049693,-0.047042035,0.72664297,0.349007,-0.23622221
1747679516.8006127,0.08999611,1.1049693,-0.047042035,0.72664297,0.349007,-0.23622221
1747679516.801131,0.08999611,1.1049693,-0.047042035,0.72664297,0.349007,-0.23622221
1747679516.8016496,0.08999611,1.1049693,-0.047042035,0.72664297,0.349007,-0.23622221
1747679516.802168,0.08999611,1.1049693,-0.047042035,0.72664297,0.349007,-0.23622221
1747679516.802686,0.08999611,1.1049693,-0.047042035,0.72664297,0.349007,-0.23622221
1747679516.8032043,0.08999611,1.1049693,-0.047042035,0.72664297,0.349007,-0.23622221
1747679516.8037257,0.014826477,1.0830041,-0.07876948,0.72664297,0.349007,-0.23622221
1747679516.8042574,0.014826477,1.0830041,-0.07876948,0.72664297,0.349007,-0.23622221
1747679516.8047836,0.014826477,1.0830041,-0.07876948,0.77138406,0.31811434,-0.21917799
1747679516.8053026,0.014826477,1.0830041,-0.07876948,0.77138406,0.31811434,-0.21917799
1747679516.8058212,0.014826477,1.0830041,-0.07876948,0.77138406,0.31811434,-0.21917799
1747679516.8063395,0.014826477,1.0830041,-0.07876948,0.77138406,0.31811434,-0.21917799
1747679516.8068578,0.014826477,1.0830041,-0.07876948,0.77138406,0.31811434,-0.21917799
1747679516.807376,0.014826477,1.0830041,-0.07876948,0.77138406,0.31811434,-0.21917799
1747679516.807894,0.014826477,1.0830041,-0.07876948,0.77138406,0.31811434,-0.21917799
1747679516.808412,0.014826477,1.0830041,-0.07876948,0.77138406,0.31811434,-0.21917799
1747679516.8089304,0.014826477,1.0830041,-0.07876948,0.77138406,0.31811434,-0.21917799
1747679516.8094485,0.014826477,1.0830041,-0.07876948,0.77138406,0.31811434,-0.21917799
1747679516.8099666,0.014826477,1.0830041,-0.07876948,0.77138406,0.31811434,-0.21917799
1747679516.8104844,0.014826477,1.0830041,-0.07876948,0.77138406,0.31811434,-0.21917799
1747679516.8110027,0.014826477,1.0830041,-0.07876948,0.77138406,0.31811434,-0.21917799
1747679516.8115208,0.014826477,1.0830041,-0.07876948,0.77138406,0.31811434,-0.21917799
1747679516.8120728,0.014826477,1.0830041,-0.07876948,0.77138406,0.31811434,-0.21917799
1747679516.81263,-0.022758339,1.0581101,-0.08365062,0.79801565,0.30639645,-0.17017587
1747679516.813189,-0.022758339,1.0581101,-0.08365062,0.79801565,0.30639645,-0.17017587
1747679516.8137486,-0.022758339,1.0581101,-0.08365062,0.79801565,0.30639645,-0.17017587
1747679516.8143198,-0.022758339,1.0581101,-0.08365062,0.79801565,0.30639645,-0.17017587
1747679516.814878,-0.022758339,1.0581101,-0.08365062,0.79801565,0.30639645,-0.17017587
1747679516.8154259,-0.022758339,1.0581101,-0.08365062,0.79801565,0.30639645,-0.17017587
1747679516.8159838,-0.022758339,1.0581101,-0.08365062,0.79801565,0.30639645,-0.17017587
1747679516.8165388,-0.022758339,1.0581101,-0.08365062,0.79801565,0.30639645,-0.17017587
1747679516.8170993,-0.022758339,1.0581101,-0.08365062,0.79801565,0.30639645,-0.17017587
1747679516.8176563,-0.022758339,1.0581101,-0.08365062,0.79801565,0.30639645,-0.17017587
1747679516.818197,-0.022758339,1.0581101,-0.08365062,0.79801565,0.30639645,-0.17017587
1747679516.8187222,-0.022758339,1.0581101,-0.08365062,0.79801565,0.30639645,-0.17017587
1747679516.8192413,-0.022758339,1.0581101,-0.08365062,0.79801565,0.30639645,-0.17017587
1747679516.8197598,-0.022758339,1.0581101,-0.08365062,0.79801565,0.30639645,-0.17017587
1747679516.8202782,-0.022758339,1.0581101,-0.08365062,0.79801565,0.30639645,-0.17017587
1747679516.820797,-0.022758339,1.0581101,-0.08365062,0.79801565,0.30639645,-0.17017587
1747679516.8213148,-0.022758339,1.0581101,-0.08365062,0.79801565,0.30639645,-0.17017587
1747679516.821833,-0.022758339,1.0581101,-0.08365062,0.79801565,0.30639645,-0.17017587
1747679516.8223512,-0.022758339,1.0581101,-0.08365062,0.79801565,0.30639645,-0.17017587
1747679516.8228695,-0.022758339,1.0581101,-0.08365062,0.79801565,0.30639645,-0.17017587
1747679516.823391,-0.022758339,1.0581101,-0.08365062,0.79801565,0.30639645,-0.17017587
1747679516.823935,-0.022758339,1.0581101,-0.08365062,0.79801565,0.30639645,-0.17017587
1747679516.8244557,-0.022758339,1.0581101,-0.08365062,0.79801565,0.30639645,-0.17017587
1747679516.824974,-0.022758339,1.0581101,-0.08365062,0.79801565,0.30639645,-0.17017587
1747679516.8254924,-0.022758339,1.0581101,-0.08365062,0.79801565,0.30639645,-0.17017587
1747679516.8260107,-0.022758339,1.0581101,-0.08365062,0.79801565,0.30639645,-0.17017587
1747679516.826529,-0.022758339,1.0581101,-0.08365062,0.79801565,0.30639645,-0.17017587
1747679516.827051,-0.04472349,1.0254065,-0.08999611,0.8672578,0.30107012,-0.06471477
1747679516.8275974,-0.04472349,1.0254065,-0.08999611,0.8672578,0.30107012,-0.06471477
1747679516.8281517,-0.04472349,1.0254065,-0.08999611,0.8672578,0.30107012,-0.06471477
1747679516.8286855,-0.04472349,1.0254065,-0.08999611,0.8672578,0.30107012,-0.06471477
1747679516.829223,-0.04472349,1.0254065,-0.08999611,0.8672578,0.30107012,-0.06471477
1747679516.8297873,-0.04472349,1.0254065,-0.08999611,0.8672578,0.30107012,-0.06471477
1747679516.8303342,-0.04472349,1.0254065,-0.08999611,0.8672578,0.30107012,-0.06471477
1747679516.8308697,-0.04472349,1.0254065,-0.08999611,0.8672578,0.30107012,-0.06471477
1747679516.8313925,-0.04374726,1.0068582,-0.09487725,0.94928306,0.27763432,0.02476738
1747679516.831911,-0.04374726,1.0068582,-0.09487725,0.94928306,0.27763432,0.02476738
1747679516.8324294,-0.04374726,1.0068582,-0.09487725,0.94928306,0.27763432,0.02476738
1747679516.8329544,-0.04374726,1.0068582,-0.09487725,0.94928306,0.27763432,0.02476738
1747679516.8334765,-0.04374726,1.0068582,-0.09487725,0.94928306,0.27763432,0.02476738
1747679516.8340087,-0.04374726,1.0068582,-0.09487725,0.94928306,0.27763432,0.02476738
1747679516.8345344,-0.04374726,1.0068582,-0.09487725,0.94928306,0.27763432,0.02476738
1747679516.835053,-0.04374726,1.0068582,-0.09487725,0.94928306,0.27763432,0.02476738
1747679516.8355718,-0.04374726,1.0068582,-0.09487725,0.94928306,0.27763432,0.02476738
1747679516.8360898,-0.04374726,1.0068582,-0.09487725,0.94928306,0.27763432,0.02476738
1747679516.836608,-0.04374726,1.0068582,-0.09487725,0.94928306,0.27763432,0.02476738
1747679516.8371735,-0.04374726,1.0068582,-0.09487725,0.94928306,0.27763432,0.02476738
1747679516.8376935,-0.04374726,1.0068582,-0.09487725,0.94928306,0.27763432,0.02476738
1747679516.8382115,-0.04374726,1.0068582,-0.09487725,0.94928306,0.27763432,0.02476738
1747679516.8387303,-0.04374726,1.0068582,-0.09487725,0.94928306,0.27763432,0.02476738
1747679516.8392494,-0.033008743,0.99758404,-0.098782174,0.94928306,0.27763432,0.02476738
1747679516.8397677,-0.033008743,0.99758404,-0.098782174,0.94928306,0.27763432,0.02476738
1747679516.8402867,-0.033008743,0.99758404,-0.098782174,0.94928306,0.27763432,0.02476738
1747679516.840805,-0.033008743,0.99758404,-0.098782174,0.94928306,0.27763432,0.02476738
1747679516.8413239,-0.033008743,0.99758404,-0.098782174,1.0110683,0.2552638,0.07376951
1747679516.8418424,-0.033008743,0.99758404,-0.098782174,1.0110683,0.2552638,0.07376951
1747679516.842423,-0.033008743,0.99758404,-0.098782174,1.0110683,0.2552638,0.07376951
1747679516.8429942,-0.033008743,0.99758404,-0.098782174,1.0110683,0.2552638,0.07376951
1747679516.8435502,-0.033008743,0.99758404,-0.098782174,1.0110683,0.2552638,0.07376951
1747679516.8441079,-0.033008743,0.99758404,-0.098782174,1.0110683,0.2552638,0.07376951
1747679516.844665,-0.033008743,0.99758404,-0.098782174,1.0110683,0.2552638,0.07376951
1747679516.8452137,-0.033008743,0.99758404,-0.098782174,1.0110683,0.2552638,0.07376951
1747679516.8457496,-0.033008743,0.99758404,-0.098782174,1.0110683,0.2552638,0.07376951
1747679516.846272,-0.033008743,0.99758404,-0.098782174,1.0110683,0.2552638,0.07376951
1747679516.8467934,-0.033008743,0.99758404,-0.098782174,1.0110683,0.2552638,0.07376951
1747679516.8473146,-0.033008743,0.99758404,-0.098782174,1.0110683,0.2552638,0.07376951
1747679516.847836,-0.033008743,0.99758404,-0.098782174,1.0110683,0.2552638,0.07376951
1747679516.848358,-0.033008743,0.99758404,-0.098782174,1.0110683,0.2552638,0.07376951
1747679516.8488796,-0.033008743,0.99758404,-0.098782174,1.0110683,0.2552638,0.07376951
1747679516.8494108,-0.033008743,0.99758404,-0.098782174,1.0110683,0.2552638,0.07376951
1747679516.849935,-0.033008743,0.99758404,-0.098782174,1.1932285,0.12956269,0.1355548
1747679516.8504572,0.04850638,1.0010009,-0.1334383,1.1932285,0.12956269,0.1355548
1747679516.8509784,0.04850638,1.0010009,-0.1334383,1.1932285,0.12956269,0.1355548
1747679516.851499,0.04850638,1.0010009,-0.1334383,1.1932285,0.12956269,0.1355548
1747679516.8520203,0.04850638,1.0010009,-0.1334383,1.1932285,0.12956269,0.1355548
1747679516.852541,0.04850638,1.0010009,-0.1334383,1.1932285,0.12956269,0.1355548
1747679516.853062,0.04850638,1.0010009,-0.1334383,1.1932285,0.12956269,0.1355548
1747679516.8535852,0.04850638,1.0010009,-0.1334383,1.1932285,0.12956269,0.1355548
1747679516.8541214,0.04850638,1.0010009,-0.1334383,1.1932285,0.12956269,0.1355548
1747679516.8546484,0.04850638,1.0010009,-0.1334383,1.1932285,0.12956269,0.1355548
1747679516.8551695,0.04850638,1.0010009,-0.1334383,1.1932285,0.12956269,0.1355548
1747679516.8556907,0.04850638,1.0010009,-0.1334383,1.1932285,0.12956269,0.1355548
1747679516.8562117,0.04850638,1.0010009,-0.1334383,1.1932285,0.12956269,0.1355548
1747679516.8567324,0.04850638,1.0010009,-0.1334383,1.1932285,0.12956269,0.1355548
1747679516.857253,0.04850638,1.0010009,-0.1334383,1.1932285,0.12956269,0.1355548
1747679516.8577943,0.04850638,1.0010009,-0.1334383,1.1932285,0.12956269,0.1355548
1747679516.858332,0.04850638,1.0010009,-0.1334383,1.1932285,0.12956269,0.1355548
1747679516.8588626,0.08901988,0.9741545,-0.20616737,1.1932285,0.12956269,0.1355548
1747679516.8593786,0.08901988,0.9741545,-0.20616737,1.1932285,0.12956269,0.1355548
1747679516.8599112,0.08901988,0.9741545,-0.20616737,1.3274517,0.03581949,0.09614004
1747679516.8604608,0.08901988,0.9741545,-0.20616737,1.3274517,0.03581949,0.09614004
1747679516.8610067,0.08901988,0.9741545,-0.20616737,1.3274517,0.03581949,0.09614004
1747679516.8615398,0.08901988,0.9741545,-0.20616737,1.3274517,0.03581949,0.09614004
1747679516.862059,0.08901988,0.9741545,-0.20616737,1.3274517,0.03581949,0.09614004
1747679516.8625774,0.08901988,0.9741545,-0.20616737,1.3274517,0.03581949,0.09614004
1747679516.8630958,0.08901988,0.9741545,-0.20616737,1.3274517,0.03581949,0.09614004
1747679516.8636167,0.08901988,0.9741545,-0.20616737,1.3274517,0.03581949,0.09614004
1747679516.8641481,0.08901988,0.9741545,-0.20616737,1.3274517,0.03581949,0.09614004
1747679516.8646739,0.08901988,0.9741545,-0.20616737,1.3274517,0.03581949,0.09614004
1747679516.8651927,0.08901988,0.9741545,-0.20616737,1.3274517,0.03581949,0.09614004
1747679516.8657112,0.08901988,0.9741545,-0.20616737,1.3274517,0.03581949,0.09614004
1747679516.866229,0.08901988,0.9741545,-0.20616737,1.3274517,0.03581949,0.09614004
1747679516.8667471,0.08901988,0.9741545,-0.20616737,1.3274517,0.03581949,0.09614004
1747679516.8672652,0.08901988,0.9741545,-0.20616737,1.3274517,0.03581949,0.09614004
1747679516.8677833,0.08901988,0.9741545,-0.20616737,1.3274517,0.03581949,0.09614004
1747679516.8683014,0.08901988,0.9741545,-0.20616737,1.3274517,0.03581949,0.09614004
1747679516.8688192,0.08901988,0.9741545,-0.20616737,1.3274517,0.03581949,0.09614004
1747679516.8693376,0.08901988,0.9741545,-0.20616737,1.3274517,0.03581949,0.09614004
1747679516.8698554,0.08901988,0.9741545,-0.20616737,1.3274517,0.03581949,0.09614004
1747679516.8703737,0.08901988,0.9741545,-0.20616737,1.3274517,0.03581949,0.09614004
1747679516.8708916,0.08901988,0.9741545,-0.20616737,1.3274517,0.03581949,0.09614004
1747679516.8714445,0.08901988,0.9741545,-0.20616737,1.3274517,0.03581949,0.09614004
1747679516.8719919,0.09487725,0.92143816,-0.30037346,1.4286517,0.06351634,0.05139897
1747679516.872524,0.09487725,0.92143816,-0.30037346,1.4286517,0.06351634,0.05139897
1747679516.8731275,0.09487725,0.92143816,-0.30037346,1.4286517,0.06351634,0.05139897
1747679516.8736799,0.09487725,0.92143816,-0.30037346,1.4286517,0.06351634,0.05139897
1747679516.8742225,0.09487725,0.92143816,-0.30037346,1.4286517,0.06351634,0.05139897
1747679516.8747654,0.09487725,0.92143816,-0.30037346,1.4286517,0.06351634,0.05139897
1747679516.8753047,0.09487725,0.92143816,-0.30037346,1.4286517,0.06351634,0.05139897
1747679516.8758345,0.09487725,0.92143816,-0.30037346,1.4286517,0.06351634,0.05139897
1747679516.8763857,0.09487725,0.92143816,-0.30037346,1.4286517,0.06351634,0.05139897
1747679516.8769405,0.09487725,0.92143816,-0.30037346,1.4286517,0.06351634,0.05139897
1747679516.8774912,0.09487725,0.92143816,-0.30037346,1.4286517,0.06351634,0.05139897
1747679516.878034,0.09487725,0.92143816,-0.30037346,1.4286517,0.06351634,0.05139897
1747679516.8785737,0.09487725,0.92143816,-0.30037346,1.4286517,0.06351634,0.05139897
1747679516.879111,0.09487725,0.92143816,-0.30037346,1.4286517,0.06351634,0.05139897
1747679516.8796532,0.09487725,0.92143816,-0.30037346,1.4286517,0.06351634,0.05139897
1747679516.8802044,0.09487725,0.92143816,-0.30037346,1.4286517,0.06351634,0.05139897
1747679516.8807468,0.09487725,0.92143816,-0.30037346,1.4286517,0.06351634,0.05139897
1747679516.8812888,0.09487725,0.92143816,-0.30037346,1.4286517,0.06351634,0.05139897
1747679516.881838,0.08999611,0.8369943,-0.3867697,1.5245254,0.26591644,0.025832644
1747679516.882396,0.08999611,0.8369943,-0.3867697,1.5245254,0.26591644,0.025832644
1747679516.8829544,0.08999611,0.8369943,-0.3867697,1.5245254,0.26591644,0.025832644
1747679516.8835213,0.08999611,0.8369943,-0.3867697,1.5245254,0.26591644,0.025832644
1747679516.8840637,0.08999611,0.8369943,-0.3867697,1.5245254,0.26591644,0.025832644
1747679516.8846314,0.08999611,0.8369943,-0.3867697,1.5245254,0.26591644,0.025832644
1747679516.885161,0.08999611,0.8369943,-0.3867697,1.5245254,0.26591644,0.025832644
1747679516.8856804,0.08999611,0.8369943,-0.3867697,1.5245254,0.26591644,0.025832644
1747679516.8861985,0.08999611,0.8369943,-0.3867697,1.5245254,0.26591644,0.025832644
1747679516.8867168,0.08999611,0.8369943,-0.3867697,1.5245254,0.26591644,0.025832644
1747679516.8872352,0.08999611,0.8369943,-0.3867697,1.5245254,0.26591644,0.025832644
1747679516.887753,0.08999611,0.8369943,-0.3867697,1.5245254,0.26591644,0.025832644
1747679516.8883,0.08999611,0.8369943,-0.3867697,1.5245254,0.26591644,0.025832644
1747679516.888838,0.08999611,0.8369943,-0.3867697,1.5245254,0.26591644,0.025832644
1747679516.8893604,0.08999611,0.8369943,-0.3867697,1.5245254,0.26591644,0.025832644
1747679516.8898792,0.08999611,0.8369943,-0.3867697,1.5245254,0.26591644,0.025832644
1747679516.8903978,0.08999611,0.8369943,-0.3867697,1.5245254,0.26591644,0.025832644
1747679516.890916,0.08999611,0.8369943,-0.3867697,1.5245254,0.26591644,0.025832644
1747679516.8914368,0.08999611,0.8369943,-0.3867697,1.5245254,0.26591644,0.025832644
1747679516.8919766,0.08999611,0.8369943,-0.3867697,1.5245254,0.26591644,0.025832644
1747679516.8925376,0.055828094,0.7652415,-0.48878568,1.5245254,0.26591644,0.025832644
1747679516.8930907,0.055828094,0.7652415,-0.48878568,1.5990939,0.40227017,-0.002929475
1747679516.8936281,0.055828094,0.7652415,-0.48878568,1.5990939,0.40227017,-0.002929475
1747679516.8941739,0.055828094,0.7652415,-0.48878568,1.5990939,0.40227017,-0.002929475
1747679516.894733,0.055828094,0.7652415,-0.48878568,1.5990939,0.40227017,-0.002929475
1747679516.8952618,0.055828094,0.7652415,-0.48878568,1.5990939,0.40227017,-0.002929475
1747679516.8957844,0.055828094,0.7652415,-0.48878568,1.5990939,0.40227017,-0.002929475
1747679516.8963068,0.055828094,0.7652415,-0.48878568,1.5990939,0.40227017,-0.002929475
1747679516.8968291,0.055828094,0.7652415,-0.48878568,1.5990939,0.40227017,-0.002929475
1747679516.897351,0.055828094,0.7652415,-0.48878568,1.5990939,0.40227017,-0.002929475
1747679516.897873,0.055828094,0.7652415,-0.48878568,1.5990939,0.40227017,-0.002929475
1747679516.8983943,0.055828094,0.7652415,-0.48878568,1.5990939,0.40227017,-0.002929475
1747679516.898916,0.055828094,0.7652415,-0.48878568,1.5990939,0.40227017,-0.002929475
1747679516.899438,0.055828094,0.7652415,-0.48878568,1.5990939,0.40227017,-0.002929475
1747679516.8999603,0.055828094,0.7652415,-0.48878568,1.5990939,0.40227017,-0.002929475
1747679516.9004836,0.055828094,0.7652415,-0.48878568,1.5990939,0.40227017,-0.002929475
1747679516.9010136,0.055828094,0.7652415,-0.48878568,1.5990939,0.40227017,-0.002929475
1747679516.901546,0.055828094,0.7652415,-0.48878568,1.5990939,0.40227017,-0.002929475
1747679516.9020655,0.055828094,0.7652415,-0.48878568,1.5990939,0.40227017,-0.002929475
1747679516.9025862,0.055828094,0.7652415,-0.48878568,1.5990939,0.40227017,-0.002929475
1747679516.903107,0.055828094,0.7652415,-0.48878568,1.7226645,0.5918871,-0.09028109
1747679516.9037824,-0.02178211,0.7052034,-0.6288745,1.7226645,0.5918871,-0.09028109
1747679516.904328,-0.02178211,0.7052034,-0.6288745,1.7226645,0.5918871,-0.09028109
1747679516.9048557,-0.02178211,0.7052034,-0.6288745,1.7226645,0.5918871,-0.09028109
1747679516.9053748,-0.02178211,0.7052034,-0.6288745,1.7226645,0.5918871,-0.09028109
1747679516.9058933,-0.02178211,0.7052034,-0.6288745,1.7226645,0.5918871,-0.09028109
1747679516.906412,-0.02178211,0.7052034,-0.6288745,1.7226645,0.5918871,-0.09028109
1747679516.9069302,-0.02178211,0.7052034,-0.6288745,1.7226645,0.5918871,-0.09028109
1747679516.9074512,-0.02178211,0.7052034,-0.6288745,1.7226645,0.5918871,-0.09028109
1747679516.9080055,-0.02178211,0.7052034,-0.6288745,1.7226645,0.5918871,-0.09028109
1747679516.9085593,-0.02178211,0.7052034,-0.6288745,1.7226645,0.5918871,-0.09028109
1747679516.9090924,-0.02178211,0.7052034,-0.6288745,1.7226645,0.5918871,-0.09028109
1747679516.9096112,-0.02178211,0.7052034,-0.6288745,1.7226645,0.5918871,-0.09028109
1747679516.91013,-0.02178211,0.7052034,-0.6288745,1.7226645,0.5918871,-0.09028109
1747679516.9106483,-0.02178211,0.7052034,-0.6288745,1.7226645,0.5918871,-0.09028109
1747679516.9111671,-0.22923078,0.6217358,-0.8939207,1.7226645,0.5918871,-0.09028109
1747679516.9116862,-0.22923078,0.6217358,-0.8939207,1.7226645,0.5918871,-0.09028109
1747679516.9122045,-0.22923078,0.6217358,-0.8939207,1.7226645,0.5918871,-0.09028109
1747679516.9127228,-0.22923078,0.6217358,-0.8939207,1.7780582,0.65260714,-0.1808285
1747679516.913244,-0.22923078,0.6217358,-0.8939207,1.7780582,0.65260714,-0.1808285
1747679516.9137623,-0.22923078,0.6217358,-0.8939207,1.7780582,0.65260714,-0.1808285
1747679516.9142835,-0.22923078,0.6217358,-0.8939207,1.7780582,0.65260714,-0.1808285
1747679516.9148147,-0.22923078,0.6217358,-0.8939207,1.7780582,0.65260714,-0.1808285
1747679516.915341,-0.22923078,0.6217358,-0.8939207,1.7780582,0.65260714,-0.1808285
1747679516.9158595,-0.22923078,0.6217358,-0.8939207,1.7780582,0.65260714,-0.1808285
1747679516.9163778,-0.22923078,0.6217358,-0.8939207,1.7780582,0.65260714,-0.1808285
1747679516.916896,-0.22923078,0.6217358,-0.8939207,1.7780582,0.65260714,-0.1808285
1747679516.9174142,-0.22923078,0.6217358,-0.8939207,1.7780582,0.65260714,-0.1808285
1747679516.9179323,-0.22923078,0.6217358,-0.8939207,1.7780582,0.65260714,-0.1808285
1747679516.9184506,-0.22923078,0.6217358,-0.8939207,1.7780582,0.65260714,-0.1808285
1747679516.9189956,-0.22923078,0.6217358,-0.8939207,1.7780582,0.65260714,-0.1808285
1747679516.9195583,-0.22923078,0.6217358,-0.8939207,1.7780582,0.65260714,-0.1808285
1747679516.9201007,-0.22923078,0.6217358,-0.8939207,1.7780582,0.65260714,-0.1808285
1747679516.920625,-0.22923078,0.6217358,-0.8939207,1.7780582,0.65260714,-0.1808285
1747679516.9211433,-0.22923078,0.6217358,-0.8939207,1.7780582,0.65260714,-0.1808285
1747679516.921662,-0.22923078,0.6217358,-0.8939207,1.7780582,0.65260714,-0.1808285
1747679516.9221835,-0.22923078,0.6217358,-0.8939207,1.7780582,0.65260714,-0.1808285
1747679516.9227247,-0.22923078,0.6217358,-0.8939207,1.7780582,0.65260714,-0.1808285
1747679516.923261,-0.22923078,0.6217358,-0.8939207,1.7780582,0.65260714,-0.1808285
1747679516.9237843,-0.22923078,0.6217358,-0.8939207,1.7780582,0.65260714,-0.1808285
1747679516.9243157,-0.22923078,0.6217358,-0.8939207,1.7780582,0.65260714,-0.1808285
1747679516.9248412,-0.22923078,0.6217358,-0.8939207,1.7780582,0.65260714,-0.1808285
1747679516.9253604,-0.22923078,0.6217358,-0.8939207,1.7780582,0.65260714,-0.1808285
1747679516.925892,-0.22923078,0.6217358,-0.8939207,1.7780582,0.65260714,-0.1808285
1747679516.9264731,-0.22923078,0.6217358,-0.8939207,1.6417044,0.5396892,-0.094542146
1747679516.927017,-0.22923078,0.6217358,-0.8939207,1.6417044,0.5396892,-0.094542146
1747679516.9275446,-0.22923078,0.6217358,-0.8939207,1.6417044,0.5396892,-0.094542146
1747679516.9280674,-0.22923078,0.6217358,-0.8939207,1.6417044,0.5396892,-0.094542146
1747679516.9285898,-0.22923078,0.6217358,-0.8939207,1.6417044,0.5396892,-0.094542146
1747679516.9291117,-0.22923078,0.6217358,-0.8939207,1.6417044,0.5396892,-0.094542146
1747679516.9296381,-0.49037203,0.5773174,-1.1482283,1.6417044,0.5396892,-0.094542146
1747679516.9301622,-0.49037203,0.5773174,-1.1482283,1.6417044,0.5396892,-0.094542146
1747679516.9306874,-0.49037203,0.5773174,-1.1482283,1.6417044,0.5396892,-0.094542146
1747679516.93121,-0.49037203,0.5773174,-1.1482283,1.6417044,0.5396892,-0.094542146
1747679516.9317317,-0.49037203,0.5773174,-1.1482283,1.6417044,0.5396892,-0.094542146
1747679516.9322534,-0.49037203,0.5773174,-1.1482283,1.6417044,0.5396892,-0.094542146
1747679516.9327753,-0.49037203,0.5773174,-1.1482283,1.6417044,0.5396892,-0.094542146
1747679516.933297,-0.49037203,0.5773174,-1.1482283,1.6417044,0.5396892,-0.094542146
1747679516.9338217,-0.49037203,0.5773174,-1.1482283,1.6417044,0.5396892,-0.094542146
1747679516.9344313,-0.49037203,0.5773174,-1.1482283,1.6417044,0.5396892,-0.094542146
1747679516.9349892,-0.49037203,0.5773174,-1.1482283,1.6417044,0.5396892,-0.094542146
1747679516.9355297,-0.64754486,0.5734125,-1.265864,1.6417044,0.5396892,-0.094542146
1747679516.936057,-0.64754486,0.5734125,-1.265864,1.6417044,0.5396892,-0.094542146
1747679516.9366028,-0.64754486,0.5734125,-1.265864,1.6417044,0.5396892,-0.094542146
1747679516.938022,-0.64754486,0.5734125,-1.265864,1.393498,0.27656907,0.14833796
1747679516.938606,-0.64754486,0.5734125,-1.265864,1.393498,0.27656907,0.14833796
1747679516.939169,-0.64754486,0.5734125,-1.265864,1.393498,0.27656907,0.14833796
1747679516.9397235,-0.64754486,0.5734125,-1.265864,1.393498,0.27656907,0.14833796
1747679516.9402606,-0.64754486,0.5734125,-1.265864,1.393498,0.27656907,0.14833796
1747679516.9407842,-0.64754486,0.5734125,-1.265864,1.393498,0.27656907,0.14833796
1747679516.9413066,-0.64754486,0.5734125,-1.265864,1.393498,0.27656907,0.14833796
1747679516.9418285,-0.64754486,0.5734125,-1.265864,1.393498,0.27656907,0.14833796
1747679516.942351,-0.64754486,0.5734125,-1.265864,1.393498,0.27656907,0.14833796
1747679516.9428728,-0.64754486,0.5734125,-1.265864,1.393498,0.27656907,0.14833796
1747679516.943395,-0.64754486,0.5734125,-1.265864,1.393498,0.27656907,0.14833796
1747679516.9439242,-0.64754486,0.5734125,-1.265864,1.393498,0.27656907,0.14833796
1747679516.9444554,-0.64754486,0.5734125,-1.265864,1.393498,0.27656907,0.14833796
1747679516.9449835,-0.64754486,0.5734125,-1.265864,1.393498,0.27656907,0.14833796
1747679516.9455104,-0.6929395,0.58268666,-1.2863648,1.1080073,-0.15166691,0.5105276
1747679516.9460378,-0.6929395,0.58268666,-1.2863648,1.1080073,-0.15166691,0.5105276
1747679516.946561,-0.6929395,0.58268666,-1.2863648,1.1080073,-0.15166691,0.5105276
1747679516.947082,-0.6929395,0.58268666,-1.2863648,1.1080073,-0.15166691,0.5105276
1747679516.9476032,-0.6929395,0.58268666,-1.2863648,1.1080073,-0.15166691,0.5105276
1747679516.9481282,-0.6929395,0.58268666,-1.2863648,1.1080073,-0.15166691,0.5105276
1747679516.9486518,-0.6929395,0.58268666,-1.2863648,1.1080073,-0.15166691,0.5105276
1747679516.9491732,-0.6929395,0.58268666,-1.2863648,1.1080073,-0.15166691,0.5105276
1747679516.9497132,-0.59531665,0.6105092,-1.198016,1.1080073,-0.15166691,0.5105276
1747679516.9502692,-0.59531665,0.6105092,-1.198016,0.8544746,-0.70453876,0.8769783
1747679516.950792,-0.59531665,0.6105092,-1.198016,0.8544746,-0.70453876,0.8769783
1747679516.9513142,-0.59531665,0.6105092,-1.198016,0.8544746,-0.70453876,0.8769783
1747679516.9518354,-0.59531665,0.6105092,-1.198016,0.8544746,-0.70453876,0.8769783
1747679516.9523814,-0.59531665,0.6105092,-1.198016,0.8544746,-0.70453876,0.8769783
1747679516.9529026,-0.59531665,0.6105092,-1.198016,0.8544746,-0.70453876,0.8769783
1747679516.9534261,-0.59531665,0.6105092,-1.198016,0.8544746,-0.70453876,0.8769783
1747679516.9539819,-0.59531665,0.6105092,-1.198016,0.8544746,-0.70453876,0.8769783
1747679516.9545307,-0.59531665,0.6105092,-1.198016,0.8544746,-0.70453876,0.8769783
1747679516.955057,-0.59531665,0.6105092,-1.198016,0.8544746,-0.70453876,0.8769783
1747679516.9555786,-0.59531665,0.6105092,-1.198016,0.8544746,-0.70453876,0.8769783
1747679516.9560995,-0.59531665,0.6105092,-1.198016,0.8544746,-0.70453876,0.8769783
1747679516.9566205,-0.59531665,0.6105092,-1.198016,0.8544746,-0.70453876,0.8769783
1747679516.9571412,-0.59531665,0.6105092,-1.198016,0.8544746,-0.70453876,0.8769783
1747679516.957662,-0.59531665,0.6105092,-1.198016,0.8544746,-0.70453876,0.8769783
1747679516.9581873,-0.59531665,0.6105092,-1.198016,0.8544746,-0.70453876,0.8769783
1747679516.9587133,-0.41910732,0.64370096,-1.0408431,0.69255453,-1.1881684,1.1677953
1747679516.9592435,-0.41910732,0.64370096,-1.0408431,0.69255453,-1.1881684,1.1677953
1747679516.9597855,-0.41910732,0.64370096,-1.0408431,0.69255453,-1.1881684,1.1677953
1747679516.9603066,-0.41910732,0.64370096,-1.0408431,0.69255453,-1.1881684,1.1677953
1747679516.9608252,-0.41910732,0.64370096,-1.0408431,0.69255453,-1.1881684,1.1677953
1747679516.9613435,-0.41910732,0.64370096,-1.0408431,0.69255453,-1.1881684,1.1677953
1747679516.9618611,-0.41910732,0.64370096,-1.0408431,0.69255453,-1.1881684,1.1677953
1747679516.962379,-0.41910732,0.64370096,-1.0408431,0.69255453,-1.1881684,1.1677953
1747679516.962897,-0.41910732,0.64370096,-1.0408431,0.69255453,-1.1881684,1.1677953
1747679516.9634151,-0.41910732,0.64370096,-1.0408431,0.69255453,-1.1881684,1.1677953
1747679516.963933,-0.41910732,0.64370096,-1.0408431,0.69255453,-1.1881684,1.1677953
1747679516.9644892,-0.41910732,0.64370096,-1.0408431,0.69255453,-1.1881684,1.1677953
1747679516.9650507,-0.41910732,0.64370096,-1.0408431,0.69255453,-1.1881684,1.1677953
1747679516.9656053,-0.41910732,0.64370096,-1.0408431,0.69255453,-1.1881684,1.1677953
1747679516.9661655,-0.41910732,0.64370096,-1.0408431,0.69255453,-1.1881684,1.1677953
1747679516.9667158,-0.41910732,0.64370096,-1.0408431,0.69255453,-1.1881684,1.1677953
1747679516.9672577,-0.41910732,0.64370096,-1.0408431,0.69255453,-1.1881684,1.1677953
1747679516.9678023,-0.41910732,0.64370096,-1.0408431,0.69255453,-1.1881684,1.1677953
1747679516.9683402,-0.41910732,0.64370096,-1.0408431,0.69255453,-1.1881684,1.1677953
1747679516.968871,-0.23215947,0.6925124,-0.908076,0.6318345,-1.5024213,1.3797827
1747679516.9694178,-0.23215947,0.6925124,-0.908076,0.6318345,-1.5024213,1.3797827
1747679516.969977,-0.23215947,0.6925124,-0.908076,0.6318345,-1.5024213,1.3797827
1747679516.9705293,-0.23215947,0.6925124,-0.908076,0.6318345,-1.5024213,1.3797827
1747679516.971073,-0.23215947,0.6925124,-0.908076,0.6318345,-1.5024213,1.3797827
1747679516.971606,-0.23215947,0.6925124,-0.908076,0.6318345,-1.5024213,1.3797827
1747679516.9721262,-0.23215947,0.6925124,-0.908076,0.6318345,-1.5024213,1.3797827
1747679516.9726448,-0.23215947,0.6925124,-0.908076,0.6318345,-1.5024213,1.3797827
1747679516.9731636,-0.23215947,0.6925124,-0.908076,0.6318345,-1.5024213,1.3797827
1747679516.9736857,-0.23215947,0.6925124,-0.908076,0.6318345,-1.5024213,1.3797827
1747679516.9742174,-0.23215947,0.6925124,-0.908076,0.6318345,-1.5024213,1.3797827
1747679516.9747436,-0.23215947,0.6925124,-0.908076,0.6318345,-1.5024213,1.3797827
1747679516.9752624,-0.23215947,0.6925124,-0.908076,0.6318345,-1.5024213,1.3797827
1747679516.9757814,-0.23215947,0.6925124,-0.908076,0.6318345,-1.5024213,1.3797827
1747679516.9762995,-0.23215947,0.6925124,-0.908076,0.6318345,-1.5024213,1.3797827
1747679516.9768178,-0.23215947,0.6925124,-0.908076,0.6318345,-1.5024213,1.3797827
1747679516.9773362,-0.23215947,0.6925124,-0.908076,0.6318345,-1.5024213,1.3797827
1747679516.9778545,-0.23215947,0.6925124,-0.908076,0.6318345,-1.5024213,1.3797827
1747679516.9783728,-0.23215947,0.6925124,-0.908076,0.6318345,-1.5024213,1.3797827
1747679516.978891,-0.23215947,0.6925124,-0.908076,0.6318345,-1.5024213,1.3797827
1747679516.9794116,-0.23215947,0.6925124,-0.908076,0.6083987,-1.6654066,1.5022881
1747679516.979959,-0.055950124,0.76036036,-0.80898875,0.6083987,-1.6654066,1.5022881
1747679516.9805067,-0.055950124,0.76036036,-0.80898875,0.6083987,-1.6654066,1.5022881
1747679516.9810312,-0.055950124,0.76036036,-0.80898875,0.6083987,-1.6654066,1.5022881
1747679516.98155,-0.055950124,0.76036036,-0.80898875,0.6083987,-1.6654066,1.5022881
1747679516.9820688,-0.055950124,0.76036036,-0.80898875,0.6083987,-1.6654066,1.5022881
1747679516.9825869,-0.055950124,0.76036036,-0.80898875,0.6083987,-1.6654066,1.5022881
1747679516.9831052,-0.055950124,0.76036036,-0.80898875,0.6083987,-1.6654066,1.5022881
1747679516.9836235,-0.055950124,0.76036036,-0.80898875,0.6083987,-1.6654066,1.5022881
1747679516.984145,-0.055950124,0.76036036,-0.80898875,0.6083987,-1.6654066,1.5022881
1747679516.9846787,-0.055950124,0.76036036,-0.80898875,0.6083987,-1.6654066,1.5022881
1747679516.9852264,-0.055950124,0.76036036,-0.80898875,0.6083987,-1.6654066,1.5022881
1747679516.985764,-0.055950124,0.76036036,-0.80898875,0.6083987,-1.6654066,1.5022881
1747679516.9862843,-0.055950124,0.76036036,-0.80898875,0.6083987,-1.6654066,1.5022881
1747679516.9868026,-0.055950124,0.76036036,-0.80898875,0.6083987,-1.6654066,1.5022881
1747679516.987321,-0.055950124,0.76036036,-0.80898875,0.6083987,-1.6654066,1.5022881
1747679516.9878395,-0.055950124,0.76036036,-0.80898875,0.6083987,-1.6654066,1.5022881
1747679516.9883578,-0.055950124,0.76036036,-0.80898875,0.6083987,-1.6654066,1.5022881
1747679516.988876,-0.055950124,0.76036036,-0.80898875,0.6083987,-1.6654066,1.5022881
1747679516.9893947,-0.055950124,0.76036036,-0.80898875,0.6083987,-1.6654066,1.5022881
1747679516.989913,-0.055950124,0.76036036,-0.80898875,0.6083987,-1.6654066,1.5022881
1747679516.990431,-0.055950124,0.76036036,-0.80898875,0.6083987,-1.6654066,1.5022881
1747679516.9909494,-0.055950124,0.76036036,-0.80898875,0.5870934,-1.6781898,1.5363765
1747679516.9914682,-0.055950124,0.76036036,-0.80898875,0.5870934,-1.6781898,1.5363765
1747679516.991987,-0.055950124,0.76036036,-0.80898875,0.5870934,-1.6781898,1.5363765
1747679516.9925056,0.105615765,0.82869637,-0.74114084,0.5870934,-1.6781898,1.5363765
1747679516.9930243,0.105615765,0.82869637,-0.74114084,0.5870934,-1.6781898,1.5363765
1747679516.9935424,0.105615765,0.82869637,-0.74114084,0.5870934,-1.6781898,1.5363765
1747679516.9940608,0.105615765,0.82869637,-0.74114084,0.5870934,-1.6781898,1.5363765
1747679516.994582,0.105615765,0.82869637,-0.74114084,0.5870934,-1.6781898,1.5363765
1747679516.9951773,0.105615765,0.82869637,-0.74114084,0.5870934,-1.6781898,1.5363765
1747679516.9957488,0.105615765,0.82869637,-0.74114084,0.5870934,-1.6781898,1.5363765
1747679516.996302,0.105615765,0.82869637,-0.74114084,0.5870934,-1.6781898,1.5363765
1747679516.996848,0.105615765,0.82869637,-0.74114084,0.5870934,-1.6781898,1.5363765
1747679516.9973893,0.105615765,0.82869637,-0.74114084,0.5870934,-1.6781898,1.5363765
1747679516.9979224,0.105615765,0.82869637,-0.74114084,0.5870934,-1.6781898,1.5363765
1747679516.998442,0.105615765,0.82869637,-0.74114084,0.5870934,-1.6781898,1.5363765
1747679516.9989605,0.105615765,0.82869637,-0.74114084,0.5870934,-1.6781898,1.5363765
1747679516.999479,0.105615765,0.82869637,-0.74114084,0.5870934,-1.6781898,1.5363765
1747679516.9999976,0.105615765,0.82869637,-0.74114084,0.5870934,-1.6781898,1.5363765
1747679517.0005198,0.105615765,0.82869637,-0.74114084,0.5870934,-1.6781898,1.5363765
1747679517.0010757,0.105615765,0.82869637,-0.74114084,0.5870934,-1.6781898,1.5363765
1747679517.0016289,0.105615765,0.82869637,-0.74114084,0.5870934,-1.6781898,1.5363765
1747679517.002162,0.105615765,0.82869637,-0.74114084,0.5870934,-1.6781898,1.5363765
1747679517.002684,0.105615765,0.82869637,-0.74114084,0.5870934,-1.6781898,1.5363765
1747679517.003205,0.23350178,0.8838534,-0.72405684,0.5870934,-1.6781898,1.5363765
1747679517.0037272,0.23350178,0.8838534,-0.72405684,0.5870934,-1.6781898,1.5363765
1747679517.0042584,0.23350178,0.8838534,-0.72405684,0.5870934,-1.6781898,1.5363765
1747679517.0047848,0.23350178,0.8838534,-0.72405684,0.5870934,-1.6781898,1.5363765
1747679517.0053039,0.23350178,0.8838534,-0.72405684,0.5870934,-1.6781898,1.5363765
1747679517.0058222,0.23350178,0.8838534,-0.72405684,0.5870934,-1.6781898,1.5363765
1747679517.0063403,0.23350178,0.8838534,-0.72405684,0.5870934,-1.6781898,1.5363765
1747679517.0068586,0.23350178,0.8838534,-0.72405684,0.5870934,-1.6781898,1.5363765
1747679517.007377,0.23350178,0.8838534,-0.72405684,0.5870934,-1.6781898,1.5363765
1747679517.007895,0.23350178,0.8838534,-0.72405684,0.5870934,-1.6781898,1.5363765
1747679517.0084128,0.23350178,0.8838534,-0.72405684,0.5870934,-1.6781898,1.5363765
1747679517.0089312,0.23350178,0.8838534,-0.72405684,0.5870934,-1.6781898,1.5363765
1747679517.0094492,0.23350178,0.8838534,-0.72405684,0.5870934,-1.6781898,1.5363765
1747679517.009967,0.23350178,0.8838534,-0.72405684,0.5870934,-1.6781898,1.5363765
1747679517.0105162,0.23350178,0.8838534,-0.72405684,0.5870934,-1.6781898,1.5363765
1747679517.0110362,0.23350178,0.8838534,-0.72405684,0.5870934,-1.6781898,1.5363765
1747679517.011559,0.29353985,0.9199738,-0.746022,0.45287022,-1.384177,1.3957617
1747679517.0120778,0.29353985,0.9199738,-0.746022,0.45287022,-1.384177,1.3957617
1747679517.012596,0.29353985,0.9199738,-0.746022,0.45287022,-1.384177,1.3957617
1747679517.0131142,0.29353985,0.9199738,-0.746022,0.45287022,-1.384177,1.3957617
1747679517.013632,0.29353985,0.9199738,-0.746022,0.45287022,-1.384177,1.3957617
1747679517.0141528,0.29353985,0.9199738,-0.746022,0.45287022,-1.384177,1.3957617
1747679517.0146768,0.29353985,0.9199738,-0.746022,0.45287022,-1.384177,1.3957617
1747679517.0151975,0.29353985,0.9199738,-0.746022,0.45287022,-1.384177,1.3957617
1747679517.0157156,0.29353985,0.9199738,-0.746022,0.45287022,-1.384177,1.3957617
1747679517.0162342,0.29353985,0.9199738,-0.746022,0.45287022,-1.384177,1.3957617
1747679517.0167546,0.29353985,0.9199738,-0.746022,0.45287022,-1.384177,1.3957617
1747679517.0173001,0.29353985,0.9199738,-0.746022,0.45287022,-1.384177,1.3957617
1747679517.017847,0.29353985,0.9199738,-0.746022,0.45287022,-1.384177,1.3957617
1747679517.0183797,0.29353985,0.9199738,-0.746022,0.45287022,-1.384177,1.3957617
1747679517.0188992,0.29353985,0.9199738,-0.746022,0.45287022,-1.384177,1.3957617
1747679517.0194178,0.29353985,0.9199738,-0.746022,0.45287022,-1.384177,1.3957617
1747679517.019936,0.29353985,0.9199738,-0.746022,0.45287022,-1.384177,1.3957617
1747679517.0204546,0.29353985,0.9199738,-0.746022,0.45287022,-1.384177,1.3957617
1747679517.020973,0.29353985,0.9199738,-0.746022,0.45287022,-1.384177,1.3957617
1747679517.021492,0.3462562,0.9692733,-0.7728683,0.2653838,-1.2446274,1.263669
1747679517.0220106,0.3462562,0.9692733,-0.7728683,0.2653838,-1.2446274,1.263669
1747679517.0225294,0.3462562,0.9692733,-0.7728683,0.2653838,-1.2446274,1.263669
1747679517.0230477,0.3462562,0.9692733,-0.7728683,0.2653838,-1.2446274,1.263669
1747679517.0235658,0.3462562,0.9692733,-0.7728683,0.2653838,-1.2446274,1.263669
1747679517.0240839,0.3462562,0.9692733,-0.7728683,0.2653838,-1.2446274,1.263669
1747679517.024605,0.3462562,0.9692733,-0.7728683,0.2653838,-1.2446274,1.263669
1747679517.0251362,0.3462562,0.9692733,-0.7728683,0.2653838,-1.2446274,1.263669
1747679517.0257518,0.3462562,0.9692733,-0.7728683,0.2653838,-1.2446274,1.263669
1747679517.0263083,0.3462562,0.9692733,-0.7728683,0.2653838,-1.2446274,1.263669
1747679517.0268364,0.3462562,0.9692733,-0.7728683,0.2653838,-1.2446274,1.263669
1747679517.0273678,0.3462562,0.9692733,-0.7728683,0.2653838,-1.2446274,1.263669
1747679517.027901,0.3462562,0.9692733,-0.7728683,0.2653838,-1.2446274,1.263669
1747679517.028514,0.3462562,0.9692733,-0.7728683,0.2653838,-1.2446274,1.263669
1747679517.0290327,0.3462562,0.9692733,-0.7728683,0.2653838,-1.2446274,1.263669
1747679517.029551,0.3462562,0.9692733,-0.7728683,0.2653838,-1.2446274,1.263669
1747679517.0300698,0.3462562,0.9692733,-0.7728683,0.2653838,-1.2446274,1.263669
1747679517.030588,0.3462562,0.9692733,-0.7728683,0.2653838,-1.2446274,1.263669
1747679517.0311062,0.3462562,0.9692733,-0.7728683,0.2653838,-1.2446274,1.263669
1747679517.0316274,0.3462562,0.9692733,-0.7728683,0.2653838,-1.2446274,1.263669
1747679517.032173,0.3462562,0.9692733,-0.7728683,0.2653838,-1.2446274,1.263669
1747679517.0327175,0.3462562,0.9692733,-0.7728683,0.2653838,-1.2446274,1.263669
1747679517.0332508,0.3462562,0.9692733,-0.7728683,0.2653838,-1.2446274,1.263669
1747679517.033773,0.3462562,0.9692733,-0.7728683,0.2653838,-1.2446274,1.263669
1747679517.0343046,0.3462562,0.9692733,-0.7728683,0.2653838,-1.2446274,1.263669
1747679517.0348306,0.3462562,0.9692733,-0.7728683,0.2653838,-1.2446274,1.263669
1747679517.0353496,0.3462562,0.9692733,-0.7728683,0.2653838,-1.2446274,1.263669
1747679517.0358686,0.40434185,1.0390737,-0.78458303,-0.03715107,-1.2520843,1.069791
1747679517.0363877,0.40434185,1.0390737,-0.78458303,-0.03715107,-1.2520843,1.069791
1747679517.0369058,0.40434185,1.0390737,-0.78458303,-0.03715107,-1.2520843,1.069791
1747679517.0374722,0.40434185,1.0390737,-0.78458303,-0.03715107,-1.2520843,1.069791
1747679517.0379925,0.40434185,1.0390737,-0.78458303,-0.03715107,-1.2520843,1.069791
1747679517.0385122,0.40434185,1.0390737,-0.78458303,-0.03715107,-1.2520843,1.069791
1747679517.0390308,0.40434185,1.0390737,-0.78458303,-0.03715107,-1.2520843,1.069791
1747679517.0395494,0.40434185,1.0390737,-0.78458303,-0.03715107,-1.2520843,1.069791
1747679517.04007,0.40434185,1.0390737,-0.78458303,-0.03715107,-1.2520843,1.069791
1747679517.040591,0.40434185,1.0390737,-0.78458303,-0.32583752,-1.347958,0.8737825
1747679517.041131,0.3828648,1.0673844,-0.7733564,-0.32583752,-1.347958,0.8737825
1747679517.0416749,0.3828648,1.0673844,-0.7733564,-0.32583752,-1.347958,0.8737825
1747679517.0422075,0.3828648,1.0673844,-0.7733564,-0.32583752,-1.347958,0.8737825
1747679517.0427275,0.3828648,1.0673844,-0.7733564,-0.32583752,-1.347958,0.8737825
1747679517.0432458,0.3828648,1.0673844,-0.7733564,-0.32583752,-1.347958,0.8737825
1747679517.043767,0.3828648,1.0673844,-0.7733564,-0.32583752,-1.347958,0.8737825
1747679517.0442934,0.3828648,1.0673844,-0.7733564,-0.32583752,-1.347958,0.8737825
1747679517.0448294,0.3828648,1.0673844,-0.7733564,-0.32583752,-1.347958,0.8737825
1747679517.0453565,0.3828648,1.0673844,-0.7733564,-0.32583752,-1.347958,0.8737825
1747679517.045878,0.3828648,1.0673844,-0.7733564,-0.32583752,-1.347958,0.8737825
1747679517.0463986,0.3828648,1.0673844,-0.7733564,-0.32583752,-1.347958,0.8737825
1747679517.0469193,0.3828648,1.0673844,-0.7733564,-0.32583752,-1.347958,0.8737825
1747679517.0474432,0.3828648,1.0673844,-0.7733564,-0.32583752,-1.347958,0.8737825
1747679517.0479937,0.3828648,1.0673844,-0.7733564,-0.32583752,-1.347958,0.8737825
1747679517.048534,0.3828648,1.0673844,-0.7733564,-0.32583752,-1.347958,0.8737825
1747679517.0490642,0.3828648,1.0673844,-0.7733564,-0.32583752,-1.347958,0.8737825
1747679517.0495918,0.3828648,1.0673844,-0.7733564,-0.32583752,-1.347958,0.8737825
1747679517.0501156,0.3828648,1.0673844,-0.7733564,-0.64967763,-1.4342444,0.7374288
1747679517.0506377,0.2945161,1.0581101,-0.72405684,-0.64967763,-1.4342444,0.7374288
1747679517.0511591,0.2945161,1.0581101,-0.72405684,-0.64967763,-1.4342444,0.7374288
1747679517.0516806,0.2945161,1.0581101,-0.72405684,-0.64967763,-1.4342444,0.7374288
1747679517.0522015,0.2945161,1.0581101,-0.72405684,-0.64967763,-1.4342444,0.7374288
1747679517.0527225,0.2945161,1.0581101,-0.72405684,-0.64967763,-1.4342444,0.7374288
1747679517.0532434,0.2945161,1.0581101,-0.72405684,-0.64967763,-1.4342444,0.7374288
1747679517.0537672,0.2945161,1.0581101,-0.72405684,-0.64967763,-1.4342444,0.7374288
1747679517.0543032,0.2945161,1.0581101,-0.72405684,-0.64967763,-1.4342444,0.7374288
1747679517.05483,0.2945161,1.0581101,-0.72405684,-0.64967763,-1.4342444,0.7374288
1747679517.0553513,0.2945161,1.0581101,-0.72405684,-0.64967763,-1.4342444,0.7374288
1747679517.0558724,0.2945161,1.0581101,-0.72405684,-0.64967763,-1.4342444,0.7374288
1747679517.056459,0.2945161,1.0581101,-0.72405684,-0.64967763,-1.4342444,0.7374288
1747679517.0570228,0.2945161,1.0581101,-0.72405684,-0.64967763,-1.4342444,0.7374288
1747679517.057564,0.2945161,1.0581101,-0.72405684,-0.64967763,-1.4342444,0.7374288
1747679517.0581028,0.2945161,1.0581101,-0.72405684,-0.64967763,-1.4342444,0.7374288
1747679517.0586445,0.2945161,1.0581101,-0.72405684,-0.64967763,-1.4342444,0.7374288
1747679517.0591795,0.18615466,1.0215017,-0.6283864,-0.97138727,-1.4459622,0.7246456
1747679517.0597284,0.18615466,1.0215017,-0.6283864,-0.97138727,-1.4459622,0.7246456
1747679517.060249,0.18615466,1.0215017,-0.6283864,-0.97138727,-1.4459622,0.7246456
1747679517.060768,0.18615466,1.0215017,-0.6283864,-0.97138727,-1.4459622,0.7246456
1747679517.0612864,0.18615466,1.0215017,-0.6283864,-0.97138727,-1.4459622,0.7246456
1747679517.061805,0.18615466,1.0215017,-0.6283864,-0.97138727,-1.4459622,0.7246456
1747679517.062323,0.18615466,1.0215017,-0.6283864,-0.97138727,-1.4459622,0.7246456
1747679517.0628417,0.18615466,1.0215017,-0.6283864,-0.97138727,-1.4459622,0.7246456
1747679517.0633626,0.18615466,1.0215017,-0.6283864,-0.97138727,-1.4459622,0.7246456
1747679517.0639434,0.18615466,1.0215017,-0.6283864,-0.97138727,-1.4459622,0.7246456
1747679517.064495,0.18615466,1.0215017,-0.6283864,-0.97138727,-1.4459622,0.7246456
1747679517.0650275,0.18615466,1.0215017,-0.6283864,-0.97138727,-1.4459622,0.7246456
1747679517.065547,0.18615466,1.0215017,-0.6283864,-0.97138727,-1.4459622,0.7246456
1747679517.066066,0.18615466,1.0215017,-0.6283864,-0.97138727,-1.4459622,0.7246456
1747679517.0665843,0.18615466,1.0215017,-0.6283864,-0.97138727,-1.4459622,0.7246456
1747679517.0671027,0.18615466,1.0215017,-0.6283864,-0.97138727,-1.4459622,0.7246456
1747679517.0676208,0.18615466,1.0215017,-0.6283864,-0.97138727,-1.4459622,0.7246456
1747679517.0681398,0.18615466,1.0215017,-0.6283864,-0.97138727,-1.4459622,0.7246456
1747679517.068658,0.18615466,1.0215017,-0.6283864,-0.97138727,-1.4459622,0.7246456
1747679517.0691772,0.18615466,1.0215017,-0.6283864,-1.2153326,-1.3948296,0.82584566
1747679517.0696955,0.18615466,1.0215017,-0.6283864,-1.2153326,-1.3948296,0.82584566
1747679517.070218,0.18615466,1.0215017,-0.6283864,-1.2153326,-1.3948296,0.82584566
1747679517.0707362,0.18615466,1.0215017,-0.6283864,-1.2153326,-1.3948296,0.82584566
1747679517.0712545,0.18615466,1.0215017,-0.6283864,-1.2153326,-1.3948296,0.82584566
1747679517.071792,0.11244938,0.9756189,-0.4497365,-1.2153326,-1.3948296,0.82584566
1747679517.0723324,0.11244938,0.9756189,-0.4497365,-1.2153326,-1.3948296,0.82584566
1747679517.0728586,0.11244938,0.9756189,-0.4497365,-1.2153326,-1.3948296,0.82584566
1747679517.0733783,0.11244938,0.9756189,-0.4497365,-1.2153326,-1.3948296,0.82584566
1747679517.073897,0.11244938,0.9756189,-0.4497365,-1.2153326,-1.3948296,0.82584566
1747679517.0744178,0.11244938,0.9756189,-0.4497365,-1.2153326,-1.3948296,0.82584566
1747679517.0749414,0.11244938,0.9756189,-0.4497365,-1.2153326,-1.3948296,0.82584566
1747679517.0754619,0.11244938,0.9756189,-0.4497365,-1.2153326,-1.3948296,0.82584566
1747679517.0759804,0.11244938,0.9756189,-0.4497365,-1.2153326,-1.3948296,0.82584566
1747679517.076499,0.11244938,0.9756189,-0.4497365,-1.2153326,-1.3948296,0.82584566
1747679517.0770175,0.11244938,0.9756189,-0.4497365,-1.2153326,-1.3948296,0.82584566
1747679517.0775356,0.11244938,0.9756189,-0.4497365,-1.2153326,-1.3948296,0.82584566
1747679517.0780568,0.11244938,0.9756189,-0.4497365,-1.2153326,-1.3948296,0.82584566
1747679517.0785751,0.11244938,0.9756189,-0.4497365,-1.2153326,-1.3948296,0.82584566
1747679517.0790958,0.11244938,0.9756189,-0.4497365,-1.2153326,-1.3948296,0.82584566
1747679517.0796313,0.11244938,0.9756189,-0.4497365,-1.2153326,-1.3948296,0.82584566
1747679517.0801775,0.06656662,0.9199738,-0.2588837,-1.2153326,-1.3948296,0.82584566
1747679517.0807493,0.06656662,0.9199738,-0.2588837,-1.3090758,-1.3447622,0.9909615
1747679517.0812836,0.06656662,0.9199738,-0.2588837,-1.3090758,-1.3447622,0.9909615
1747679517.0818036,0.06656662,0.9199738,-0.2588837,-1.3090758,-1.3447622,0.9909615
1747679517.082322,0.06656662,0.9199738,-0.2588837,-1.3090758,-1.3447622,0.9909615
1747679517.0828407,0.06656662,0.9199738,-0.2588837,-1.3090758,-1.3447622,0.9909615
1747679517.0833588,0.06656662,0.9199738,-0.2588837,-1.3090758,-1.3447622,0.9909615
1747679517.0838802,0.06656662,0.9199738,-0.2588837,-1.3090758,-1.3447622,0.9909615
1747679517.0844119,0.06656662,0.9199738,-0.2588837,-1.3090758,-1.3447622,0.9909615
1747679517.0849378,0.06656662,0.9199738,-0.2588837,-1.3090758,-1.3447622,0.9909615
1747679517.0854564,0.06656662,0.9199738,-0.2588837,-1.3090758,-1.3447622,0.9909615
1747679517.0859916,0.06656662,0.9199738,-0.2588837,-1.3090758,-1.3447622,0.9909615
1747679517.0865252,0.06656662,0.9199738,-0.2588837,-1.3090758,-1.3447622,0.9909615
1747679517.087083,0.06656662,0.9199738,-0.2588837,-1.3090758,-1.3447622,0.9909615
1747679517.0876448,0.06656662,0.9199738,-0.2588837,-1.3090758,-1.3447622,0.9909615
1747679517.0881953,0.06656662,0.9199738,-0.2588837,-1.3090758,-1.3447622,0.9909615
1747679517.0887442,0.06656662,0.9199738,-0.2588837,-1.3090758,-1.3447622,0.9909615
1747679517.0892832,0.046065807,0.87262666,-0.05729244,-1.3090758,-1.3447622,0.9909615
1747679517.0898142,0.046065807,0.87262666,-0.05729244,-1.2142674,-1.4140043,1.2359722
1747679517.0903337,0.046065807,0.87262666,-0.05729244,-1.2142674,-1.4140043,1.2359722
1747679517.0908525,0.046065807,0.87262666,-0.05729244,-1.2142674,-1.4140043,1.2359722
1747679517.0913715,0.046065807,0.87262666,-0.05729244,-1.2142674,-1.4140043,1.2359722
1747679517.0918899,0.046065807,0.87262666,-0.05729244,-1.2142674,-1.4140043,1.2359722
1747679517.0924087,0.046065807,0.87262666,-0.05729244,-1.2142674,-1.4140043,1.2359722
1747679517.0929272,0.046065807,0.87262666,-0.05729244,-1.2142674,-1.4140043,1.2359722
1747679517.0934453,0.046065807,0.87262666,-0.05729244,-1.2142674,-1.4140043,1.2359722
1747679517.0939674,0.046065807,0.87262666,-0.05729244,-1.2142674,-1.4140043,1.2359722
1747679517.0945,0.046065807,0.87262666,-0.05729244,-1.2142674,-1.4140043,1.2359722
1747679517.0950294,0.046065807,0.87262666,-0.05729244,-1.2142674,-1.4140043,1.2359722
1747679517.0955834,0.046065807,0.87262666,-0.05729244,-1.2142674,-1.4140043,1.2359722
1747679517.0961373,0.046065807,0.87262666,-0.05729244,-1.2142674,-1.4140043,1.2359722
1747679517.096674,0.046065807,0.87262666,-0.05729244,-1.2142674,-1.4140043,1.2359722
1747679517.0971982,0.046065807,0.87262666,-0.05729244,-1.2142674,-1.4140043,1.2359722
1747679517.0977204,0.046065807,0.87262666,-0.05729244,-1.2142674,-1.4140043,1.2359722
1747679517.098242,0.046065807,0.87262666,-0.05729244,-1.2142674,-1.4140043,1.2359722
1747679517.098764,0.046065807,0.87262666,-0.05729244,-1.2142674,-1.4140043,1.2359722
1747679517.0992854,0.046065807,0.87262666,-0.05729244,-1.2142674,-1.4140043,1.2359722
1747679517.099807,0.046065807,0.87262666,-0.05729244,-1.2142674,-1.4140043,1.2359722
1747679517.1003332,0.046065807,0.87262666,-0.05729244,-1.2142674,-1.4140043,1.2359722
1747679517.1008568,0.046065807,0.87262666,-0.05729244,-1.2142674,-1.4140043,1.2359722
1747679517.101379,0.046065807,0.87262666,-0.05729244,-1.2142674,-1.4140043,1.2359722
1747679517.1019003,0.046065807,0.87262666,-0.05729244,-1.2142674,-1.4140043,1.2359722
1747679517.1024683,0.046065807,0.87262666,-0.05729244,-1.2142674,-1.4140043,1.2359722
1747679517.103049,0.046065807,0.87262666,-0.05729244,-1.2142674,-1.4140043,1.2359722
1747679517.103587,0.07925759,0.8521258,0.0349612,-1.0779136,-1.4992254,1.3691301
1747679517.104113,0.07925759,0.8521258,0.0349612,-1.0779136,-1.4992254,1.3691301
1747679517.1046371,0.07925759,0.8521258,0.0349612,-1.0779136,-1.4992254,1.3691301
1747679517.1051583,0.07925759,0.8521258,0.0349612,-1.0779136,-1.4992254,1.3691301
1747679517.1056778,0.07925759,0.8521258,0.0349612,-1.0779136,-1.4992254,1.3691301
1747679517.1061962,0.07925759,0.8521258,0.0349612,-1.0779136,-1.4992254,1.3691301
1747679517.1067147,0.07925759,0.8521258,0.0349612,-1.0779136,-1.4992254,1.3691301
1747679517.1072328,0.07925759,0.8521258,0.0349612,-1.0779136,-1.4992254,1.3691301
1747679517.1077511,0.07925759,0.8521258,0.0349612,-1.0779136,-1.4992254,1.3691301
1747679517.1082692,0.07925759,0.8521258,0.0349612,-1.0779136,-1.4992254,1.3691301
1747679517.1087878,0.07925759,0.8521258,0.0349612,-1.0779136,-1.4992254,1.3691301
1747679517.1093056,0.07925759,0.8521258,0.0349612,-1.0779136,-1.4992254,1.3691301
1747679517.109824,0.07925759,0.8521258,0.0349612,-1.0779136,-1.4992254,1.3691301
1747679517.1103446,0.07925759,0.8521258,0.0349612,-1.0779136,-1.4992254,1.3691301
1747679517.1108928,0.07925759,0.8521258,0.0349612,-1.0779136,-1.4992254,1.3691301
1747679517.1114364,0.07925759,0.8521258,0.0349612,-1.0779136,-1.4992254,1.3691301
1747679517.1119692,0.07925759,0.8521258,0.0349612,-1.0779136,-1.4992254,1.3691301
1747679517.1124892,0.07925759,0.8521258,0.0349612,-1.0779136,-1.4992254,1.3691301
1747679517.1130345,0.07925759,0.8521258,0.0349612,-1.0779136,-1.4992254,1.3691301
1747679517.1135564,0.25741938,0.83894676,0.17016892,-0.72424614,-1.7612803,1.522528
1747679517.1140888,0.25741938,0.83894676,0.17016892,-0.72424614,-1.7612803,1.522528
1747679517.1146147,0.25741938,0.83894676,0.17016892,-0.72424614,-1.7612803,1.522528
1747679517.1151338,0.25741938,0.83894676,0.17016892,-0.72424614,-1.7612803,1.522528
1747679517.1156523,0.25741938,0.83894676,0.17016892,-0.72424614,-1.7612803,1.522528
1747679517.1161711,0.25741938,0.83894676,0.17016892,-0.72424614,-1.7612803,1.522528
1747679517.1166894,0.25741938,0.83894676,0.17016892,-0.72424614,-1.7612803,1.522528
