timestamp,acc_x,acc_y,acc_z,gyro_x,gyro_y,gyro_z
1747672459.1411936,-0.22630209,1.027359,-0.024100652,0.09800425,-0.42770335,-0.06351634
1747672459.142073,-0.22630209,1.027359,-0.024100652,0.09800425,-0.42770335,-0.06351634
1747672459.1430614,-0.22630209,1.027359,-0.024100652,0.09800425,-0.42770335,-0.06351634
1747672459.199871,-0.11745255,1.1615905,0.11794066,0.12570111,0.030360013,-0.16791219
1747672459.200791,-0.11745255,1.1615905,0.11794066,0.12570111,0.030360013,-0.16791219
1747672459.20167,-0.11745255,1.1615905,0.11794066,0.12570111,0.030360013,-0.16791219
1747672459.2025132,-0.11745255,1.1615905,0.11794066,0.12570111,0.030360013,-0.16791219
1747672459.2033558,-0.11745255,1.1615905,0.11794066,0.12570111,0.030360013,-0.16791219
1747672459.2041993,-0.11745255,1.1615905,0.11794066,0.12570111,0.030360013,-0.16791219
1747672459.2514467,-0.20677751,1.1088741,-0.0031117299,0.49747813,-0.74941295,0.018508956
1747672459.2524538,-0.20677751,1.1088741,-0.0031117299,0.49747813,-0.74941295,0.018508956
1747672459.2806509,-0.3493069,0.9614635,-0.040696546,0.34727594,-0.458596,0.2486059
1747672459.2821949,-0.3493069,0.9614635,-0.040696546,0.34727594,-0.458596,0.2486059
1747672459.2837179,-0.3493069,0.9614635,-0.040696546,0.32703593,-0.35206965,0.35832804
1747672459.2849722,-0.3493069,0.9614635,-0.040696546,0.32703593,-0.35206965,0.35832804
1747672459.285715,-0.3493069,0.9614635,-0.040696546,0.32703593,-0.35206965,0.35832804
1747672459.3208616,0.07486456,0.87848413,0.0051862164,0.3888212,-0.38935387,0.23901853
1747672459.3219972,0.07486456,0.87848413,0.0051862164,0.3888212,-0.38935387,0.23901853
1747672459.3227146,0.07486456,0.87848413,0.0051862164,0.3888212,-0.38935387,0.23901853
1747672459.3234844,0.07486456,0.87848413,0.0051862164,0.3888212,-0.38935387,0.23901853
1747672459.3242106,0.048994493,0.8501734,0.051068977,0.3888212,-0.38935387,0.23901853
1747672459.3249102,0.048994493,0.8501734,0.051068977,0.3888212,-0.38935387,0.23901853
1747672459.3256102,0.048994493,0.8501734,0.051068977,0.49108654,-0.56192654,0.0611195
1747672459.326283,0.048994493,0.8501734,0.051068977,0.49108654,-0.56192654,0.0611195
1747672459.3269596,0.048994493,0.8501734,0.051068977,0.49108654,-0.56192654,0.0611195
1747672459.3276818,0.048994493,0.8501734,0.051068977,0.49108654,-0.56192654,0.0611195
1747672459.3283703,0.048994493,0.8501734,0.051068977,0.49108654,-0.56192654,0.0611195
1747672459.3290637,0.048994493,0.8501734,0.051068977,0.49108654,-0.56192654,0.0611195
1747672459.3298194,0.048994493,0.8501734,0.051068977,0.49108654,-0.56192654,0.0611195
1747672459.3307707,0.048994493,0.8501734,0.051068977,0.49108654,-0.56192654,0.0611195
1747672459.361964,-0.18627669,0.76963454,0.01201982,0.7904256,-0.83250356,0.11225215
1747672459.3640084,-0.18627669,0.76963454,0.01201982,0.7904256,-0.83250356,0.11225215
1747672459.364775,-0.18627669,0.76963454,0.01201982,0.7904256,-0.83250356,0.11225215
1747672459.365484,-0.18627669,0.76963454,0.01201982,0.7904256,-0.83250356,0.11225215
1747672459.3960028,-0.08474888,0.5870797,-0.2310612,0.6711161,-0.8889625,0.451006
1747672459.3979294,-0.08474888,0.5870797,-0.2310612,0.6711161,-0.8889625,0.451006
1747672459.3987727,-0.08474888,0.5870797,-0.2310612,0.6711161,-0.8889625,0.451006
1747672459.399495,-0.08474888,0.5870797,-0.2310612,0.6711161,-0.8889625,0.451006
1747672459.400195,-0.08474888,0.5870797,-0.2310612,0.6711161,-0.8889625,0.451006
1747672459.4011693,-0.08474888,0.5870797,-0.2310612,0.6711161,-0.8889625,0.451006
1747672459.4028423,-0.08474888,0.5870797,-0.2310612,0.6711161,-0.8889625,0.451006
1747672459.4036443,-0.05887881,0.47432527,-0.27596775,0.47936863,-0.927312,0.5767071
1747672459.4043663,-0.05887881,0.47432527,-0.27596775,0.47936863,-0.927312,0.5767071
1747672459.4050763,-0.05887881,0.47432527,-0.27596775,0.47936863,-0.927312,0.5767071
1747672459.4057608,-0.05887881,0.47432527,-0.27596775,0.47936863,-0.927312,0.5767071
1747672459.4064302,-0.05887881,0.47432527,-0.27596775,0.47936863,-0.927312,0.5767071
1747672459.4070947,-0.05887881,0.47432527,-0.27596775,0.47936863,-0.927312,0.5767071
1747672459.4077618,-0.05887881,0.47432527,-0.27596775,0.47936863,-0.927312,0.5767071
1747672459.4085176,-0.05887881,0.47432527,-0.27596775,0.47936863,-0.927312,0.5767071
1747672459.4093714,-0.05887881,0.47432527,-0.27596775,0.47936863,-0.927312,0.5767071
1747672459.4405284,0.17346369,0.11458488,-0.30964765,-0.10865689,-1.3534174,0.9026778
1747672459.4414515,0.17346369,0.11458488,-0.30964765,-0.10865689,-1.3534174,0.9026778
1747672459.4422412,0.17346369,0.11458488,-0.30964765,-0.10865689,-1.3534174,0.9026778
1747672459.4430099,0.17346369,0.11458488,-0.30964765,-0.10865689,-1.3534174,0.9026778
1747672459.443766,0.17346369,0.11458488,-0.30964765,-0.10865689,-1.3534174,0.9026778
1747672459.4444966,0.17346369,0.11458488,-0.30964765,-0.10865689,-1.3534174,0.9026778
1747672459.4452329,0.17346369,0.11458488,-0.30964765,-0.10865689,-1.3534174,0.9026778
1747672459.4459639,0.17346369,0.11458488,-0.30964765,-0.10865689,-1.3534174,0.9026778
1747672459.4466977,0.17346369,0.11458488,-0.30964765,-0.42290968,-1.371527,1.0294441
1747672459.4477258,0.20519114,-0.015741693,-0.27303904,-0.42290968,-1.371527,1.0294441
1747672459.4487154,0.20519114,-0.015741693,-0.27303904,-0.42290968,-1.371527,1.0294441
1747672459.4497032,0.20519114,-0.015741693,-0.27303904,-0.42290968,-1.371527,1.0294441
1747672459.4506986,0.20519114,-0.015741693,-0.27303904,-0.42290968,-1.371527,1.0294441
1747672459.4516966,0.20519114,-0.015741693,-0.27303904,-0.42290968,-1.371527,1.0294441
1747672459.4527025,0.20519114,-0.015741693,-0.27303904,-0.42290968,-1.371527,1.0294441
1747672459.4536984,0.20519114,-0.015741693,-0.27303904,-0.42290968,-1.371527,1.0294441
1747672459.454712,0.20519114,-0.015741693,-0.27303904,-0.42290968,-1.371527,1.0294441
1747672459.4557111,0.20519114,-0.015741693,-0.27303904,-0.42290968,-1.371527,1.0294441
1747672459.456711,0.20519114,-0.015741693,-0.27303904,-0.42290968,-1.371527,1.0294441
1747672459.5180633,0.20177433,-0.40818575,0.23460004,-1.1835079,-1.1254511,2.1543624
1747672459.624825,1.082821,-1.1266904,0.06717676,-1.7576851,-1.4652702,5.632448
1747672459.6259928,1.2800193,-1.1901451,0.17749064,-1.9387798,-1.6058849,6.0969033
1747672459.6545868,1.905782,-1.1232735,0.5821375,-2.004826,-2.0532956,6.9224825
1747672459.6553676,2.2098773,-1.0686047,0.7095354,-1.9121482,-2.175801,7.09399
1747672459.6561403,2.2098773,-1.0686047,0.7095354,-1.9121482,-2.175801,7.09399
1747672459.6569426,2.2098773,-1.0686047,0.7095354,-1.9121482,-2.175801,7.09399
1747672459.6828504,2.61306,-1.0490801,0.7773833,-1.6575502,-2.3249378,7.3134346
1747672459.6844354,3.1016626,-0.97439855,0.74028665,-1.4604764,-2.2546306,7.3134346
1747672459.6852515,3.1016626,-0.97439855,0.74028665,-1.4604764,-2.2546306,7.3134346
1747672459.6860318,3.1016626,-0.97439855,0.74028665,-1.4604764,-2.2546306,7.3134346
1747672459.6867778,3.1016626,-0.97439855,0.74028665,-1.4604764,-2.2546306,7.3134346
1747672459.687535,3.303254,-0.8094159,0.724667,-1.3922995,-2.1065588,7.2207565
1747672459.6880977,3.303254,-0.8094159,0.724667,-1.3922995,-2.1065588,7.2207565
1747672459.6889575,3.303254,-0.8094159,0.724667,-1.3922995,-2.1065588,7.2207565
1747672459.689761,3.303254,-0.8094159,0.724667,-1.3922995,-2.1065588,7.2207565
1747672459.6902814,3.303254,-0.8094159,0.724667,-1.3922995,-2.1065588,7.2207565
1747672459.7182984,4.0046744,-0.26614442,0.53771913,-1.9611504,-1.1669964,7.304912
1747672459.7192943,4.0046744,-0.26614442,0.53771913,-1.9611504,-1.1669964,7.304912
1747672459.720309,4.0046744,-0.26614442,0.53771913,-1.9611504,-1.1669964,7.304912
1747672459.7474334,4.935021,-0.6317422,0.32636556,-3.3886037,-0.60240656,6.1182084
1747672459.7484496,4.935021,-0.6317422,0.32636556,-3.3886037,-0.60240656,6.1182084
1747672459.7494404,4.935021,-0.6317422,0.32636556,-3.3886037,-0.60240656,6.1182084
1747672459.7504435,4.935021,-0.6317422,0.32636556,-3.3886037,-0.60240656,6.1182084
1747672459.7777054,4.029568,-0.7415679,0.30391228,-3.9851513,-0.72278136,5.6452317
1747672459.7794383,3.5575616,-0.9309564,0.6104482,-4.969455,-0.2476738,5.505682
1747672459.7804472,3.5575616,-0.9309564,0.6104482,-4.969455,-0.2476738,5.505682
1747672459.8102322,3.2710383,-1.1179042,1.3201666,-5.119657,-0.06870951,5.74004
1747672459.8112237,3.2710383,-1.1179042,1.3201666,-5.119657,-0.06870951,5.74004
1747672459.8120263,3.2710383,-1.1179042,1.3201666,-5.119657,-0.06870951,5.74004
1747672459.8128161,3.2710383,-1.1179042,1.3201666,-5.119657,-0.06870951,5.74004
1747672459.813771,3.6673872,-0.6024553,2.0938282,-2.3787336,-1.3502216,6.2982383
1747672459.8396208,3.6673872,-0.6024553,2.0938282,-0.67537713,-2.2173462,6.091577
1747672459.8406215,3.6673872,-0.6024553,2.0938282,-0.67537713,-2.2173462,6.091577
1747672459.8416378,3.6673872,-0.6024553,2.0938282,-0.67537713,-2.2173462,6.091577
1747672459.842633,3.6673872,-0.6024553,2.0938282,-0.67537713,-2.2173462,6.091577
1747672459.8496175,3.6673872,-0.6024553,2.0938282,-0.67537713,-2.2173462,6.091577
1747672459.8645868,4.3400087,0.64370096,0.1189169,-1.0578068,-1.7869798,5.4076777
1747672459.8737524,4.3400087,0.64370096,0.1189169,-1.0578068,-1.7869798,5.4076777
1747672459.87469,4.3400087,0.64370096,0.1189169,-1.0578068,-1.7869798,5.4076777
1747672459.8755398,4.05495,0.75303864,-0.14076002,-1.9451714,-1.1563437,4.9016776
1747672459.876368,4.05495,0.75303864,-0.14076002,-1.9451714,-1.1563437,4.9016776
1747672459.8772306,4.05495,0.75303864,-0.14076002,-1.9451714,-1.1563437,4.9016776
1747672459.8780026,4.05495,0.75303864,-0.14076002,-1.9451714,-1.1563437,4.9016776
1747672459.8785403,4.05495,0.75303864,-0.14076002,-2.7505107,-0.77391404,4.456397
1747672459.907709,2.8356402,0.993191,0.852553,-4.0298924,-0.29774117,3.7437358
1747672459.908713,2.5007935,1.1445065,1.3958244,-3.9084523,-0.15073481,3.5935338
1747672459.909703,2.5007935,1.1445065,1.3958244,-3.9084523,-0.15073481,3.5935338
1747672459.9107108,2.5007935,1.1445065,1.3958244,-3.9084523,-0.15073481,3.5935338
1747672459.9117131,2.5007935,1.1445065,1.3958244,-3.9084523,-0.15073481,3.5935338
1747672459.914272,2.5007935,1.1445065,1.3958244,-3.9084523,-0.15073481,3.5935338
1747672459.9174984,2.5007935,1.1445065,1.3958244,-3.9084523,-0.15073481,3.5935338
1747672459.9206128,2.2850468,1.295822,1.8024237,-3.3204267,-0.13582112,3.3463926
1747672459.921511,2.2850468,1.295822,1.8024237,-3.3204267,-0.13582112,3.3463926
1747672459.933264,2.2850468,1.295822,1.8024237,-3.3204267,-0.13582112,3.3463926
1747672459.9350374,2.2850468,1.295822,1.8024237,-3.3204267,-0.13582112,3.3463926
1747672459.9407167,1.8774714,1.624323,1.8390324,-1.3976259,-0.2998717,2.5218785
1747672459.9420645,1.8774714,1.624323,1.8390324,-1.3976259,-0.2998717,2.5218785
1747672459.943053,1.6607486,1.730732,1.504674,-0.5060002,-0.33715594,1.9732678
1747672459.9440587,1.6607486,1.730732,1.504674,-0.5060002,-0.33715594,1.9732678
1747672459.9450521,1.6607486,1.730732,1.504674,-0.5060002,-0.33715594,1.9732678
1747672459.9460404,1.6607486,1.730732,1.504674,-0.5060002,-0.33715594,1.9732678
1747672459.9470372,1.6607486,1.730732,1.504674,-0.5060002,-0.33715594,1.9732678
1747672459.9480433,1.6607486,1.730732,1.504674,-0.5060002,-0.33715594,1.9732678
1747672459.9490416,1.6607486,1.730732,1.504674,-0.5060002,-0.33715594,1.9732678
1747672459.9500499,1.6607486,1.730732,1.504674,-0.5060002,-0.33715594,1.9732678
1747672459.951054,1.6607486,1.730732,1.504674,-0.5060002,-0.33715594,1.9732678
1747672459.952059,1.6607486,1.730732,1.504674,-0.5060002,-0.33715594,1.9732678
1747672459.9530463,1.6607486,1.730732,1.504674,-0.5060002,-0.33715594,1.9732678
1747672459.9540591,1.6607486,1.730732,1.504674,-0.5060002,-0.33715594,1.9732678
1747672459.9550529,1.6607486,1.730732,1.504674,-0.5060002,-0.33715594,1.9732678
1747672459.956045,1.3673918,1.782472,1.0521919,0.12144005,-0.1976064,1.388438
1747672459.9570541,1.3673918,1.782472,1.0521919,0.12144005,-0.1976064,1.388438
1747672459.9580553,1.3673918,1.782472,1.0521919,0.12144005,-0.1976064,1.388438
1747672459.9590516,1.3673918,1.782472,1.0521919,0.12144005,-0.1976064,1.388438
1747672459.9600532,1.3673918,1.782472,1.0521919,0.12144005,-0.1976064,1.388438
1747672459.9610467,1.3673918,1.782472,1.0521919,0.12144005,-0.1976064,1.388438
1747672459.962046,1.3673918,1.782472,1.0521919,0.12144005,-0.1976064,1.388438
1747672459.963051,1.3673918,1.782472,1.0521919,0.12144005,-0.1976064,1.388438
1747672459.964055,1.3673918,1.782472,1.0521919,0.12144005,-0.1976064,1.388438
1747672459.9650455,1.3673918,1.782472,1.0521919,0.12144005,-0.1976064,1.388438
1747672459.9660466,1.3673918,1.782472,1.0521919,0.12144005,-0.1976064,1.388438
1747672459.9670706,1.3673918,1.782472,1.0521919,0.12144005,-0.1976064,1.388438
1747672459.9680483,1.1140603,1.7858889,0.80130094,0.36538544,-0.042077914,1.0677936
1747672459.969045,1.1140603,1.7858889,0.80130094,0.36538544,-0.042077914,1.0677936
1747672459.9700527,1.1140603,1.7858889,0.80130094,0.36538544,-0.042077914,1.0677936
1747672459.971044,1.1140603,1.7858889,0.80130094,0.36538544,-0.042077914,1.0677936
1747672459.9720404,1.1140603,1.7858889,0.80130094,0.36538544,-0.042077914,1.0677936
1747672459.9730382,1.1140603,1.7858889,0.80130094,0.36538544,-0.042077914,1.0677936
1747672459.9740613,1.1140603,1.7858889,0.80130094,0.36538544,-0.042077914,1.0677936
1747672459.9750524,1.1140603,1.7858889,0.80130094,0.36538544,-0.042077914,1.0677936
1747672459.9760482,0.41556847,1.8552011,0.34979504,0.68709505,0.4063981,0.47337654
1747672459.9770482,0.41556847,1.8552011,0.34979504,0.68709505,0.4063981,0.47337654
1747672459.9780436,0.41556847,1.8552011,0.34979504,0.68709505,0.4063981,0.47337654
1747672459.9790406,0.41556847,1.8552011,0.34979504,0.68709505,0.4063981,0.47337654
1747672459.9800417,0.41556847,1.8552011,0.34979504,0.68709505,0.4063981,0.47337654
1747672459.9810483,0.41556847,1.8552011,0.34979504,0.68709505,0.4063981,0.47337654
1747672459.9829655,0.41556847,1.8552011,0.34979504,0.68709505,0.4063981,0.47337654
1747672459.9895587,0.41556847,1.8552011,0.34979504,0.68709505,0.4063981,0.47337654
1747672459.9921477,0.41556847,1.8552011,0.34979504,0.68709505,0.4063981,0.47337654
1747672459.9940248,0.41556847,1.8552011,0.34979504,0.68709505,0.4063981,0.47337654
1747672459.9958296,0.41556847,1.8552011,0.34979504,0.68709505,0.4063981,0.47337654
1747672459.996878,0.41556847,1.8552011,0.34979504,0.68709505,0.4063981,0.47337654
1747672459.9990115,0.0035998444,1.9103581,0.16187097,0.8021435,0.6833666,0.24541011
1747672460.0058038,0.0035998444,1.9103581,0.16187097,0.8021435,0.6833666,0.24541011
1747672460.006797,0.0035998444,1.9103581,0.16187097,0.8021435,0.6833666,0.24541011
1747672460.0091708,0.0035998444,1.9103581,0.16187097,0.8021435,0.6833666,0.24541011
1747672460.0110593,0.0035998444,1.9103581,0.16187097,0.8021435,0.6833666,0.24541011
1747672460.0128562,-0.7685973,1.9816228,-0.19152392,1.1025479,1.16167,-0.29574382
1747672460.0133011,-1.0712283,1.9450144,-0.35016114,1.1025479,1.16167,-0.29574382
1747672460.01385,-1.0712283,1.9450144,-0.35016114,1.1025479,1.16167,-0.29574382
1747672460.014414,-1.0712283,1.9450144,-0.35016114,1.1984216,0.99868464,-0.50560075
1747672460.0149753,-1.0712283,1.9450144,-0.35016114,1.1984216,0.99868464,-0.50560075
1747672460.0155332,-1.0712283,1.9450144,-0.35016114,1.1984216,0.99868464,-0.50560075
1747672460.016074,-1.0712283,1.9450144,-0.35016114,1.1984216,0.99868464,-0.50560075
1747672460.016633,-1.0712283,1.9450144,-0.35016114,1.1984216,0.99868464,-0.50560075
1747672460.0171807,-1.0712283,1.9450144,-0.35016114,1.1984216,0.99868464,-0.50560075
1747672460.0177312,-1.0712283,1.9450144,-0.35016114,1.1984216,0.99868464,-0.50560075
1747672460.018279,-1.0712283,1.9450144,-0.35016114,1.1984216,0.99868464,-0.50560075
1747672460.018824,-1.0712283,1.9450144,-0.35016114,1.1984216,0.99868464,-0.50560075
1747672460.0193675,-1.0712283,1.9450144,-0.35016114,1.1984216,0.99868464,-0.50560075
1747672460.0199087,-1.0712283,1.9450144,-0.35016114,1.1984216,0.99868464,-0.50560075
1747672460.020447,-1.0712283,1.9450144,-0.35016114,1.1984216,0.99868464,-0.50560075
1747672460.0209932,-1.0712283,1.9450144,-0.35016114,1.1984216,0.99868464,-0.50560075
1747672460.0215414,-1.0712283,1.9450144,-0.35016114,1.1984216,0.99868464,-0.50560075
1747672460.0220897,-1.0712283,1.9450144,-0.35016114,1.1984216,0.99868464,-0.50560075
1747672460.0226352,-1.2684265,1.8786306,-0.47170162,1.1984216,0.99868464,-0.50560075
1747672460.0231843,-1.2684265,1.8786306,-0.47170162,1.1898994,0.6375603,-0.61745346
1747672460.0237463,-1.2684265,1.8786306,-0.47170162,1.1898994,0.6375603,-0.61745346
1747672460.0243025,-1.2684265,1.8786306,-0.47170162,1.1898994,0.6375603,-0.61745346
1747672460.0248508,-1.2684265,1.8786306,-0.47170162,1.1898994,0.6375603,-0.61745346
1747672460.0253983,-1.2684265,1.8786306,-0.47170162,1.1898994,0.6375603,-0.61745346
1747672460.025941,-1.2684265,1.8786306,-0.47170162,1.1898994,0.6375603,-0.61745346
1747672460.0264869,-1.2684265,1.8786306,-0.47170162,1.1898994,0.6375603,-0.61745346
1747672460.0270333,-1.2684265,1.8786306,-0.47170162,1.1898994,0.6375603,-0.61745346
1747672460.0276003,-1.2684265,1.8786306,-0.47170162,1.1898994,0.6375603,-0.61745346
1747672460.028156,-1.2684265,1.8786306,-0.47170162,1.1898994,0.6375603,-0.61745346
1747672460.0287192,-1.2684265,1.8786306,-0.47170162,1.1898994,0.6375603,-0.61745346
1747672460.029276,-1.2684265,1.8786306,-0.47170162,1.1898994,0.6375603,-0.61745346
1747672460.0298376,-1.2684265,1.8786306,-0.47170162,1.1898994,0.6375603,-0.61745346
1747672460.030391,-1.2684265,1.8786306,-0.47170162,1.1898994,0.6375603,-0.61745346
1747672460.0309427,-1.2684265,1.8786306,-0.47170162,1.1898994,0.6375603,-0.61745346
1747672460.0314884,-1.2684265,1.8786306,-0.47170162,1.1898994,0.6375603,-0.61745346
1747672460.0320382,-1.2684265,1.8786306,-0.47170162,1.1898994,0.6375603,-0.61745346
1747672460.0325992,-1.2684265,1.8786306,-0.47170162,1.1898994,0.6375603,-0.61745346
1747672460.0331788,-1.2684265,1.8786306,-0.47170162,1.1898994,0.6375603,-0.61745346
1747672460.0337064,-1.2684265,1.8786306,-0.47170162,1.1898994,0.6375603,-0.61745346
1747672460.0342827,-1.2684265,1.8786306,-0.47170162,1.1898994,0.6375603,-0.61745346
1747672460.0348132,-1.2684265,1.8786306,-0.47170162,1.1898994,0.6375603,-0.61745346
1747672460.0353656,-1.2684265,1.8786306,-0.47170162,1.1898994,0.6375603,-0.61745346
1747672460.0359392,-1.2684265,1.8786306,-0.47170162,1.1898994,0.6375603,-0.61745346
1747672460.0384479,-1.2684265,1.8786306,-0.47170162,1.1898994,0.6375603,-0.61745346
1747672460.039651,-1.2684265,1.8786306,-0.47170162,1.1898994,0.6375603,-0.61745346
1747672460.0402176,-1.2684265,1.8786306,-0.47170162,1.1898994,0.6375603,-0.61745346
1747672460.0413024,-1.2684265,1.8786306,-0.47170162,1.1898994,0.6375603,-0.61745346
1747672460.0423756,-1.2684265,1.8786306,-0.47170162,1.1898994,0.6375603,-0.61745346
1747672460.0434384,-1.3221191,1.8459271,-0.5210012,1.0695246,0.19867167,-0.63769346
1747672460.043985,-1.3221191,1.8459271,-0.5210012,1.0695246,0.19867167,-0.63769346
1747672460.044567,-1.3221191,1.8459271,-0.5210012,1.0695246,0.19867167,-0.63769346
1747672460.0451171,-1.3221191,1.8459271,-0.5210012,1.0695246,0.19867167,-0.63769346
1747672460.0457194,-1.3221191,1.8459271,-0.5210012,0.79255617,-0.13688637,-0.5961482
1747672460.0468664,-1.3221191,1.8459271,-0.5210012,0.79255617,-0.13688637,-0.5961482
1747672460.0473356,-1.3221191,1.8459271,-0.5210012,0.79255617,-0.13688637,-0.5961482
1747672460.0490825,-1.3221191,1.8459271,-0.5210012,0.79255617,-0.13688637,-0.5961482
1747672460.0501316,-1.0165594,1.8317716,-0.40482998,0.79255617,-0.13688637,-0.5961482
1747672460.0506823,-1.0165594,1.8317716,-0.40482998,0.79255617,-0.13688637,-0.5961482
1747672460.0512233,-1.0165594,1.8317716,-0.40482998,0.79255617,-0.13688637,-0.5961482
1747672460.051772,-1.0165594,1.8317716,-0.40482998,0.79255617,-0.13688637,-0.5961482
1747672460.0523345,-1.0165594,1.8317716,-0.40482998,0.79255617,-0.13688637,-0.5961482
1747672460.0528765,-1.0165594,1.8317716,-0.40482998,0.79255617,-0.13688637,-0.5961482
1747672460.053431,-1.0165594,1.8317716,-0.40482998,0.79255617,-0.13688637,-0.5961482
1747672460.0539832,-1.0165594,1.8317716,-0.40482998,0.79255617,-0.13688637,-0.5961482
1747672460.054542,-0.6646289,1.841046,-0.23350178,0.6178529,-0.2530001,-0.64301974
1747672460.0551064,-0.6646289,1.841046,-0.23350178,0.6178529,-0.2530001,-0.64301974
1747672460.0556383,-0.6646289,1.841046,-0.23350178,0.6178529,-0.2530001,-0.64301974
1747672460.0561907,-0.6646289,1.841046,-0.23350178,0.6178529,-0.2530001,-0.64301974
1747672460.057271,-0.6646289,1.841046,-0.23350178,0.6178529,-0.2530001,-0.64301974
1747672460.0578213,-0.6646289,1.841046,-0.23350178,0.6178529,-0.2530001,-0.64301974
1747672460.0585437,-0.6646289,1.841046,-0.23350178,0.6178529,-0.2530001,-0.64301974
1747672460.0597305,-0.6646289,1.841046,-0.23350178,0.6178529,-0.2530001,-0.64301974
1747672460.0602696,-0.6646289,1.841046,-0.23350178,0.6178529,-0.2530001,-0.64301974
1747672460.062269,-0.6646289,1.841046,-0.23350178,0.6178529,-0.2530001,-0.64301974
1747672460.063651,-0.6646289,1.841046,-0.23350178,0.6178529,-0.2530001,-0.64301974
1747672460.0642657,-0.6646289,1.841046,-0.23350178,0.6178529,-0.2530001,-0.64301974
1747672460.0652616,-0.6646289,1.841046,-0.23350178,0.6178529,-0.2530001,-0.64301974
1747672460.0662675,-0.6646289,1.841046,-0.23350178,0.6178529,-0.2530001,-0.64301974
1747672460.0672626,-0.6646289,1.841046,-0.23350178,0.6178529,-0.2530001,-0.64301974
1747672460.0682647,-0.6646289,1.841046,-0.23350178,0.6178529,-0.2530001,-0.64301974
1747672460.0692635,-0.11208329,1.8483676,0.096951745,0.42290968,-0.14860427,-0.8294409
1747672460.0702739,-0.11208329,1.8483676,0.096951745,0.42290968,-0.14860427,-0.8294409
1747672460.0712733,-0.11208329,1.8483676,0.096951745,0.42290968,-0.14860427,-0.8294409
1747672460.0722723,-0.11208329,1.8483676,0.096951745,0.42290968,-0.14860427,-0.8294409
1747672460.0732653,0.29695666,1.8532487,0.4210598,0.42077914,-0.03888212,-1.0456895
1747672460.074294,0.29695666,1.8532487,0.4210598,0.42077914,-0.03888212,-1.0456895
1747672460.0752656,0.29695666,1.8532487,0.4210598,0.42077914,-0.03888212,-1.0456895
1747672460.0762656,0.29695666,1.8532487,0.4210598,0.42077914,-0.03888212,-1.0456895
1747672460.078777,0.29695666,1.8532487,0.4210598,0.42077914,-0.03888212,-1.0456895
1747672460.0798674,0.29695666,1.8532487,0.4210598,0.42077914,-0.03888212,-1.0456895
1747672460.0808883,0.29695666,1.8532487,0.4210598,0.42077914,-0.03888212,-1.0456895
1747672460.0818698,0.29695666,1.8532487,0.4210598,0.42077914,-0.03888212,-1.0456895
1747672460.0830464,0.29695666,1.8532487,0.4210598,0.42077914,-0.03888212,-1.0456895
1747672460.0842414,0.29695666,1.8532487,0.4210598,0.42077914,-0.03888212,-1.0456895
1747672460.0850778,0.6503516,1.8293312,0.70660675,0.5837645,-0.04314318,-1.3663337
1747672460.0858696,0.6503516,1.8293312,0.70660675,0.5837645,-0.04314318,-1.3663337
1747672460.086783,0.6503516,1.8293312,0.70660675,0.5837645,-0.04314318,-1.3663337
1747672460.0875828,0.6503516,1.8293312,0.70660675,0.5837645,-0.04314318,-1.3663337
1747672460.0885222,0.6503516,1.8293312,0.70660675,0.5837645,-0.04314318,-1.3663337
1747672460.0893083,0.6503516,1.8293312,0.70660675,0.5837645,-0.04314318,-1.3663337
1747672460.0905983,0.6503516,1.8293312,0.70660675,0.5837645,-0.04314318,-1.3663337
1747672460.091416,0.6503516,1.8293312,0.70660675,0.5837645,-0.04314318,-1.3663337
1747672460.092557,0.6503516,1.8293312,0.70660675,0.5837645,-0.04314318,-1.3663337
1747672460.0940478,0.6503516,1.8293312,0.70660675,0.5837645,-0.04314318,-1.3663337
1747672460.095047,1.0301046,1.7302439,0.86475587,0.933171,-0.10599373,-1.8488982
1747672460.0958855,1.0301046,1.7302439,0.86475587,0.933171,-0.10599373,-1.8488982
1747672460.0968058,1.0301046,1.7302439,0.86475587,0.933171,-0.10599373,-1.8488982
1747672460.0976927,1.0301046,1.7302439,0.86475587,0.933171,-0.10599373,-1.8488982
1747672460.0986676,1.0301046,1.7302439,0.86475587,0.933171,-0.10599373,-1.8488982
1747672460.0996022,1.0301046,1.7302439,0.86475587,0.933171,-0.10599373,-1.8488982
1747672460.1004384,1.0301046,1.7302439,0.86475587,0.933171,-0.10599373,-1.8488982
1747672460.1012356,1.0301046,1.7302439,0.86475587,0.933171,-0.10599373,-1.8488982
1747672460.1020963,1.0301046,1.7302439,0.86475587,0.933171,-0.10599373,-1.8488982
1747672460.102888,1.0301046,1.7302439,0.86475587,0.933171,-0.10599373,-1.8488982
1747672460.1038241,1.0301046,1.7302439,0.86475587,0.933171,-0.10599373,-1.8488982
1747672460.1048486,1.0301046,1.7302439,0.86475587,0.933171,-0.10599373,-1.8488982
1747672460.1059098,1.0301046,1.7302439,0.86475587,0.933171,-0.10599373,-1.8488982
1747672460.1071978,1.0301046,1.7302439,0.86475587,0.933171,-0.10599373,-1.8488982
1747672460.1080585,1.0301046,1.7302439,0.86475587,1.3209269,-0.16671376,-2.5093617
1747672460.109041,1.4215724,1.5706303,0.76713294,1.3209269,-0.16671376,-2.5093617
1747672460.1098566,1.4215724,1.5706303,0.76713294,1.3209269,-0.16671376,-2.5093617
1747672460.1107063,1.4215724,1.5706303,0.76713294,1.3209269,-0.16671376,-2.5093617
1747672460.1114988,1.4215724,1.5706303,0.76713294,1.3209269,-0.16671376,-2.5093617
1747672460.1122673,1.4215724,1.5706303,0.76713294,1.3209269,-0.16671376,-2.5093617
1747672460.1130412,1.4215724,1.5706303,0.76713294,1.3209269,-0.16671376,-2.5093617
1747672460.1137688,1.4215724,1.5706303,0.76713294,1.3209269,-0.16671376,-2.5093617
1747672460.1144905,1.4215724,1.5706303,0.76713294,1.3209269,-0.16671376,-2.5093617
1747672460.115339,1.4215724,1.5706303,0.76713294,1.3209269,-0.16671376,-2.5093617
1747672460.1160905,1.4215724,1.5706303,0.76713294,1.3209269,-0.16671376,-2.5093617
1747672460.1167996,1.4215724,1.5706303,0.76713294,1.3209269,-0.16671376,-2.5093617
1747672460.1175082,1.6856424,1.4266367,0.55382687,1.3209269,-0.16671376,-2.5093617
1747672460.1190207,1.6856424,1.4266367,0.55382687,1.3209269,-0.16671376,-2.5093617
1747672460.1200328,1.6856424,1.4266367,0.55382687,1.4530196,-0.26152223,-3.149585
1747672460.1212962,1.6856424,1.4266367,0.55382687,1.4530196,-0.26152223,-3.149585
1747672460.1221154,1.6856424,1.4266367,0.55382687,1.4530196,-0.26152223,-3.149585
1747672460.122949,1.6856424,1.4266367,0.55382687,1.4530196,-0.26152223,-3.149585
1747672460.1237574,1.6856424,1.4266367,0.55382687,1.4530196,-0.26152223,-3.149585
1747672460.1245942,1.6856424,1.4266367,0.55382687,1.4530196,-0.26152223,-3.149585
1747672460.125479,1.9174968,1.2694638,0.31953195,1.4530196,-0.26152223,-3.149585
1747672460.1262696,1.9174968,1.2694638,0.31953195,1.3592764,-0.34567806,-3.8153749
1747672460.1273503,1.9174968,1.2694638,0.31953195,1.3592764,-0.34567806,-3.8153749
1747672460.128287,1.9174968,1.2694638,0.31953195,1.3592764,-0.34567806,-3.8153749
1747672460.129203,1.9174968,1.2694638,0.31953195,1.3592764,-0.34567806,-3.8153749
1747672460.1301546,1.9174968,1.2694638,0.31953195,1.3592764,-0.34567806,-3.8153749
1747672460.1310437,1.9174968,1.2694638,0.31953195,1.3592764,-0.34567806,-3.8153749
1747672460.1369045,1.9174968,1.2694638,0.31953195,1.3592764,-0.34567806,-3.8153749
1747672460.13786,1.9833922,1.1069217,0.2204447,1.0929605,-0.3296991,-4.483295
1747672460.1387067,1.9833922,1.1069217,0.2204447,1.0929605,-0.3296991,-4.483295
1747672460.1395028,1.9833922,1.1069217,0.2204447,1.0929605,-0.3296991,-4.483295
1747672460.141662,1.9833922,1.1069217,0.2204447,1.0929605,-0.3296991,-4.483295
1747672460.142471,1.9833922,1.1069217,0.2204447,1.0929605,-0.3296991,-4.483295
1747672460.1432185,1.9833922,1.1069217,0.2204447,1.0929605,-0.3296991,-4.483295
1747672460.1440012,2.1171358,1.0136918,0.28878075,1.0929605,-0.3296991,-4.483295
1747672460.1448119,2.1171358,1.0136918,0.28878075,1.0929605,-0.3296991,-4.483295
1747672460.1456003,2.1171358,1.0136918,0.28878075,0.8106656,-0.27217487,-5.0297756
1747672460.1463995,2.1171358,1.0136918,0.28878075,0.8106656,-0.27217487,-5.0297756
1747672460.1472,2.1171358,1.0136918,0.28878075,0.8106656,-0.27217487,-5.0297756
1747672460.1480012,2.1171358,1.0136918,0.28878075,0.8106656,-0.27217487,-5.0297756
1747672460.1487637,2.1171358,1.0136918,0.28878075,0.8106656,-0.27217487,-5.0297756
1747672460.1495082,2.1171358,1.0136918,0.28878075,0.8106656,-0.27217487,-5.0297756
1747672460.1502492,2.1171358,1.0136918,0.28878075,0.8106656,-0.27217487,-5.0297756
1747672460.1510108,2.1171358,1.0136918,0.28878075,0.8106656,-0.27217487,-5.0297756
1747672460.1517527,2.1171358,1.0136918,0.28878075,0.8106656,-0.27217487,-5.0297756
1747672460.1524699,2.1171358,1.0136918,0.28878075,0.8106656,-0.27217487,-5.0297756
1747672460.1545331,2.1171358,1.0136918,0.28878075,0.8106656,-0.27217487,-5.0297756
1747672460.1582022,2.3675382,0.96780896,0.43912,0.6040045,-0.26152223,-5.546428
1747672460.163705,2.3675382,0.96780896,0.43912,0.6040045,-0.26152223,-5.546428
1747672460.166305,2.3675382,0.96780896,0.43912,0.6040045,-0.26152223,-5.546428
1747672460.1685874,2.3675382,0.96780896,0.43912,0.6040045,-0.26152223,-5.546428
1747672460.169625,2.3675382,0.96780896,0.43912,0.6040045,-0.26152223,-5.546428
1747672460.1705656,2.3675382,0.96780896,0.43912,0.6040045,-0.26152223,-5.546428
1747672460.1724172,2.3675382,0.96780896,0.43912,0.6040045,-0.26152223,-5.546428
1747672460.1738229,2.5554624,0.90825903,0.69049895,0.6040045,-0.26152223,-5.546428
1747672460.174645,2.753637,0.8828771,0.8603628,0.6040045,-0.26152223,-5.546428
1747672460.1754813,2.753637,0.8828771,0.8603628,0.6040045,-0.26152223,-5.546428
1747672460.1762698,2.753637,0.8828771,0.8603628,0.6040045,-0.26152223,-5.546428
1747672460.1771305,2.753637,0.8828771,0.8603628,0.6040045,-0.26152223,-5.546428
1747672460.1779776,2.753637,0.8828771,0.8603628,0.6040045,-0.26152223,-5.546428
1747672460.1787798,2.753637,0.8828771,0.8603628,0.6040045,-0.26152223,-5.546428
1747672460.1796129,2.753637,0.8828771,0.8603628,0.6040045,-0.26152223,-5.546428
1747672460.1805565,2.753637,0.8828771,0.8603628,0.6295708,-0.37550545,-6.422075
1747672460.181695,2.753637,0.8828771,0.8603628,0.6295708,-0.37550545,-6.422075
1747672460.1825187,2.753637,0.8828771,0.8603628,0.6295708,-0.37550545,-6.422075
1747672460.1834378,2.753637,0.8828771,0.8603628,0.6295708,-0.37550545,-6.422075
1747672460.1842847,2.753637,0.8828771,0.8603628,0.6295708,-0.37550545,-6.422075
1747672460.1852102,2.753637,0.8828771,0.8603628,0.6295708,-0.37550545,-6.422075
1747672460.186152,2.9820745,0.85798323,0.85792226,0.6679203,-0.43089914,-6.6926517
1747672460.1869555,2.9820745,0.85798323,0.85792226,0.6679203,-0.43089914,-6.6926517
1747672460.1877677,2.9820745,0.85798323,0.85792226,0.6679203,-0.43089914,-6.6926517
1747672460.188544,2.9820745,0.85798323,0.85792226,0.6679203,-0.43089914,-6.6926517
1747672460.1893368,2.9820745,0.85798323,0.85792226,0.6679203,-0.43089914,-6.6926517
1747672460.1900833,2.9820745,0.85798323,0.85792226,0.6679203,-0.43089914,-6.6926517
1747672460.1908655,2.9820745,0.85798323,0.85792226,0.6679203,-0.43089914,-6.6926517
1747672460.1915882,2.9820745,0.85798323,0.85792226,0.6679203,-0.43089914,-6.6926517
1747672460.1923132,2.9820745,0.85798323,0.85792226,0.6679203,-0.43089914,-6.6926517
1747672460.1937213,2.9820745,0.85798323,0.85792226,0.6679203,-0.43089914,-6.6926517
1747672460.1945164,3.5795267,0.75157434,0.75834686,0.5017392,-0.39574546,-7.1773467
1747672460.1953416,3.5795267,0.75157434,0.75834686,0.5017392,-0.39574546,-7.1773467
1747672460.197215,3.5795267,0.75157434,0.75834686,0.5017392,-0.39574546,-7.1773467
1747672460.1987016,3.5795267,0.75157434,0.75834686,0.5017392,-0.39574546,-7.1773467
1747672460.199984,3.5795267,0.75157434,0.75834686,0.5017392,-0.39574546,-7.1773467
1747672460.20085,3.5795267,0.75157434,0.75834686,0.5017392,-0.39574546,-7.1773467
1747672460.201685,3.5795267,0.75157434,0.75834686,0.5017392,-0.39574546,-7.1773467
1747672460.2025013,3.5795267,0.75157434,0.75834686,0.5017392,-0.39574546,-7.1773467
1747672460.203386,3.5795267,0.75157434,0.75834686,0.5017392,-0.39574546,-7.1773467
1747672460.2045553,3.5795267,0.75157434,0.75834686,0.5017392,-0.39574546,-7.1773467
1747672460.2057724,3.5795267,0.75157434,0.75834686,0.5017392,-0.39574546,-7.1773467
1747672460.2067828,3.5795267,0.75157434,0.75834686,0.23542327,-0.19654115,-7.504383
1747672460.2079725,3.5795267,0.75157434,0.75834686,0.23542327,-0.19654115,-7.504383
1747672460.2089524,3.5795267,0.75157434,0.75834686,0.23542327,-0.19654115,-7.504383
1747672460.2099273,3.5795267,0.75157434,0.75834686,0.23542327,-0.19654115,-7.504383
1747672460.2107325,3.5795267,0.75157434,0.75834686,0.23542327,-0.19654115,-7.504383
1747672460.2126033,3.5795267,0.75157434,0.75834686,0.23542327,-0.19654115,-7.504383
1747672460.213436,3.5795267,0.75157434,0.75834686,0.23542327,-0.19654115,-7.504383
1747672460.2142541,3.5795267,0.75157434,0.75834686,0.23542327,-0.19654115,-7.504383
1747672460.215226,3.5795267,0.75157434,0.75834686,0.23542327,-0.19654115,-7.504383
1747672460.216033,3.5795267,0.75157434,0.75834686,0.23542327,-0.19654115,-7.504383
1747672460.2168653,3.5795267,0.75157434,0.75834686,0.23542327,-0.19654115,-7.504383
1747672460.2176902,3.9114447,0.44991955,0.73003626,-0.30786118,0.5576655,-7.81757
1747672460.2187424,3.9114447,0.44991955,0.73003626,-0.30786118,0.5576655,-7.81757
1747672460.219539,3.9114447,0.44991955,0.73003626,-0.30786118,0.5576655,-7.81757
1747672460.220593,3.9114447,0.44991955,0.73003626,-0.30786118,0.5576655,-7.81757
1747672460.2215393,3.9114447,0.44991955,0.73003626,-0.30786118,0.5576655,-7.81757
1747672460.2224536,3.9114447,0.44991955,0.73003626,-0.30786118,0.5576655,-7.81757
1747672460.2233727,3.9114447,0.44991955,0.73003626,-0.30786118,0.5576655,-7.81757
1747672460.2241828,3.9114447,0.44991955,0.73003626,-0.30786118,0.5576655,-7.81757
1747672460.224969,3.9114447,0.44991955,0.73003626,-0.30786118,0.5576655,-7.81757
1747672460.2257156,3.9114447,0.44991955,0.73003626,-0.30786118,0.5576655,-7.81757
1747672460.2265134,3.9114447,0.44991955,0.73003626,-0.30786118,0.5576655,-7.81757
1747672460.2273674,3.9114447,0.44991955,0.73003626,-0.30786118,0.5576655,-7.81757
1747672460.2281084,3.9729466,0.22782744,0.9062455,-0.7243793,1.4407691,-7.884682
1747672460.2288475,3.9729466,0.22782744,0.9062455,-0.7243793,1.4407691,-7.884682
1747672460.2296252,3.9729466,0.22782744,0.9062455,-0.7243793,1.4407691,-7.884682
1747672460.2309248,3.9729466,0.22782744,0.9062455,-0.7243793,1.4407691,-7.884682
1747672460.2319036,3.9729466,0.22782744,0.9062455,-0.7243793,1.4407691,-7.884682
1747672460.232695,3.9729466,0.22782744,0.9062455,-0.7243793,1.4407691,-7.884682
1747672460.2335064,3.9729466,0.22782744,0.9062455,-0.7243793,1.4407691,-7.884682
1747672460.2343073,3.8841102,0.09652464,1.2591524,-0.7243793,1.4407691,-7.884682
1747672460.2354007,3.8841102,0.09652464,1.2591524,-0.7243793,1.4407691,-7.884682
1747672460.23638,3.8841102,0.09652464,1.2591524,-0.7243793,1.4407691,-7.884682
1747672460.2372365,3.8841102,0.09652464,1.2591524,-0.7243793,1.4407691,-7.884682
1747672460.2382617,3.8841102,0.09652464,1.2591524,-0.7243793,1.4407691,-7.884682
1747672460.2392216,3.8841102,0.09652464,1.2591524,-0.7243793,1.4407691,-7.884682
1747672460.2400353,3.8841102,0.09652464,1.2591524,-0.7243793,1.4407691,-7.884682
1747672460.2408278,3.8841102,0.09652464,1.2591524,-0.7243793,1.4407691,-7.884682
1747672460.2416215,3.8841102,0.09652464,1.2591524,-0.7243793,1.4407691,-7.884682
1747672460.2424324,3.8841102,0.09652464,1.2591524,-0.7243793,1.4407691,-7.884682
1747672460.2432113,3.8841102,0.09652464,1.2591524,-0.84581935,2.3558304,-7.8250275
1747672460.2439914,3.8841102,0.09652464,1.2591524,-0.84581935,2.3558304,-7.8250275
1747672460.2448773,3.8841102,0.09652464,1.2591524,-0.84581935,2.3558304,-7.8250275
1747672460.2457285,3.8841102,0.09652464,1.2591524,-0.47936863,2.919355,-7.559777
1747672460.2465758,3.7991781,0.16974182,1.7487313,-0.47936863,2.919355,-7.559777
1747672460.2473724,3.7991781,0.16974182,1.7487313,-0.47936863,2.919355,-7.559777
1747672460.2482271,3.7991781,0.16974182,1.7487313,-0.47936863,2.919355,-7.559777
1747672460.2490566,3.7991781,0.16974182,1.7487313,-0.47936863,2.919355,-7.559777
1747672460.2510896,3.7991781,0.16974182,1.7487313,-0.47936863,2.919355,-7.559777
1747672460.251957,3.7991781,0.16974182,1.7487313,-0.47936863,2.919355,-7.559777
1747672460.252743,3.7991781,0.16974182,1.7487313,-0.47936863,2.919355,-7.559777
1747672460.2535388,3.7991781,0.16974182,1.7487313,-0.47936863,2.919355,-7.559777
1747672460.254339,3.7991781,0.16974182,1.7487313,-0.47936863,2.919355,-7.559777
1747672460.2551832,3.9924712,0.36791632,2.21244,0.42397493,2.8479824,-7.1720204
1747672460.2559772,3.9924712,0.36791632,2.21244,0.42397493,2.8479824,-7.1720204
1747672460.2570941,3.9924712,0.36791632,2.21244,0.42397493,2.8479824,-7.1720204
1747672460.2583811,3.9924712,0.36791632,2.21244,0.42397493,2.8479824,-7.1720204
1747672460.25934,3.9924712,0.36791632,2.21244,0.42397493,2.8479824,-7.1720204
1747672460.2603166,3.9924712,0.36791632,2.21244,0.42397493,2.8479824,-7.1720204
1747672460.2613142,3.9924712,0.36791632,2.21244,0.42397493,2.8479824,-7.1720204
1747672460.2623196,3.9924712,0.36791632,2.21244,0.42397493,2.8479824,-7.1720204
1747672460.2633178,4.464478,0.5221605,2.3520408,0.42397493,2.8479824,-7.1720204
1747672460.2643263,4.464478,0.5221605,2.3520408,1.6106787,2.3867233,-6.838593
1747672460.2653253,4.464478,0.5221605,2.3520408,1.6106787,2.3867233,-6.838593
1747672460.2663257,4.464478,0.5221605,2.3520408,1.6106787,2.3867233,-6.838593
1747672460.267323,4.464478,0.5221605,2.3520408,1.6106787,2.3867233,-6.838593
1747672460.2683256,4.464478,0.5221605,2.3520408,1.6106787,2.3867233,-6.838593
1747672460.2695544,4.464478,0.5221605,2.3520408,1.6106787,2.3867233,-6.838593
1747672460.271522,4.464478,0.5221605,2.3520408,1.6106787,2.3867233,-6.838593
1747672460.2723281,4.464478,0.5221605,2.3520408,1.6106787,2.3867233,-6.838593
1747672460.2733092,4.464478,0.5221605,2.3520408,1.6106787,2.3867233,-6.838593
1747672460.2741828,4.464478,0.5221605,2.3520408,1.6106787,2.3867233,-6.838593
1747672460.2749767,4.464478,0.5221605,2.3520408,1.6106787,2.3867233,-6.838593
1747672460.275804,4.464478,0.5221605,2.3520408,1.6106787,2.3867233,-6.838593
1747672460.2768245,4.464478,0.5221605,2.3520408,1.6106787,2.3867233,-6.838593
1747672460.2776284,5.0731573,0.72814476,2.1138408,2.642919,1.9425082,-6.6404543
1747672460.2784388,5.0731573,0.72814476,2.1138408,2.642919,1.9425082,-6.6404543
1747672460.2792876,5.0731573,0.72814476,2.1138408,2.642919,1.9425082,-6.6404543
1747672460.2800796,5.0731573,0.72814476,2.1138408,2.642919,1.9425082,-6.6404543
1747672460.2808628,5.0731573,0.72814476,2.1138408,2.642919,1.9425082,-6.6404543
1747672460.2862954,5.0731573,0.72814476,2.1138408,2.642919,1.9425082,-6.6404543
1747672460.287698,5.7365046,0.9526774,1.7067534,3.281012,1.6676702,-6.6053004
1747672460.289064,5.7365046,0.9526774,1.7067534,3.281012,1.6676702,-6.6053004
1747672460.2900236,5.7365046,0.9526774,1.7067534,3.281012,1.6676702,-6.6053004
1747672460.2908857,5.7365046,0.9526774,1.7067534,3.281012,1.6676702,-6.6053004
1747672460.2916708,5.7365046,0.9526774,1.7067534,3.281012,1.6676702,-6.6053004
1747672460.2925334,5.7365046,0.9526774,1.7067534,3.281012,1.6676702,-6.6053004
1747672460.2933505,5.7365046,0.9526774,1.7067534,3.281012,1.6676702,-6.6053004
1747672460.2941384,5.7365046,0.9526774,1.7067534,3.281012,1.6676702,-6.6053004
1747672460.2949657,5.7365046,0.9526774,1.7067534,3.281012,1.6676702,-6.6053004
1747672460.2968783,5.7365046,0.9526774,1.7067534,3.281012,1.6676702,-6.6053004
1747672460.2976623,5.7365046,0.9526774,1.7067534,3.281012,1.6676702,-6.6053004
1747672460.2988358,5.7365046,0.9526774,1.7067534,3.281012,1.6676702,-6.6053004
1747672460.2997503,5.7365046,0.9526774,1.7067534,3.281012,1.6676702,-6.6053004
1747672460.3006613,5.7365046,0.9526774,1.7067534,3.281012,1.6676702,-6.6053004
1747672460.301567,6.43402,1.0717773,1.1078368,3.281012,1.6676702,-6.6053004
1747672460.3025131,6.43402,1.0717773,1.1078368,3.281012,1.6676702,-6.6053004
1747672460.3033838,6.43402,1.0717773,1.1078368,3.281012,1.6676702,-6.6053004
1747672460.3041825,6.43402,1.0717773,1.1078368,3.281012,1.6676702,-6.6053004
1747672460.304944,6.43402,1.0717773,1.1078368,3.281012,1.6676702,-6.6053004
1747672460.305745,6.43402,1.0717773,1.1078368,3.281012,1.6676702,-6.6053004
1747672460.30647,6.8708825,0.9438914,0.55626744,3.281012,1.6676702,-6.6053004
1747672460.3080165,6.8708825,0.9438914,0.55626744,3.281012,1.6676702,-6.6053004
1747672460.3089504,6.8708825,0.9438914,0.55626744,3.2256184,1.981923,-7.092126
1747672460.309742,6.8708825,0.9438914,0.55626744,3.2256184,1.981923,-7.092126
1747672460.3105536,6.8708825,0.9438914,0.55626744,3.2256184,1.981923,-7.092126
1747672460.3113399,6.8708825,0.9438914,0.55626744,3.2256184,1.981923,-7.092126
1747672460.3122656,6.8708825,0.9438914,0.55626744,3.2256184,1.981923,-7.092126
1747672460.3131115,6.8708825,0.9438914,0.55626744,3.2256184,1.981923,-7.092126
1747672460.3165233,6.8708825,0.9438914,0.55626744,3.2256184,1.981923,-7.092126
1747672460.317787,6.883574,0.58171046,0.065712415,2.6035044,2.6391907,-7.71637
1747672460.3199108,6.883574,0.58171046,0.065712415,2.6035044,2.6391907,-7.71637
1747672460.32091,6.883574,0.58171046,0.065712415,2.6035044,2.6391907,-7.71637
1747672460.321724,6.883574,0.58171046,0.065712415,2.6035044,2.6391907,-7.71637
1747672460.3225539,6.883574,0.58171046,0.065712415,2.6035044,2.6391907,-7.71637
1747672460.3233683,6.883574,0.58171046,0.065712415,2.6035044,2.6391907,-7.71637
1747672460.3241663,6.883574,0.58171046,0.065712415,2.6035044,2.6391907,-7.71637
1747672460.325088,6.883574,0.58171046,0.065712415,2.6035044,2.6391907,-7.71637
1747672460.3259342,6.883574,0.58171046,0.065712415,2.6035044,2.6391907,-7.71637
1747672460.326847,6.883574,0.58171046,0.065712415,2.6035044,2.6391907,-7.71637
1747672460.3278239,6.883574,0.58171046,0.065712415,1.8631461,3.6277554,-8.32357
1747672460.3288503,6.883574,0.58171046,0.065712415,1.8631461,3.6277554,-8.32357
1747672460.3297133,6.0044794,-0.014277349,0.09988043,1.8631461,3.6277554,-8.32357
1747672460.3309886,6.0044794,-0.014277349,0.09988043,1.8631461,3.6277554,-8.32357
1747672460.3319113,6.0044794,-0.014277349,0.09988043,1.8631461,3.6277554,-8.32357
1747672460.3332293,6.0044794,-0.014277349,0.09988043,1.8631461,3.6277554,-8.32357
1747672460.3341866,6.0044794,-0.014277349,0.09988043,1.8631461,3.6277554,-8.32357
1747672460.3349664,6.0044794,-0.014277349,0.09988043,1.8631461,3.6277554,-8.32357
1747672460.3358827,6.0044794,-0.014277349,0.09988043,1.8631461,3.6277554,-8.32357
1747672460.3368142,4.9130554,-0.30519357,0.51819456,1.8631461,3.6277554,-8.32357
1747672460.3376346,4.9130554,-0.30519357,0.51819456,1.8631461,3.6277554,-8.32357
1747672460.33845,4.9130554,-0.30519357,0.51819456,1.8631461,3.6277554,-8.32357
1747672460.3392525,4.9130554,-0.30519357,0.51819456,1.7363797,3.9846187,-8.397074
1747672460.3400855,4.9130554,-0.30519357,0.51819456,1.7363797,3.9846187,-8.397074
1747672460.3408864,4.9130554,-0.30519357,0.51819456,1.7363797,3.9846187,-8.397074
1747672460.3416414,4.9130554,-0.30519357,0.51819456,1.7363797,3.9846187,-8.397074
1747672460.3423703,3.9465888,-0.43698448,0.9243058,1.7363797,3.9846187,-8.397074
1747672460.3430698,3.9465888,-0.43698448,0.9243058,2.18166,3.7662396,-8.019971
1747672460.343798,3.9465888,-0.43698448,0.9243058,2.18166,3.7662396,-8.019971
1747672460.344553,3.9465888,-0.43698448,0.9243058,2.18166,3.7662396,-8.019971
1747672460.3452814,3.9465888,-0.43698448,0.9243058,2.18166,3.7662396,-8.019971
1747672460.3460107,3.9465888,-0.43698448,0.9243058,2.18166,3.7662396,-8.019971
1747672460.3467445,3.9465888,-0.43698448,0.9243058,2.18166,3.7662396,-8.019971
1747672460.3509264,3.9465888,-0.43698448,0.9243058,2.18166,3.7662396,-8.019971
1747672460.3517394,3.9465888,-0.43698448,0.9243058,2.18166,3.7662396,-8.019971
1747672460.352523,3.9465888,-0.43698448,0.9243058,2.18166,3.7662396,-8.019971
1747672460.3534608,3.2881224,-0.46480703,1.0687877,2.9688897,3.3007195,-7.336071
1747672460.3542774,3.2881224,-0.46480703,1.0687877,2.9688897,3.3007195,-7.336071
1747672460.3551705,3.2881224,-0.46480703,1.0687877,2.9688897,3.3007195,-7.336071
1747672460.355963,3.2881224,-0.46480703,1.0687877,2.9688897,3.3007195,-7.336071
1747672460.3567884,3.2881224,-0.46480703,1.0687877,2.9688897,3.3007195,-7.336071
1747672460.3576615,3.2881224,-0.46480703,1.0687877,2.9688897,3.3007195,-7.336071
1747672460.3585162,3.2881224,-0.46480703,1.0687877,2.9688897,3.3007195,-7.336071
1747672460.3593562,3.2881224,-0.46480703,1.0687877,2.9688897,3.3007195,-7.336071
1747672460.3623085,3.2881224,-0.46480703,1.0687877,2.9688897,3.3007195,-7.336071
1747672460.3632038,3.2881224,-0.46480703,1.0687877,3.7806206,2.7435865,-6.575473
1747672460.3642938,2.9815862,-0.5311906,0.87842304,3.7806206,2.7435865,-6.575473
1747672460.3654501,2.9815862,-0.5311906,0.87842304,3.7806206,2.7435865,-6.575473
1747672460.3662775,2.9815862,-0.5311906,0.87842304,3.7806206,2.7435865,-6.575473
1747672460.3670797,2.9815862,-0.5311906,0.87842304,3.7806206,2.7435865,-6.575473
1747672460.3678627,2.9815862,-0.5311906,0.87842304,3.7806206,2.7435865,-6.575473
1747672460.3686416,2.9815862,-0.5311906,0.87842304,3.7806206,2.7435865,-6.575473
1747672460.3694162,2.9815862,-0.5311906,0.87842304,3.7806206,2.7435865,-6.575473
1747672460.3701959,2.9815862,-0.5311906,0.87842304,3.7806206,2.7435865,-6.575473
1747672460.3709784,2.9815862,-0.5311906,0.87842304,3.7806206,2.7435865,-6.575473
1747672460.3718967,2.9815862,-0.5311906,0.87842304,3.7806206,2.7435865,-6.575473
1747672460.3726761,2.9815862,-0.5311906,0.87842304,3.7806206,2.7435865,-6.575473
1747672460.3734944,2.9815862,-0.5311906,0.87842304,3.7806206,2.7435865,-6.575473
1747672460.374283,2.9815862,-0.5311906,0.87842304,3.7806206,2.7435865,-6.575473
1747672460.375072,2.9815862,-0.5311906,0.87842304,3.7806206,2.7435865,-6.575473
1747672460.3768365,2.8239255,-0.6551717,0.47670484,4.351602,2.2493043,-5.960816
1747672460.3776286,2.8239255,-0.6551717,0.47670484,4.351602,2.2493043,-5.960816
1747672460.3794248,2.8239255,-0.6551717,0.47670484,4.351602,2.2493043,-5.960816
1747672460.38037,2.8239255,-0.6551717,0.47670484,4.351602,2.2493043,-5.960816
1747672460.381213,2.8239255,-0.6551717,0.47670484,4.351602,2.2493043,-5.960816
1747672460.3819914,2.8239255,-0.6551717,0.47670484,4.351602,2.2493043,-5.960816
1747672460.3827379,2.8239255,-0.6551717,0.47670484,4.351602,2.2493043,-5.960816
1747672460.383479,2.8239255,-0.6551717,0.47670484,4.351602,2.2493043,-5.960816
1747672460.3842208,2.8239255,-0.6551717,0.47670484,4.351602,2.2493043,-5.960816
1747672460.3849618,2.8239255,-0.6551717,0.47670484,4.351602,2.2493043,-5.960816
1747672460.3856826,2.8239255,-0.6551717,0.47670484,4.351602,2.2493043,-5.960816
1747672460.3863947,2.587678,-0.81869,0.043259148,4.351602,2.2493043,-5.960816
1747672460.3871279,2.587678,-0.81869,0.043259148,4.613657,1.9073546,-5.558146
1747672460.387834,2.587678,-0.81869,0.043259148,4.613657,1.9073546,-5.558146
1747672460.3885825,2.587678,-0.81869,0.043259148,4.613657,1.9073546,-5.558146
1747672460.3893156,2.587678,-0.81869,0.043259148,4.613657,1.9073546,-5.558146
1747672460.3900163,2.587678,-0.81869,0.043259148,4.613657,1.9073546,-5.558146
1747672460.3907094,2.587678,-0.81869,0.043259148,4.613657,1.9073546,-5.558146
1747672460.3914044,2.587678,-0.81869,0.043259148,4.613657,1.9073546,-5.558146
1747672460.3921618,2.587678,-0.81869,0.043259148,4.613657,1.9073546,-5.558146
1747672460.392904,2.587678,-0.81869,0.043259148,4.613657,1.9073546,-5.558146
1747672460.3949502,2.587678,-0.81869,0.043259148,4.613657,1.9073546,-5.558146
1747672460.3958833,2.587678,-0.81869,0.043259148,4.5390882,1.6911061,-5.3216577
1747672460.3967698,2.587678,-0.81869,0.043259148,4.5390882,1.6911061,-5.3216577
1747672460.3975627,2.587678,-0.81869,0.043259148,4.5390882,1.6911061,-5.3216577
1747672460.398648,2.587678,-0.81869,0.043259148,4.5390882,1.6911061,-5.3216577
1747672460.3995116,2.587678,-0.81869,0.043259148,4.5390882,1.6911061,-5.3216577
1747672460.4003148,2.587678,-0.81869,0.043259148,4.5390882,1.6911061,-5.3216577
1747672460.4011283,2.587678,-0.81869,0.043259148,4.5390882,1.6911061,-5.3216577
1747672460.4019332,2.587678,-0.81869,0.043259148,4.5390882,1.6911061,-5.3216577
1747672460.4027576,2.2987142,-1.0417584,-0.40092504,4.5390882,1.6911061,-5.3216577
1747672460.4035704,2.2987142,-1.0417584,-0.40092504,4.5390882,1.6911061,-5.3216577
1747672460.4045172,2.2987142,-1.0417584,-0.40092504,4.5390882,1.6911061,-5.3216577
1747672460.4054444,2.2987142,-1.0417584,-0.40092504,4.5390882,1.6911061,-5.3216577
1747672460.4064608,2.2987142,-1.0417584,-0.40092504,4.5390882,1.6911061,-5.3216577
1747672460.40757,2.2987142,-1.0417584,-0.40092504,4.5390882,1.6911061,-5.3216577
1747672460.4093025,2.0741816,-1.1877046,-0.6288745,4.230162,1.6005586,-5.2151313
1747672460.4101295,2.0741816,-1.1877046,-0.6288745,4.230162,1.6005586,-5.2151313
1747672460.4127915,2.0741816,-1.1877046,-0.6288745,4.230162,1.6005586,-5.2151313
1747672460.4137373,2.0741816,-1.1877046,-0.6288745,4.230162,1.6005586,-5.2151313
1747672460.4147203,2.0741816,-1.1877046,-0.6288745,4.230162,1.6005586,-5.2151313
1747672460.4156826,2.0741816,-1.1877046,-0.6288745,4.230162,1.6005586,-5.2151313
1747672460.4166858,2.0741816,-1.1877046,-0.6288745,4.230162,1.6005586,-5.2151313
1747672460.417631,2.0741816,-1.1877046,-0.6288745,4.230162,1.6005586,-5.2151313
1747672460.4184527,2.0741816,-1.1877046,-0.6288745,4.230162,1.6005586,-5.2151313
1747672460.4192815,2.0741816,-1.1877046,-0.6288745,4.230162,1.6005586,-5.2151313
1747672460.4200714,2.0741816,-1.1877046,-0.6288745,4.230162,1.6005586,-5.2151313
1747672460.4209056,2.0741816,-1.1877046,-0.6288745,4.230162,1.6005586,-5.2151313
1747672460.421858,2.0741816,-1.1877046,-0.6288745,4.230162,1.6005586,-5.2151313
1747672460.422962,2.0741816,-1.1877046,-0.6288745,4.230162,1.6005586,-5.2151313
1747672460.4238431,2.0741816,-1.1877046,-0.6288745,4.230162,1.6005586,-5.2151313
1747672460.4250863,1.4513474,-1.3775811,-0.8343707,3.664507,1.6122766,-5.0862346
1747672460.4258816,1.4513474,-1.3775811,-0.8343707,3.664507,1.6122766,-5.0862346
1747672460.4267166,1.4513474,-1.3775811,-0.8343707,3.664507,1.6122766,-5.0862346
1747672460.427558,0.8885515,-1.4839901,-0.7792138,3.1180267,1.6602134,-4.86466
1747672460.4283712,0.8885515,-1.4839901,-0.7792138,3.1180267,1.6602134,-4.86466
1747672460.4291294,0.8885515,-1.4839901,-0.7792138,3.1180267,1.6602134,-4.86466
1747672460.4298875,0.8885515,-1.4839901,-0.7792138,3.1180267,1.6602134,-4.86466
1747672460.4306111,0.8885515,-1.4839901,-0.7792138,3.1180267,1.6602134,-4.86466
1747672460.4313462,0.8885515,-1.4839901,-0.7792138,3.1180267,1.6602134,-4.86466
1747672460.4321065,0.8885515,-1.4839901,-0.7792138,3.1180267,1.6602134,-4.86466
1747672460.432852,0.8885515,-1.4839901,-0.7792138,3.1180267,1.6602134,-4.86466
1747672460.4335372,0.8885515,-1.4839901,-0.7792138,3.1180267,1.6602134,-4.86466
1747672460.4342449,0.8885515,-1.4839901,-0.7792138,3.1180267,1.6602134,-4.86466
1747672460.4349658,0.8885515,-1.4839901,-0.7792138,3.1180267,1.6602134,-4.86466
1747672460.4356756,0.8885515,-1.4839901,-0.7792138,3.1180267,1.6602134,-4.86466
1747672460.436364,0.8885515,-1.4839901,-0.7792138,2.6397233,1.6463649,-4.489687
1747672460.4370956,0.22325136,-1.6782596,-0.69037694,2.6397233,1.6463649,-4.489687
1747672460.4378684,0.22325136,-1.6782596,-0.69037694,2.6397233,1.6463649,-4.489687
1747672460.43857,0.22325136,-1.6782596,-0.69037694,2.6397233,1.6463649,-4.489687
1747672460.4393237,0.22325136,-1.6782596,-0.69037694,2.6397233,1.6463649,-4.489687
1747672460.4400744,0.22325136,-1.6782596,-0.69037694,2.6397233,1.6463649,-4.489687
1747672460.440826,0.22325136,-1.6782596,-0.69037694,2.6397233,1.6463649,-4.489687
1747672460.4435048,-0.30976966,-1.761239,-0.728938,2.6397233,1.6463649,-4.489687
1747672460.4451904,-0.30976966,-1.761239,-0.728938,2.3552978,1.3310469,-3.9762297
1747672460.4463804,-0.30976966,-1.761239,-0.728938,2.3552978,1.3310469,-3.9762297
1747672460.4475183,-0.30976966,-1.761239,-0.728938,2.3552978,1.3310469,-3.9762297
1747672460.4487574,-0.30976966,-1.761239,-0.728938,2.3552978,1.3310469,-3.9762297
1747672460.4500024,-0.30976966,-1.761239,-0.728938,2.3552978,1.3310469,-3.9762297
1747672460.450901,-0.30976966,-1.761239,-0.728938,2.3552978,1.3310469,-3.9762297
1747672460.4517238,-0.30976966,-1.761239,-0.728938,2.3552978,1.3310469,-3.9762297
1747672460.4527586,-0.30976966,-1.761239,-0.728938,2.3552978,1.3310469,-3.9762297
1747672460.4538085,-0.30976966,-1.761239,-0.728938,2.3552978,1.3310469,-3.9762297
1747672460.4563518,-0.30976966,-1.761239,-0.728938,2.3552978,1.3310469,-3.9762297
1747672460.4574234,-0.5196589,-1.9574611,-0.963233,1.9046913,0.7632614,-3.2497199
1747672460.4582272,-0.5196589,-1.9574611,-0.963233,1.9046913,0.7632614,-3.2497199
1747672460.459023,-0.5196589,-1.9574611,-0.963233,1.9046913,0.7632614,-3.2497199
1747672460.4598303,-0.5196589,-1.9574611,-0.963233,1.9046913,0.7632614,-3.2497199
1747672460.460362,-0.5196589,-1.9574611,-0.963233,1.9046913,0.7632614,-3.2497199
1747672460.4612029,-0.5196589,-1.9574611,-0.963233,1.9046913,0.7632614,-3.2497199
1747672460.461999,-0.5196589,-1.9574611,-0.963233,1.9046913,0.7632614,-3.2497199
1747672460.4628367,-0.5196589,-1.9574611,-0.963233,1.9046913,0.7632614,-3.2497199
1747672460.4637358,-0.5196589,-1.9574611,-0.963233,1.9046913,0.7632614,-3.2497199
1747672460.4647334,-0.5196589,-1.9574611,-0.963233,1.9046913,0.7632614,-3.2497199
1747672460.4658182,-0.5196589,-1.9574611,-0.963233,1.9046913,0.7632614,-3.2497199
1747672460.466638,-0.3180676,-2.3474646,-1.2009447,1.0418278,0.1944106,-2.490187
1747672460.4674258,-0.3180676,-2.3474646,-1.2009447,1.0418278,0.1944106,-2.490187
1747672460.4682586,-0.3180676,-2.3474646,-1.2009447,1.0418278,0.1944106,-2.490187
1747672460.4702344,-0.3180676,-2.3474646,-1.2009447,1.0418278,0.1944106,-2.490187
1747672460.4713948,-0.3180676,-2.3474646,-1.2009447,1.0418278,0.1944106,-2.490187
1747672460.4725177,-0.3180676,-2.3474646,-1.2009447,1.0418278,0.1944106,-2.490187
1747672460.473579,0.35308984,-2.7477186,-1.4938134,-0.32064435,-0.28815383,-1.9788604
1747672460.4744105,0.35308984,-2.7477186,-1.4938134,-0.32064435,-0.28815383,-1.9788604
1747672460.4752922,0.35308984,-2.7477186,-1.4938134,-0.32064435,-0.28815383,-1.9788604
1747672460.4760807,0.35308984,-2.7477186,-1.4938134,-0.32064435,-0.28815383,-1.9788604
1747672460.4768767,0.35308984,-2.7477186,-1.4938134,-0.32064435,-0.28815383,-1.9788604
1747672460.4776347,0.35308984,-2.7477186,-1.4938134,-0.32064435,-0.28815383,-1.9788604
1747672460.4783747,0.35308984,-2.7477186,-1.4938134,-0.32064435,-0.28815383,-1.9788604
1747672460.4790657,0.35308984,-2.7477186,-1.4938134,-0.32064435,-0.28815383,-1.9788604
1747672460.4797616,0.35308984,-2.7477186,-1.4938134,-0.32064435,-0.28815383,-1.9788604
1747672460.4805014,0.35308984,-2.7477186,-1.4938134,-0.32064435,-0.28815383,-1.9788604
1747672460.4812434,0.35308984,-2.7477186,-1.4938134,-0.32064435,-0.28815383,-1.9788604
1747672460.4819474,0.35308984,-2.7477186,-1.4938134,-0.32064435,-0.28815383,-1.9788604
1747672460.4826891,0.35308984,-2.7477186,-1.4938134,-0.32064435,-0.28815383,-1.9788604
1747672460.4834373,0.35308984,-2.7477186,-1.4938134,-0.32064435,-0.28815383,-1.9788604
1747672460.4841828,0.35308984,-2.7477186,-1.4938134,-0.32064435,-0.28815383,-1.9788604
1747672460.4849246,0.35308984,-2.7477186,-1.4938134,-0.32064435,-0.28815383,-1.9788604
1747672460.485654,0.8787892,-2.8253288,-1.3239496,-1.915344,-0.69401926,-1.8414414
1747672460.486412,0.8787892,-2.8253288,-1.3239496,-1.915344,-0.69401926,-1.8414414
1747672460.4878297,0.8787892,-2.8253288,-1.3239496,-1.915344,-0.69401926,-1.8414414
1747672460.4892032,0.8787892,-2.8253288,-1.3239496,-1.915344,-0.69401926,-1.8414414
1747672460.4902306,0.8787892,-2.8253288,-1.3239496,-1.915344,-0.69401926,-1.8414414
1747672460.4910448,0.8787892,-2.8253288,-1.3239496,-1.915344,-0.69401926,-1.8414414
1747672460.4918642,0.8787892,-2.8253288,-1.3239496,-1.915344,-0.69401926,-1.8414414
1747672460.4928713,0.8787892,-2.8253288,-1.3239496,-1.915344,-0.69401926,-1.8414414
1747672460.493678,0.8787892,-2.8253288,-1.3239496,-1.915344,-0.69401926,-1.8414414
1747672460.49473,1.0681776,-3.0542543,-0.7592011,-1.915344,-0.69401926,-1.8414414
1747672460.4955273,1.0681776,-3.0542543,-0.7592011,-1.915344,-0.69401926,-1.8414414
1747672460.4964738,1.0681776,-3.0542543,-0.7592011,-3.3513193,-0.6769751,-1.8968351
1747672460.497445,1.0681776,-3.0542543,-0.7592011,-3.3513193,-0.6769751,-1.8968351
1747672460.4982421,1.0681776,-3.0542543,-0.7592011,-3.3513193,-0.6769751,-1.8968351
1747672460.4990418,1.0681776,-3.0542543,-0.7592011,-3.3513193,-0.6769751,-1.8968351
1747672460.5010006,1.0681776,-3.0542543,-0.7592011,-3.3513193,-0.6769751,-1.8968351
1747672460.5027812,1.0681776,-3.0542543,-0.7592011,-3.3513193,-0.6769751,-1.8968351
1747672460.5043266,1.0681776,-3.0542543,-0.7592011,-3.3513193,-0.6769751,-1.8968351
1747672460.505465,1.0681776,-3.0542543,-0.7592011,-3.3513193,-0.6769751,-1.8968351
1747672460.5064316,0.74699825,-3.2856207,0.16479966,-4.1790295,-0.16245271,-1.9010961
1747672460.5074606,0.74699825,-3.2856207,0.16479966,-4.1790295,-0.16245271,-1.9010961
1747672460.508267,0.74699825,-3.2856207,0.16479966,-4.1790295,-0.16245271,-1.9010961
1747672460.5091326,0.74699825,-3.2856207,0.16479966,-4.1790295,-0.16245271,-1.9010961
1747672460.5099692,0.74699825,-3.2856207,0.16479966,-4.1790295,-0.16245271,-1.9010961
1747672460.5108135,0.74699825,-3.2856207,0.16479966,-4.1790295,-0.16245271,-1.9010961
1747672460.5121307,0.74699825,-3.2856207,0.16479966,-4.1790295,-0.16245271,-1.9010961
1747672460.5131052,0.74699825,-3.2856207,0.16479966,-4.1790295,-0.16245271,-1.9010961
1747672460.513918,0.74699825,-3.2856207,0.16479966,-4.1790295,-0.16245271,-1.9010961
1747672460.5148284,0.74699825,-3.2856207,0.16479966,-4.1790295,-0.16245271,-1.9010961
1747672460.5161107,0.74699825,-3.2856207,0.16479966,-4.016044,0.2093243,-1.4931002
1747672460.5175529,0.026541224,-3.1958077,1.1849589,-4.016044,0.2093243,-1.4931002
1747672460.518743,0.026541224,-3.1958077,1.1849589,-4.016044,0.2093243,-1.4931002
1747672460.519678,0.026541224,-3.1958077,1.1849589,-4.016044,0.2093243,-1.4931002
1747672460.5209377,0.026541224,-3.1958077,1.1849589,-4.016044,0.2093243,-1.4931002
1747672460.5217314,0.026541224,-3.1958077,1.1849589,-4.016044,0.2093243,-1.4931002
1747672460.5225127,0.026541224,-3.1958077,1.1849589,-4.016044,0.2093243,-1.4931002
1747672460.5232742,0.026541224,-3.1958077,1.1849589,-4.016044,0.2093243,-1.4931002
1747672460.524153,0.026541224,-3.1958077,1.1849589,-4.016044,0.2093243,-1.4931002
1747672460.5249245,0.026541224,-3.1958077,1.1849589,-4.016044,0.2093243,-1.4931002
1747672460.5257163,-0.5421122,-2.9014745,1.7370164,-4.016044,0.2093243,-1.4931002
1747672460.5264833,-0.5421122,-2.9014745,1.7370164,-3.184073,0.048469495,-0.761264
1747672460.5272684,-0.5421122,-2.9014745,1.7370164,-3.184073,0.048469495,-0.761264
1747672460.5280447,-0.5421122,-2.9014745,1.7370164,-3.184073,0.048469495,-0.761264
1747672460.5288446,-0.5421122,-2.9014745,1.7370164,-3.184073,0.048469495,-0.761264
1747672460.5296204,-0.5421122,-2.9014745,1.7370164,-3.184073,0.048469495,-0.761264
1747672460.530449,-0.5421122,-2.9014745,1.7370164,-3.184073,0.048469495,-0.761264
1747672460.5312276,-0.5421122,-2.9014745,1.7370164,-3.184073,0.048469495,-0.761264
1747672460.531991,-0.5421122,-2.9014745,1.7370164,-3.184073,0.048469495,-0.761264
1747672460.532774,-0.5421122,-2.9014745,1.7370164,-3.184073,0.048469495,-0.761264
1747672460.5335178,-0.5421122,-2.9014745,1.7370164,-3.184073,0.048469495,-0.761264
1747672460.5343518,-0.5421122,-2.9014745,1.7370164,-3.184073,0.048469495,-0.761264
1747672460.5351782,-0.5421122,-2.9014745,1.7370164,-3.184073,0.048469495,-0.761264
1747672460.537224,-0.5421122,-2.9014745,1.7370164,-3.184073,0.048469495,-0.761264
1747672460.5381644,-0.82912344,-2.5329483,1.9254287,-1.6799208,-0.53529495,0.51385653
1747672460.539803,-0.82912344,-2.5329483,1.9254287,-1.6799208,-0.53529495,0.51385653
1747672460.5406744,-0.82912344,-2.5329483,1.9254287,-1.6799208,-0.53529495,0.51385653
1747672460.5418968,-0.82912344,-2.5329483,1.9254287,-1.6799208,-0.53529495,0.51385653
1747672460.542883,-0.82912344,-2.5329483,1.9254287,-1.6799208,-0.53529495,0.51385653
1747672460.5438352,-0.82912344,-2.5329483,1.9254287,-1.6799208,-0.53529495,0.51385653
1747672460.5451162,-0.82912344,-2.5329483,1.9254287,-1.6799208,-0.53529495,0.51385653
1747672460.5460637,-0.82912344,-2.5329483,1.9254287,-1.6799208,-0.53529495,0.51385653
1747672460.5529532,-0.82912344,-2.5329483,1.9254287,0.0042610546,-1.0380994,2.0041604
1747672460.5539322,-0.82912344,-2.5329483,1.9254287,0.0042610546,-1.0380994,2.0041604
1747672460.5549054,-0.485979,-2.1849227,1.4007056,0.0042610546,-1.0380994,2.0041604
1747672460.5558522,-0.485979,-2.1849227,1.4007056,0.0042610546,-1.0380994,2.0041604
1747672460.556891,-0.485979,-2.1849227,1.4007056,0.0042610546,-1.0380994,2.0041604
1747672460.5578492,-0.485979,-2.1849227,1.4007056,0.0042610546,-1.0380994,2.0041604
1747672460.5587924,0.13197397,-1.9423296,0.7934911,0.86499405,-1.0881668,2.798847
1747672460.5596106,0.13197397,-1.9423296,0.7934911,0.86499405,-1.0881668,2.798847
1747672460.5606267,0.13197397,-1.9423296,0.7934911,0.86499405,-1.0881668,2.798847
1747672460.5628736,0.13197397,-1.9423296,0.7934911,0.86499405,-1.0881668,2.798847
1747672460.5639849,0.588361,-1.6787479,0.19896767,0.86499405,-1.0881668,2.798847
1747672460.5653708,0.588361,-1.6787479,0.19896767,1.1973563,-0.93263835,3.157841
1747672460.5664885,0.588361,-1.6787479,0.19896767,1.1973563,-0.93263835,3.157841
1747672460.5677679,0.588361,-1.6787479,0.19896767,1.1973563,-0.93263835,3.157841
1747672460.5691671,0.588361,-1.6787479,0.19896767,1.1973563,-0.93263835,3.157841
1747672460.5700262,0.588361,-1.6787479,0.19896767,1.1973563,-0.93263835,3.157841
1747672460.5708582,0.588361,-1.6787479,0.19896767,1.1973563,-0.93263835,3.157841
1747672460.571629,0.588361,-1.6787479,0.19896767,1.1973563,-0.93263835,3.157841
1747672460.5724056,0.588361,-1.6787479,0.19896767,1.1973563,-0.93263835,3.157841
1747672460.5732007,0.588361,-1.6787479,0.19896767,1.1973563,-0.93263835,3.157841
1747672460.5740058,0.77530885,-1.436643,-0.28182513,1.0514152,-0.6769751,3.2941947
1747672460.574786,0.77530885,-1.436643,-0.28182513,1.0514152,-0.6769751,3.2941947
1747672460.5755436,0.77530885,-1.436643,-0.28182513,1.0514152,-0.6769751,3.2941947
1747672460.5763445,0.77530885,-1.436643,-0.28182513,1.0514152,-0.6769751,3.2941947
1747672460.5771198,0.77530885,-1.436643,-0.28182513,1.0514152,-0.6769751,3.2941947
1747672460.577877,0.77530885,-1.436643,-0.28182513,1.0514152,-0.6769751,3.2941947
1747672460.5786476,0.77530885,-1.436643,-0.28182513,1.0514152,-0.6769751,3.2941947
1747672460.579426,0.77530885,-1.436643,-0.28182513,1.0514152,-0.6769751,3.2941947
1747672460.5802083,0.77530885,-1.436643,-0.28182513,1.0514152,-0.6769751,3.2941947
1747672460.5810187,0.77530885,-1.436643,-0.28182513,1.0514152,-0.6769751,3.2941947
1747672460.5835388,0.77530885,-1.436643,-0.28182513,1.0514152,-0.6769751,3.2941947
1747672460.593331,0.78751177,-1.2257776,-0.5312516,0.58909076,-0.4554002,3.4443967
1747672460.594688,0.78751177,-1.2257776,-0.5312516,0.58909076,-0.4554002,3.4443967
1747672460.599408,0.78751177,-1.2257776,-0.5312516,0.58909076,-0.4554002,3.4443967
1747672460.600412,0.75822484,-1.0241861,-0.5151438,0.05539371,-0.33502543,3.6638412
1747672460.605679,0.70404416,-0.86359656,-0.35357794,-0.37710333,-0.21891168,3.9770286
1747672460.6066608,0.70404416,-0.86359656,-0.35357794,-0.37710333,-0.21891168,3.9770286
1747672460.6079898,0.70404416,-0.86359656,-0.35357794,-0.37710333,-0.21891168,3.9770286
1747672460.6099594,0.70404416,-0.86359656,-0.35357794,-0.37710333,-0.21891168,3.9770286
1747672460.6114268,0.70404416,-0.86359656,-0.35357794,-0.37710333,-0.21891168,3.9770286
1747672460.6126714,0.70404416,-0.86359656,-0.35357794,-0.37710333,-0.21891168,3.9770286
1747672460.6137812,0.70404416,-0.86359656,-0.35357794,-0.37710333,-0.21891168,3.9770286
1747672460.6149552,0.70404416,-0.86359656,-0.35357794,-0.37710333,-0.21891168,3.9770286
1747672460.6157427,0.70404416,-0.86359656,-0.35357794,-0.37710333,-0.21891168,3.9770286
1747672460.6165073,0.70404416,-0.86359656,-0.35357794,-0.37710333,-0.21891168,3.9770286
1747672460.6172748,0.70404416,-0.86359656,-0.35357794,-0.37710333,-0.21891168,3.9770286
1747672460.6180758,0.70404416,-0.86359656,-0.35357794,-0.37710333,-0.21891168,3.9770286
1747672460.6189237,0.7103896,-0.7552352,-0.22764441,-0.60506976,-0.09853689,4.2753024
1747672460.6196787,0.7103896,-0.7552352,-0.22764441,-0.60506976,-0.09853689,4.2753024
1747672460.6204503,0.7103896,-0.7552352,-0.22764441,-0.60506976,-0.09853689,4.2753024
1747672460.6212063,0.7103896,-0.7552352,-0.22764441,-0.60506976,-0.09853689,4.2753024
1747672460.6220005,0.7103896,-0.7552352,-0.22764441,-0.60506976,-0.09853689,4.2753024
1747672460.6227643,0.7103896,-0.7552352,-0.22764441,-0.60506976,-0.09853689,4.2753024
1747672460.6235583,0.7103896,-0.7552352,-0.22764441,-0.60506976,-0.09853689,4.2753024
1747672460.6243203,0.7103896,-0.7552352,-0.22764441,-0.60506976,-0.09853689,4.2753024
1747672460.625076,0.7103896,-0.7552352,-0.22764441,-0.60506976,-0.09853689,4.2753024
1747672460.625886,0.86121696,-0.58390695,0.047652178,-0.68496454,0.009054741,4.650275
1747672460.6266432,0.86121696,-0.58390695,0.047652178,-0.68496454,0.009054741,4.650275
1747672460.6274874,0.86121696,-0.58390695,0.047652178,-0.68496454,0.009054741,4.650275
1747672460.6282637,0.86121696,-0.58390695,0.047652178,-0.68496454,0.009054741,4.650275
1747672460.6300402,0.86121696,-0.58390695,0.047652178,-0.68496454,0.009054741,4.650275
1747672460.631152,0.86121696,-0.58390695,0.047652178,-0.68496454,0.009054741,4.650275
1747672460.6322074,0.86121696,-0.58390695,0.047652178,-0.68496454,0.009054741,4.650275
1747672460.63328,0.86121696,-0.58390695,0.047652178,-0.68496454,0.009054741,4.650275
1747672460.634584,0.86121696,-0.58390695,0.047652178,-0.68496454,0.009054741,4.650275
1747672460.635655,0.86121696,-0.58390695,0.047652178,-0.68496454,0.009054741,4.650275
1747672460.636645,0.86121696,-0.58390695,0.047652178,-0.68496454,0.009054741,4.650275
1747672460.6374927,1.0515816,-0.48823652,0.21751602,-0.5187834,0.010120004,4.9453535
1747672460.6385128,1.0515816,-0.48823652,0.21751602,-0.5187834,0.010120004,4.9453535
1747672460.6393273,1.0515816,-0.48823652,0.21751602,-0.5187834,0.010120004,4.9453535
1747672460.640146,1.0515816,-0.48823652,0.21751602,-0.5187834,0.010120004,4.9453535
1747672460.6409652,1.0515816,-0.48823652,0.21751602,-0.5187834,0.010120004,4.9453535
1747672460.6419296,1.0515816,-0.48823652,0.21751602,-0.5187834,0.010120004,4.9453535
1747672460.643165,1.0515816,-0.48823652,0.21751602,-0.5187834,0.010120004,4.9453535
1747672460.644185,1.0515816,-0.48823652,0.21751602,-0.5187834,0.010120004,4.9453535
1747672460.645364,1.0515816,-0.48823652,0.21751602,-0.5187834,0.010120004,4.9453535
1747672460.6468487,1.0515816,-0.48823652,0.21751602,-0.5187834,0.010120004,4.9453535
1747672460.6477954,1.0515816,-0.48823652,0.21751602,-0.5187834,0.010120004,4.9453535
1747672460.6487367,1.0515816,-0.48823652,0.21751602,-0.5187834,0.010120004,4.9453535
1747672460.649634,1.3249258,-0.3144678,0.18139556,-0.5187834,0.010120004,4.9453535
1747672460.6504443,1.3249258,-0.3144678,0.18139556,-0.16085482,-0.18269272,5.164798
1747672460.6512527,1.3249258,-0.3144678,0.18139556,-0.16085482,-0.18269272,5.164798
1747672460.6520748,1.3249258,-0.3144678,0.18139556,-0.16085482,-0.18269272,5.164798
1747672460.6543133,1.3249258,-0.3144678,0.18139556,-0.16085482,-0.18269272,5.164798
1747672460.6559017,1.3249258,-0.3144678,0.18139556,-0.16085482,-0.18269272,5.164798
1747672460.6570196,1.3249258,-0.3144678,0.18139556,0.09480847,-0.37550545,5.2319093
1747672460.6582582,1.611449,-0.17096211,0.022270223,0.09480847,-0.37550545,5.2319093
1747672460.6590917,1.611449,-0.17096211,0.022270223,0.09480847,-0.37550545,5.2319093
1747672460.6599302,1.611449,-0.17096211,0.022270223,0.09480847,-0.37550545,5.2319093
1747672460.6609972,1.611449,-0.17096211,0.022270223,0.09480847,-0.37550545,5.2319093
1747672460.6618862,1.611449,-0.17096211,0.022270223,0.09480847,-0.37550545,5.2319093
1747672460.6627028,1.611449,-0.17096211,0.022270223,0.09480847,-0.37550545,5.2319093
1747672460.6634834,1.611449,-0.17096211,0.022270223,0.09480847,-0.37550545,5.2319093
1747672460.6643095,1.8442796,-0.080660924,-0.1466174,0.09480847,-0.37550545,5.2319093
1747672460.6650586,1.8442796,-0.080660924,-0.1466174,0.27164224,-0.57790554,5.1562753
1747672460.6658633,1.8442796,-0.080660924,-0.1466174,0.27164224,-0.57790554,5.1562753
1747672460.666704,1.8442796,-0.080660924,-0.1466174,0.27164224,-0.57790554,5.1562753
1747672460.667494,1.8442796,-0.080660924,-0.1466174,0.27164224,-0.57790554,5.1562753
1747672460.668287,1.8442796,-0.080660924,-0.1466174,0.27164224,-0.57790554,5.1562753
1747672460.669041,1.8442796,-0.080660924,-0.1466174,0.27164224,-0.57790554,5.1562753
1747672460.6698015,1.8442796,-0.080660924,-0.1466174,0.27164224,-0.57790554,5.1562753
1747672460.6705823,1.8442796,-0.080660924,-0.1466174,0.27164224,-0.57790554,5.1562753
1747672460.6713948,1.8442796,-0.080660924,-0.1466174,0.27164224,-0.57790554,5.1562753
1747672460.672158,1.8442796,-0.080660924,-0.1466174,0.27164224,-0.57790554,5.1562753
1747672460.672941,1.8442796,-0.080660924,-0.1466174,0.27164224,-0.57790554,5.1562753
1747672460.6737235,1.8442796,-0.080660924,-0.1466174,0.27164224,-0.57790554,5.1562753
1747672460.6745057,1.8442796,-0.080660924,-0.1466174,0.27164224,-0.57790554,5.1562753
1747672460.6752844,1.8442796,-0.080660924,-0.1466174,0.27164224,-0.57790554,5.1562753
1747672460.676792,1.8442796,-0.080660924,-0.1466174,0.27164224,-0.57790554,5.1562753
1747672460.6776333,1.8442796,-0.080660924,-0.1466174,0.27164224,-0.57790554,5.1562753
1747672460.678479,1.9506885,-0.106530994,-0.3828648,0.34194964,-0.91239834,5.0145955
1747672460.6793242,1.9506885,-0.106530994,-0.3828648,0.34194964,-0.91239834,5.0145955
1747672460.6801615,1.9506885,-0.106530994,-0.3828648,0.34194964,-0.91239834,5.0145955
1747672460.68097,1.9506885,-0.106530994,-0.3828648,0.34194964,-0.91239834,5.0145955
1747672460.6817806,1.9506885,-0.106530994,-0.3828648,0.34194964,-0.91239834,5.0145955
1747672460.682573,1.9506885,-0.106530994,-0.3828648,0.34194964,-0.91239834,5.0145955
1747672460.683906,1.9506885,-0.106530994,-0.3828648,0.34194964,-0.91239834,5.0145955
1747672460.684981,1.9506885,-0.106530994,-0.3828648,0.34194964,-0.91239834,5.0145955
1747672460.6861026,1.9506885,-0.106530994,-0.3828648,0.34194964,-0.91239834,5.0145955
1747672460.6869926,1.7983967,-0.18121251,-0.6674355,0.17150745,-1.0998847,4.9698544
1747672460.6878002,1.7983967,-0.18121251,-0.6674355,0.17150745,-1.0998847,4.9698544
1747672460.6889584,1.7983967,-0.18121251,-0.6674355,0.17150745,-1.0998847,4.9698544
1747672460.6897838,1.7983967,-0.18121251,-0.6674355,0.17150745,-1.0998847,4.9698544
1747672460.6920938,1.7983967,-0.18121251,-0.6674355,0.17150745,-1.0998847,4.9698544
1747672460.692999,1.7983967,-0.18121251,-0.6674355,0.17150745,-1.0998847,4.9698544
1747672460.693895,1.7983967,-0.18121251,-0.6674355,0.17150745,-1.0998847,4.9698544
1747672460.6948311,1.7983967,-0.18121251,-0.6674355,0.17150745,-1.0998847,4.9698544
1747672460.6956775,1.7983967,-0.18121251,-0.6674355,0.17150745,-1.0998847,4.9698544
1747672460.6964922,1.7983967,-0.18121251,-0.6674355,0.17150745,-1.0998847,4.9698544
1747672460.6972895,1.7983967,-0.18121251,-0.6674355,0.17150745,-1.0998847,4.9698544
1747672460.6982324,1.7983967,-0.18121251,-0.6674355,0.17150745,-1.0998847,4.9698544
1747672460.6993015,1.7983967,-0.18121251,-0.6674355,0.17150745,-1.0998847,4.9698544
1747672460.7001839,1.7983967,-0.18121251,-0.6674355,0.17150745,-1.0998847,4.9698544
1747672460.700992,1.5743524,-0.35010013,-0.8963613,-0.2993391,-0.95181304,5.226583
1747672460.701862,1.5743524,-0.35010013,-0.8963613,-0.2993391,-0.95181304,5.226583
1747672460.7026734,1.5743524,-0.35010013,-0.8963613,-0.2993391,-0.95181304,5.226583
1747672460.7034888,1.5743524,-0.35010013,-0.8963613,-0.2993391,-0.95181304,5.226583
1747672460.7046783,1.5743524,-0.35010013,-0.8963613,-0.2993391,-0.95181304,5.226583
1747672460.7054791,1.5743524,-0.35010013,-0.8963613,-0.82770985,-0.65353924,5.6569495
1747672460.706353,1.4772176,-0.5702398,-0.92857677,-0.82770985,-0.65353924,5.6569495
1747672460.7072482,1.4772176,-0.5702398,-0.92857677,-0.82770985,-0.65353924,5.6569495
1747672460.7080462,1.4772176,-0.5702398,-0.92857677,-0.82770985,-0.65353924,5.6569495
1747672460.7088542,1.4772176,-0.5702398,-0.92857677,-0.82770985,-0.65353924,5.6569495
1747672460.709672,1.4772176,-0.5702398,-0.92857677,-0.82770985,-0.65353924,5.6569495
1747672460.710648,1.4772176,-0.5702398,-0.92857677,-0.82770985,-0.65353924,5.6569495
1747672460.7114594,1.4772176,-0.5702398,-0.92857677,-0.82770985,-0.65353924,5.6569495
1747672460.7122355,1.4772176,-0.5702398,-0.92857677,-0.82770985,-0.65353924,5.6569495
1747672460.7130096,1.4772176,-0.5702398,-0.92857677,-0.82770985,-0.65353924,5.6569495
1747672460.713798,1.4772176,-0.5702398,-0.92857677,-0.82770985,-0.65353924,5.6569495
1747672460.7145903,1.4772176,-0.5702398,-0.92857677,-0.82770985,-0.65353924,5.6569495
1747672460.7154117,1.6905235,-0.82698804,-0.7089253,-0.82770985,-0.65353924,5.6569495
1747672460.7162209,1.6905235,-0.82698804,-0.7089253,-1.5403712,-0.36804858,6.5347266
1747672460.7170088,1.6905235,-0.82698804,-0.7089253,-1.5403712,-0.36804858,6.5347266
1747672460.7177444,1.6905235,-0.82698804,-0.7089253,-1.5403712,-0.36804858,6.5347266
1747672460.7185264,1.6905235,-0.82698804,-0.7089253,-1.5403712,-0.36804858,6.5347266
1747672460.7193012,1.6905235,-0.82698804,-0.7089253,-1.5403712,-0.36804858,6.5347266
1747672460.720054,1.6905235,-0.82698804,-0.7089253,-1.5403712,-0.36804858,6.5347266
1747672460.7208238,1.6905235,-0.82698804,-0.7089253,-1.5403712,-0.36804858,6.5347266
1747672460.721581,1.6905235,-0.82698804,-0.7089253,-1.5403712,-0.36804858,6.5347266
1747672460.7237575,1.6905235,-0.82698804,-0.7089253,-1.5403712,-0.36804858,6.5347266
1747672460.7248456,2.037573,-1.1305952,-0.4809758,-1.5403712,-0.36804858,6.5347266
1747672460.7257137,2.037573,-1.1305952,-0.4809758,-1.5403712,-0.36804858,6.5347266
1747672460.7265885,2.037573,-1.1305952,-0.4809758,-1.8727335,-0.4032023,7.286803
1747672460.7274346,2.037573,-1.1305952,-0.4809758,-1.8727335,-0.4032023,7.286803
1747672460.7283077,2.037573,-1.1305952,-0.4809758,-1.8727335,-0.4032023,7.286803
1747672460.7305284,2.037573,-1.1305952,-0.4809758,-1.8727335,-0.4032023,7.286803
1747672460.731322,2.037573,-1.1305952,-0.4809758,-1.8727335,-0.4032023,7.286803
1747672460.732254,2.037573,-1.1305952,-0.4809758,-1.8727335,-0.4032023,7.286803
1747672460.7330658,2.037573,-1.1305952,-0.4809758,-1.8727335,-0.4032023,7.286803
1747672460.7339628,2.037573,-1.1305952,-0.4809758,-1.8727335,-0.4032023,7.286803
1747672460.7348294,2.037573,-1.1305952,-0.4809758,-1.8727335,-0.4032023,7.286803
1747672460.7356553,2.037573,-1.1305952,-0.4809758,-1.8727335,-0.4032023,7.286803
1747672460.7393327,2.037573,-1.1305952,-0.4809758,-1.8727335,-0.4032023,7.286803
1747672460.740347,2.600369,-1.2291944,-0.44046235,-2.0847208,-0.7078677,8.044206
1747672460.741198,2.600369,-1.2291944,-0.44046235,-2.0847208,-0.7078677,8.044206
1747672460.742082,2.600369,-1.2291944,-0.44046235,-2.0847208,-0.7078677,8.044206
1747672460.7428737,2.600369,-1.2291944,-0.44046235,-2.0847208,-0.7078677,8.044206
1747672460.7437923,2.600369,-1.2291944,-0.44046235,-2.0847208,-0.7078677,8.044206
1747672460.7449565,2.600369,-1.2291944,-0.44046235,-2.2743378,-1.2000195,8.596012
1747672460.748332,3.277872,-1.1657394,-0.52051306,-2.2743378,-1.2000195,8.596012
1747672460.7492244,3.277872,-1.1657394,-0.52051306,-2.2743378,-1.2000195,8.596012
1747672460.7503388,3.277872,-1.1657394,-0.52051306,-2.2743378,-1.2000195,8.596012
1747672460.7512481,3.277872,-1.1657394,-0.52051306,-2.2743378,-1.2000195,8.596012
1747672460.7521513,3.277872,-1.1657394,-0.52051306,-2.2743378,-1.2000195,8.596012
1747672460.7530363,3.277872,-1.1657394,-0.52051306,-2.2743378,-1.2000195,8.596012
1747672460.7539413,3.277872,-1.1657394,-0.52051306,-2.2743378,-1.2000195,8.596012
1747672460.7548988,3.277872,-1.1657394,-0.52051306,-2.2743378,-1.2000195,8.596012
1747672460.7558162,3.277872,-1.1657394,-0.52051306,-2.2743378,-1.2000195,8.596012
1747672460.7566957,3.277872,-1.1657394,-0.52051306,-2.2743378,-1.2000195,8.596012
1747672460.7575104,3.277872,-1.1657394,-0.52051306,-2.2743378,-1.2000195,8.596012
1747672460.758291,3.277872,-1.1657394,-0.52051306,-2.2743378,-1.2000195,8.596012
1747672460.759051,3.277872,-1.1657394,-0.52051306,-2.2743378,-1.2000195,8.596012
1747672460.7598755,3.277872,-1.1657394,-0.52051306,-2.5395885,-1.8029587,8.966723
1747672460.7604156,3.277872,-1.1657394,-0.52051306,-2.5395885,-1.8029587,8.966723
1747672460.7611747,4.2990074,-1.197955,-0.6044688,-2.5395885,-1.8029587,8.966723
1747672460.7619188,4.2990074,-1.197955,-0.6044688,-2.5395885,-1.8029587,8.966723
1747672460.7626112,4.2990074,-1.197955,-0.6044688,-2.5395885,-1.8029587,8.966723
1747672460.763304,4.2990074,-1.197955,-0.6044688,-2.5395885,-1.8029587,8.966723
1747672460.7639964,4.2990074,-1.197955,-0.6044688,-2.5395885,-1.8029587,8.966723
1747672460.7646878,4.2990074,-1.197955,-0.6044688,-2.5395885,-1.8029587,8.966723
1747672460.7654164,5.4421716,-1.3165668,-0.750415,-2.5395885,-1.8029587,8.966723
1747672460.7661638,5.4421716,-1.3165668,-0.750415,-2.5395885,-1.8029587,8.966723
1747672460.7669325,5.4421716,-1.3165668,-0.750415,-2.5395885,-1.8029587,8.966723
1747672460.7676935,5.4421716,-1.3165668,-0.750415,-2.9475844,-2.2556958,8.99442
1747672460.7691836,5.4421716,-1.3165668,-0.750415,-2.9475844,-2.2556958,8.99442
1747672460.7708008,5.4421716,-1.3165668,-0.750415,-2.9475844,-2.2556958,8.99442
1747672460.771738,5.4421716,-1.3165668,-0.750415,-2.9475844,-2.2556958,8.99442
1747672460.772705,5.4421716,-1.3165668,-0.750415,-2.9475844,-2.2556958,8.99442
1747672460.7735367,5.4421716,-1.3165668,-0.750415,-2.9475844,-2.2556958,8.99442
1747672460.7743423,5.9917884,-1.3121737,-0.9168621,-2.9475844,-2.2556958,8.99442
1747672460.7757702,5.9917884,-1.3121737,-0.9168621,-3.4290836,-2.5145547,8.68869
1747672460.7772968,5.9917884,-1.3121737,-0.9168621,-3.4290836,-2.5145547,8.68869
1747672460.7791715,5.9917884,-1.3121737,-0.9168621,-3.4290836,-2.5145547,8.68869
1747672460.7800617,5.9917884,-1.3121737,-0.9168621,-3.4290836,-2.5145547,8.68869
1747672460.7809412,5.9917884,-1.3121737,-0.9168621,-3.4290836,-2.5145547,8.68869
1747672460.7818635,5.9917884,-1.3121737,-0.9168621,-3.4290836,-2.5145547,8.68869
1747672460.7830243,5.9917884,-1.3121737,-0.9168621,-3.4290836,-2.5145547,8.68869
1747672460.7839046,5.9917884,-1.3121737,-0.9168621,-3.4290836,-2.5145547,8.68869
1747672460.785011,5.9371195,-1.3199836,-1.0603677,-3.4290836,-2.5145547,8.68869
1747672460.7859151,5.9371195,-1.3199836,-1.0603677,-4.154528,-2.6977801,8.355262
1747672460.7867217,5.9371195,-1.3199836,-1.0603677,-4.154528,-2.6977801,8.355262
1747672460.787526,5.9371195,-1.3199836,-1.0603677,-4.154528,-2.6977801,8.355262
1747672460.7883387,5.9371195,-1.3199836,-1.0603677,-4.154528,-2.6977801,8.355262
1747672460.7893915,5.9371195,-1.3199836,-1.0603677,-4.154528,-2.6977801,8.355262
1747672460.790747,5.9371195,-1.3199836,-1.0603677,-4.154528,-2.6977801,8.355262
1747672460.7918682,5.9371195,-1.3199836,-1.0603677,-4.154528,-2.6977801,8.355262
1747672460.7927763,5.9371195,-1.3199836,-1.0603677,-4.154528,-2.6977801,8.355262
1747672460.7935753,5.6164284,-1.2174796,-0.8519428,-5.066394,-2.6029718,8.30626
1747672460.7943716,5.6164284,-1.2174796,-0.8519428,-5.066394,-2.6029718,8.30626
1747672460.79518,5.6164284,-1.2174796,-0.8519428,-5.066394,-2.6029718,8.30626
1747672460.795998,5.6164284,-1.2174796,-0.8519428,-5.066394,-2.6029718,8.30626
1747672460.797042,5.6164284,-1.2174796,-0.8519428,-5.066394,-2.6029718,8.30626
1747672460.798129,5.6164284,-1.2174796,-0.8519428,-5.066394,-2.6029718,8.30626
1747672460.7991982,5.6164284,-1.2174796,-0.8519428,-5.066394,-2.6029718,8.30626
1747672460.8002677,5.6164284,-1.2174796,-0.8519428,-5.066394,-2.6029718,8.30626
1747672460.8010693,5.6164284,-1.2174796,-0.8519428,-5.066394,-2.6029718,8.30626
1747672460.8018684,5.6164284,-1.2174796,-0.8519428,-5.066394,-2.6029718,8.30626
1747672460.8026416,5.6164284,-1.2174796,-0.8519428,-5.066394,-2.6029718,8.30626
1747672460.8034868,5.6164284,-1.2174796,-0.8519428,-5.066394,-2.6029718,8.30626
1747672460.804252,5.6164284,-1.2174796,-0.8519428,-5.066394,-2.6029718,8.30626
1747672460.8049965,5.502698,-1.1618346,-0.23203744,-5.839775,-2.4154854,8.533161
1747672460.805836,5.502698,-1.1618346,-0.23203744,-5.839775,-2.4154854,8.533161
1747672460.8066218,5.502698,-1.1618346,-0.23203744,-5.839775,-2.4154854,8.533161
1747672460.8074021,5.502698,-1.1618346,-0.23203744,-5.839775,-2.4154854,8.533161
1747672460.80817,5.502698,-1.1618346,-0.23203744,-5.839775,-2.4154854,8.533161
1747672460.8089268,5.502698,-1.1618346,-0.23203744,-5.839775,-2.4154854,8.533161
1747672460.8096807,5.502698,-1.1618346,-0.23203744,-5.839775,-2.4154854,8.533161
1747672460.810459,5.502698,-1.1618346,-0.23203744,-5.839775,-2.4154854,8.533161
1747672460.8112233,5.502698,-1.1618346,-0.23203744,-5.839775,-2.4154854,8.533161
1747672460.8119626,5.502698,-1.1618346,-0.23203744,-5.839775,-2.4154854,8.533161
1747672460.8127182,5.502698,-1.1618346,-0.23203744,-5.839775,-2.4154854,8.533161
1747672460.8134859,5.502698,-1.1618346,-0.23203744,-5.839775,-2.4154854,8.533161
1747672460.8142526,5.502698,-1.1618346,-0.23203744,-6.158289,-2.159822,8.692951
1747672460.8150043,5.502698,-1.1618346,-0.23203744,-6.158289,-2.159822,8.692951
1747672460.8158824,5.63937,-1.1413337,0.6304609,-6.158289,-2.159822,8.692951
1747672460.817153,5.63937,-1.1413337,0.6304609,-6.158289,-2.159822,8.692951
1747672460.8183618,5.63937,-1.1413337,0.6304609,-6.158289,-2.159822,8.692951
1747672460.8199565,5.63937,-1.1413337,0.6304609,-6.158289,-2.159822,8.692951
1747672460.820764,5.63937,-1.1413337,0.6304609,-6.158289,-2.159822,8.692951
1747672460.821577,5.63937,-1.1413337,0.6304609,-6.158289,-2.159822,8.692951
1747672460.8223987,5.63937,-1.1413337,0.6304609,-6.158289,-2.159822,8.692951
1747672460.823199,5.7433386,-0.950481,1.5383539,-6.158289,-2.159822,8.692951
1747672460.824002,5.7433386,-0.950481,1.5383539,-6.158289,-2.159822,8.692951
1747672460.8249402,5.7433386,-0.950481,1.5383539,-5.8365793,-1.8817883,8.529965
1747672460.8258736,5.7433386,-0.950481,1.5383539,-5.8365793,-1.8817883,8.529965
1747672460.8267999,5.7433386,-0.950481,1.5383539,-5.8365793,-1.8817883,8.529965
1747672460.8276048,5.7433386,-0.950481,1.5383539,-5.8365793,-1.8817883,8.529965
1747672460.828518,5.7433386,-0.950481,1.5383539,-5.8365793,-1.8817883,8.529965
1747672460.8295875,5.7433386,-0.950481,1.5383539,-5.8365793,-1.8817883,8.529965
1747672460.8311026,5.7433386,-0.950481,1.5383539,-5.8365793,-1.8817883,8.529965
1747672460.8323593,5.7433386,-0.950481,1.5383539,-5.8365793,-1.8817883,8.529965
1747672460.8334656,5.7433386,-0.950481,1.5383539,-5.8365793,-1.8817883,8.529965
1747672460.8343062,5.7433386,-0.950481,1.5383539,-5.8365793,-1.8817883,8.529965
1747672460.8352249,5.7433386,-0.950481,1.5383539,-5.8365793,-1.8817883,8.529965
1747672460.8360271,5.7535887,-0.7410798,2.0391593,-5.3188615,-1.840243,8.279629
1747672460.8368292,5.7535887,-0.7410798,2.0391593,-5.3188615,-1.840243,8.279629
1747672460.8381283,5.7535887,-0.7410798,2.0391593,-5.3188615,-1.840243,8.279629
1747672460.838958,5.7535887,-0.7410798,2.0391593,-5.3188615,-1.840243,8.279629
1747672460.8398294,5.7535887,-0.7410798,2.0391593,-5.3188615,-1.840243,8.279629
1747672460.840623,5.7535887,-0.7410798,2.0391593,-5.3188615,-1.840243,8.279629
1747672460.8415196,5.7535887,-0.7410798,2.0391593,-5.3188615,-1.840243,8.279629
1747672460.8424165,5.7535887,-0.7410798,2.0391593,-5.3188615,-1.840243,8.279629
1747672460.843221,5.7535887,-0.7410798,2.0391593,-5.3188615,-1.840243,8.279629
1747672460.8455422,5.7535887,-0.7410798,2.0391593,-5.3188615,-1.840243,8.279629
1747672460.8463788,5.7535887,-0.7410798,2.0391593,-5.3188615,-1.840243,8.279629
1747672460.8473089,5.7535887,-0.7410798,2.0391593,-5.3188615,-1.840243,8.279629
1747672460.8482118,5.7535887,-0.7410798,2.0391593,-5.3188615,-1.840243,8.279629
1747672460.849253,5.619357,-0.29738376,2.668827,-3.6027217,-2.09058,7.5307484
1747672460.8500502,5.619357,-0.29738376,2.668827,-3.6027217,-2.09058,7.5307484
1747672460.8507988,5.619357,-0.29738376,2.668827,-3.6027217,-2.09058,7.5307484
1747672460.851576,5.619357,-0.29738376,2.668827,-3.6027217,-2.09058,7.5307484
1747672460.8523424,5.619357,-0.29738376,2.668827,-3.6027217,-2.09058,7.5307484
1747672460.8531532,5.619357,-0.29738376,2.668827,-3.6027217,-2.09058,7.5307484
1747672460.853963,5.619357,-0.29738376,2.668827,-3.6027217,-2.09058,7.5307484
1747672460.854755,5.619357,-0.29738376,2.668827,-3.6027217,-2.09058,7.5307484
1747672460.855495,5.619357,-0.29738376,2.668827,-3.6027217,-2.09058,7.5307484
1747672460.8562725,5.414349,0.075047605,2.5165353,-1.8642113,-2.6988454,6.6742764
1747672460.8570247,5.414349,0.075047605,2.5165353,-1.8642113,-2.6988454,6.6742764
1747672460.8577662,5.414349,0.075047605,2.5165353,-1.8642113,-2.6988454,6.6742764
1747672460.8584902,5.414349,0.075047605,2.5165353,-1.8642113,-2.6988454,6.6742764
1747672460.8592532,5.414349,0.075047605,2.5165353,-1.8642113,-2.6988454,6.6742764
1747672460.860037,5.414349,0.075047605,2.5165353,-1.8642113,-2.6988454,6.6742764
1747672460.8605788,5.414349,0.075047605,2.5165353,-1.8642113,-2.6988454,6.6742764
1747672460.8613794,5.414349,0.075047605,2.5165353,-1.8642113,-2.6988454,6.6742764
1747672460.8621309,5.414349,0.075047605,2.5165353,-1.8642113,-2.6988454,6.6742764
1747672460.8629127,5.414349,0.075047605,2.5165353,-1.8642113,-2.6988454,6.6742764
1747672460.8647099,5.414349,0.075047605,2.5165353,-1.8642113,-2.6988454,6.6742764
1747672460.865776,5.414349,0.075047605,2.5165353,-1.8642113,-2.6988454,6.6742764
1747672460.8673034,5.414349,0.075047605,2.5165353,-1.8642113,-2.6988454,6.6742764
1747672460.8684094,4.6050553,0.5255773,1.6935742,-1.8642113,-2.6988454,6.6742764
1747672460.8695529,4.6050553,0.5255773,1.6935742,-0.29401276,-3.2485216,5.7421703
1747672460.8705082,4.6050553,0.5255773,1.6935742,-0.29401276,-3.2485216,5.7421703
1747672460.871492,4.6050553,0.5255773,1.6935742,-0.29401276,-3.2485216,5.7421703
1747672460.8723109,4.6050553,0.5255773,1.6935742,-0.29401276,-3.2485216,5.7421703
1747672460.873137,4.6050553,0.5255773,1.6935742,-0.29401276,-3.2485216,5.7421703
1747672460.8739333,4.6050553,0.5255773,1.6935742,-0.29401276,-3.2485216,5.7421703
1747672460.874816,4.6050553,0.5255773,1.6935742,-0.29401276,-3.2485216,5.7421703
1747672460.878675,4.6050553,0.5255773,1.6935742,-0.29401276,-3.2485216,5.7421703
1747672460.8795557,4.6050553,0.5255773,1.6935742,-0.29401276,-3.2485216,5.7421703
1747672460.8804057,4.6050553,0.5255773,1.6935742,-0.29401276,-3.2485216,5.7421703
1747672460.8815157,4.6050553,0.5255773,1.6935742,-0.29401276,-3.2485216,5.7421703
1747672460.882382,3.9368265,0.7745157,0.8657321,0.25033695,-3.0738182,5.2414966
1747672460.8831687,3.9368265,0.7745157,0.8657321,0.25033695,-3.0738182,5.2414966
1747672460.884008,3.9368265,0.7745157,0.8657321,0.25033695,-3.0738182,5.2414966
1747672460.8850248,3.9368265,0.7745157,0.8657321,0.25033695,-3.0738182,5.2414966
1747672460.8858104,3.9368265,0.7745157,0.8657321,0.25033695,-3.0738182,5.2414966
1747672460.8866045,3.9368265,0.7745157,0.8657321,0.25033695,-3.0738182,5.2414966
1747672460.8874218,3.9368265,0.7745157,0.8657321,0.25033695,-3.0738182,5.2414966
1747672460.8882947,3.9368265,0.7745157,0.8657321,0.25033695,-3.0738182,5.2414966
1747672460.8895018,3.9368265,0.7745157,0.8657321,0.25033695,-3.0738182,5.2414966
1747672460.8906584,3.3579228,0.96048725,0.02178211,0.014913691,-2.4836621,4.95068
1747672460.8917634,3.3579228,0.96048725,0.02178211,0.014913691,-2.4836621,4.95068
1747672460.894538,3.3579228,0.96048725,0.02178211,0.014913691,-2.4836621,4.95068
1747672460.896668,3.1031268,1.0722655,-0.36382833,-0.8085351,-1.8636787,4.7930207
1747672460.897495,3.1031268,1.0722655,-0.36382833,-0.8085351,-1.8636787,4.7930207
1747672460.8987327,3.1031268,1.0722655,-0.36382833,-0.8085351,-1.8636787,4.7930207
1747672460.8996077,3.1031268,1.0722655,-0.36382833,-0.8085351,-1.8636787,4.7930207
1747672460.9005885,3.1031268,1.0722655,-0.36382833,-0.8085351,-1.8636787,4.7930207
1747672460.9014893,3.1031268,1.0722655,-0.36382833,-0.8085351,-1.8636787,4.7930207
1747672460.9023428,3.1031268,1.0722655,-0.36382833,-0.8085351,-1.8636787,4.7930207
1747672460.9031343,3.1031268,1.0722655,-0.36382833,-0.8085351,-1.8636787,4.7930207
1747672460.9039357,3.1031268,1.0722655,-0.36382833,-0.8085351,-1.8636787,4.7930207
1747672460.9049037,2.9527876,1.0747062,-0.4458316,-0.8085351,-1.8636787,4.7930207
1747672460.905696,2.9527876,1.0747062,-0.4458316,-1.604287,-1.3928322,4.575707
1747672460.906487,2.9527876,1.0747062,-0.4458316,-1.604287,-1.3928322,4.575707
1747672460.907332,2.9527876,1.0747062,-0.4458316,-1.604287,-1.3928322,4.575707
1747672460.9081337,2.9527876,1.0747062,-0.4458316,-1.604287,-1.3928322,4.575707
1747672460.9089677,2.9527876,1.0747062,-0.4458316,-1.604287,-1.3928322,4.575707
1747672460.9097815,2.9527876,1.0747062,-0.4458316,-1.604287,-1.3928322,4.575707
1747672460.9111958,2.9527876,1.0747062,-0.4458316,-1.604287,-1.3928322,4.575707
1747672460.9136126,2.9527876,1.0747062,-0.4458316,-1.604287,-1.3928322,4.575707
1747672460.9167156,2.7121472,0.99807215,-0.064614154,-2.6354623,-0.7526088,4.0217695
1747672460.9177327,2.7121472,0.99807215,-0.064614154,-2.6354623,-0.7526088,4.0217695
1747672460.9188492,2.7121472,0.99807215,-0.064614154,-2.6354623,-0.7526088,4.0217695
1747672460.9199045,2.7121472,0.99807215,-0.064614154,-2.6354623,-0.7526088,4.0217695
1747672460.9210134,2.7121472,0.99807215,-0.064614154,-2.6354623,-0.7526088,4.0217695
1747672460.9218056,2.7121472,0.99807215,-0.064614154,-2.6354623,-0.7526088,4.0217695
1747672460.9236841,2.7121472,0.99807215,-0.064614154,-2.6354623,-0.7526088,4.0217695
1747672460.9244885,2.7121472,0.99807215,-0.064614154,-2.6354623,-0.7526088,4.0217695
1747672460.9255562,2.357288,1.0000246,0.31562704,-3.0210876,-0.4266381,3.5519884
1747672460.927533,2.357288,1.0000246,0.31562704,-3.0210876,-0.4266381,3.5519884
1747672460.9309957,2.357288,1.0000246,0.31562704,-3.0210876,-0.4266381,3.5519884
1747672460.931921,2.357288,1.0000246,0.31562704,-3.0210876,-0.4266381,3.5519884
1747672460.9330342,2.357288,1.0000246,0.31562704,-3.0210876,-0.4266381,3.5519884
1747672460.9341846,2.357288,1.0000246,0.31562704,-3.0210876,-0.4266381,3.5519884
1747672460.9350617,2.357288,1.0000246,0.31562704,-3.0210876,-0.4266381,3.5519884
1747672460.9359782,2.357288,1.0000246,0.31562704,-3.0210876,-0.4266381,3.5519884
1747672460.9373171,2.357288,1.0000246,0.31562704,-3.1020477,-0.1858885,2.9905946
1747672460.9386885,2.357288,1.0000246,0.31562704,-3.1020477,-0.1858885,2.9905946
1747672460.939834,2.357288,1.0000246,0.31562704,-3.1020477,-0.1858885,2.9905946
1747672460.94071,2.357288,1.0000246,0.31562704,-3.1020477,-0.1858885,2.9905946
1747672460.9420223,1.675392,1.0029533,0.8725657,-3.1020477,-0.1858885,2.9905946
1747672460.944152,1.675392,1.0029533,0.8725657,-3.1020477,-0.1858885,2.9905946
1747672460.945276,1.675392,1.0029533,0.8725657,-3.1020477,-0.1858885,2.9905946
1747672460.9463315,1.675392,1.0029533,0.8725657,-3.1020477,-0.1858885,2.9905946
1747672460.9472275,1.3869164,0.99807215,1.1385881,-2.8996477,-0.2093243,2.8009775
1747672460.9480612,1.3869164,0.99807215,1.1385881,-2.8996477,-0.2093243,2.8009775
1747672460.94888,1.3869164,0.99807215,1.1385881,-2.8996477,-0.2093243,2.8009775
1747672460.9496717,1.3869164,0.99807215,1.1385881,-2.8996477,-0.2093243,2.8009775
1747672460.9505289,1.3869164,0.99807215,1.1385881,-2.8996477,-0.2093243,2.8009775
1747672460.9514055,1.3869164,0.99807215,1.1385881,-2.8996477,-0.2093243,2.8009775
1747672460.952256,1.3869164,0.99807215,1.1385881,-2.8996477,-0.2093243,2.8009775
1747672460.9530642,1.3869164,0.99807215,1.1385881,-2.8996477,-0.2093243,2.8009775
1747672460.9539633,1.3869164,0.99807215,1.1385881,-2.8996477,-0.2093243,2.8009775
1747672460.9547923,1.3869164,0.99807215,1.1385881,-2.8996477,-0.2093243,2.8009775
1747672460.9556165,1.3869164,0.99807215,1.1385881,-2.8996477,-0.2093243,2.8009775
1747672460.9567466,0.9598161,1.0942307,1.449029,-2.1188095,-0.54701287,2.4931164
1747672460.9585412,0.9598161,1.0942307,1.449029,-2.1188095,-0.54701287,2.4931164
1747672460.9607456,0.9598161,1.0942307,1.449029,-2.1188095,-0.54701287,2.4931164
1747672460.9616363,0.9598161,1.0942307,1.449029,-2.1188095,-0.54701287,2.4931164
1747672460.9626353,0.9598161,1.0942307,1.449029,-2.1188095,-0.54701287,2.4931164
1747672460.9636443,0.9598161,1.0942307,1.449029,-2.1188095,-0.54701287,2.4931164
1747672460.964638,0.9598161,1.0942307,1.449029,-2.1188095,-0.54701287,2.4931164
1747672460.9656343,0.9598161,1.0942307,1.449029,-2.1188095,-0.54701287,2.4931164
1747672460.9666362,0.9598161,1.0942307,1.449029,-2.1188095,-0.54701287,2.4931164
1747672460.967636,0.7421171,1.1601261,1.4212064,-1.3102742,-0.8271772,2.2608888
1747672460.9686594,0.7421171,1.1601261,1.4212064,-1.3102742,-0.8271772,2.2608888
1747672460.969649,0.7421171,1.1601261,1.4212064,-1.3102742,-0.8271772,2.2608888
1747672460.970634,0.7421171,1.1601261,1.4212064,-1.3102742,-0.8271772,2.2608888
1747672460.971703,0.7421171,1.1601261,1.4212064,-1.3102742,-0.8271772,2.2608888
1747672460.9742267,0.7421171,1.1601261,1.4212064,-1.3102742,-0.8271772,2.2608888
1747672460.9755096,0.7421171,1.1601261,1.4212064,-1.3102742,-0.8271772,2.2608888
1747672460.977003,0.7421171,1.1601261,1.4212064,-1.3102742,-0.8271772,2.2608888
1747672460.9778008,0.7421171,1.1601261,1.4212064,-1.3102742,-0.8271772,2.2608888
1747672460.9786162,0.7421171,1.1601261,1.4212064,-1.3102742,-0.8271772,2.2608888
1747672460.9795113,0.45217708,1.2592133,1.1273614,-0.49428234,-1.0327731,1.9998994
1747672460.980309,0.45217708,1.2592133,1.1273614,-0.49428234,-1.0327731,1.9998994
1747672460.981191,0.45217708,1.2592133,1.1273614,-0.49428234,-1.0327731,1.9998994
1747672460.9819815,0.45217708,1.2592133,1.1273614,-0.49428234,-1.0327731,1.9998994
1747672460.982778,0.45217708,1.2592133,1.1273614,-0.49428234,-1.0327731,1.9998994
1747672460.98551,0.45217708,1.2592133,1.1273614,-0.13209268,-1.0317079,1.8273267
1747672460.9863958,0.27596775,1.3719678,0.84962434,-0.13209268,-1.0317079,1.8273267
1747672460.9872828,0.27596775,1.3719678,0.84962434,-0.13209268,-1.0317079,1.8273267
1747672460.9880984,0.27596775,1.3719678,0.84962434,-0.13209268,-1.0317079,1.8273267
1747672460.9891062,0.27596775,1.3719678,0.84962434,-0.13209268,-1.0317079,1.8273267
1747672460.9899962,0.27596775,1.3719678,0.84962434,-0.13209268,-1.0317079,1.8273267
1747672460.9908926,0.27596775,1.3719678,0.84962434,-0.13209268,-1.0317079,1.8273267
1747672460.99175,0.27596775,1.3719678,0.84962434,-0.13209268,-1.0317079,1.8273267
1747672460.9925132,0.27596775,1.3719678,0.84962434,-0.13209268,-1.0317079,1.8273267
1747672460.99328,0.27596775,1.3719678,0.84962434,-0.13209268,-1.0317079,1.8273267
1747672460.9940615,0.045089576,1.547689,0.460597,-0.103330575,-0.89428884,1.6771245
1747672460.9948318,0.045089576,1.547689,0.460597,-0.103330575,-0.89428884,1.6771245
1747672460.99559,0.045089576,1.547689,0.460597,-0.103330575,-0.89428884,1.6771245
1747672460.9963367,0.045089576,1.547689,0.460597,-0.103330575,-0.89428884,1.6771245
1747672460.9970553,0.045089576,1.547689,0.460597,-0.103330575,-0.89428884,1.6771245
1747672460.9977837,0.045089576,1.547689,0.460597,-0.103330575,-0.89428884,1.6771245
1747672460.9985466,0.045089576,1.547689,0.460597,-0.103330575,-0.89428884,1.6771245
1747672460.9993672,0.045089576,1.547689,0.460597,-0.103330575,-0.89428884,1.6771245
1747672461.0001204,0.045089576,1.547689,0.460597,-0.103330575,-0.89428884,1.6771245
1747672461.0008602,0.045089576,1.547689,0.460597,-0.103330575,-0.89428884,1.6771245
1747672461.0015943,0.045089576,1.547689,0.460597,-0.103330575,-0.89428884,1.6771245
1747672461.0023534,0.045089576,1.547689,0.460597,-0.103330575,-0.89428884,1.6771245
1747672461.003157,0.045089576,1.547689,0.460597,-0.103330575,-0.89428884,1.6771245
1747672461.0039685,-0.06327184,1.6384783,0.31269833,-0.26844645,-0.69614977,1.5727286
1747672461.0063932,-0.06327184,1.6384783,0.31269833,-0.26844645,-0.69614977,1.5727286
1747672461.007293,-0.06327184,1.6384783,0.31269833,-0.26844645,-0.69614977,1.5727286
1747672461.0081925,-0.06327184,1.6384783,0.31269833,-0.26844645,-0.69614977,1.5727286
1747672461.0090861,-0.06327184,1.6384783,0.31269833,-0.26844645,-0.69614977,1.5727286
1747672461.0099864,-0.06327184,1.6384783,0.31269833,-0.26844645,-0.69614977,1.5727286
1747672461.0108175,-0.06327184,1.6384783,0.31269833,-0.26844645,-0.69614977,1.5727286
1747672461.0116656,-0.06327184,1.6384783,0.31269833,-0.26844645,-0.69614977,1.5727286
1747672461.0125432,-0.06327184,1.6384783,0.31269833,-0.26844645,-0.69614977,1.5727286
1747672461.0135221,-0.06327184,1.6384783,0.31269833,-0.26844645,-0.69614977,1.5727286
1747672461.0143292,-0.06327184,1.6384783,0.31269833,-0.26844645,-0.69614977,1.5727286
1747672461.0152273,-0.15454924,1.7600188,0.36297414,-0.5976129,-0.3648528,1.3703285
1747672461.0161269,-0.15454924,1.7600188,0.36297414,-0.5976129,-0.3648528,1.3703285
1747672461.0169547,-0.15454924,1.7600188,0.36297414,-0.5976129,-0.3648528,1.3703285
1747672461.020265,-0.15454924,1.7600188,0.36297414,-0.5976129,-0.3648528,1.3703285
1747672461.021186,-0.15454924,1.7600188,0.36297414,-0.5976129,-0.3648528,1.3703285
1747672461.0221322,-0.15454924,1.7600188,0.36297414,-0.5976129,-0.3648528,1.3703285
1747672461.0229528,-0.15454924,1.7600188,0.36297414,-0.5976129,-0.3648528,1.3703285
1747672461.023765,-0.19311029,1.8381172,0.5103847,-0.5976129,-0.3648528,1.3703285
1747672461.0247042,-0.19311029,1.8381172,0.5103847,-0.5976129,-0.3648528,1.3703285
1747672461.0259655,-0.19311029,1.8381172,0.5103847,-0.73183614,-0.15925692,1.1871032
1747672461.0269408,-0.19311029,1.8381172,0.5103847,-0.73183614,-0.15925692,1.1871032
1747672461.027741,-0.19311029,1.8381172,0.5103847,-0.73183614,-0.15925692,1.1871032
1747672461.0286026,-0.19311029,1.8381172,0.5103847,-0.73183614,-0.15925692,1.1871032
1747672461.0293925,-0.19311029,1.8381172,0.5103847,-0.73183614,-0.15925692,1.1871032
1747672461.030422,-0.19311029,1.8381172,0.5103847,-0.73183614,-0.15925692,1.1871032
1747672461.0313582,-0.19311029,1.8381172,0.5103847,-0.73183614,-0.15925692,1.1871032
1747672461.0323813,-0.19311029,1.8381172,0.5103847,-0.73183614,-0.15925692,1.1871032
1747672461.0331776,-0.19311029,1.8381172,0.5103847,-0.73183614,-0.15925692,1.1871032
1747672461.0340729,-0.19311029,1.8381172,0.5103847,-0.73183614,-0.15925692,1.1871032
1747672461.0357475,-0.2804828,1.9752774,0.771526,-0.70733505,0.03781686,0.80893457
1747672461.0367742,-0.2804828,1.9752774,0.771526,-0.70733505,0.03781686,0.80893457
1747672461.0376554,-0.2804828,1.9752774,0.771526,-0.70733505,0.03781686,0.80893457
1747672461.0384827,-0.2804828,1.9752774,0.771526,-0.70733505,0.03781686,0.80893457
1747672461.0392802,-0.2804828,1.9752774,0.771526,-0.70733505,0.03781686,0.80893457
1747672461.0400338,-0.2804828,1.9752774,0.771526,-0.70733505,0.03781686,0.80893457
1747672461.0407658,-0.2804828,1.9752774,0.771526,-0.70733505,0.03781686,0.80893457
1747672461.0415013,-0.2804828,1.9752774,0.771526,-0.70733505,0.03781686,0.80893457
1747672461.0422223,-0.2804828,1.9752774,0.771526,-0.70733505,0.03781686,0.80893457
1747672461.0430248,-0.2804828,1.9752774,0.771526,-0.70733505,0.03781686,0.80893457
1747672461.0437746,-0.37420076,2.0738764,0.916496,-0.70733505,0.03781686,0.80893457
1747672461.04453,-0.37420076,2.0738764,0.916496,-0.70733505,0.03781686,0.80893457
1747672461.0452704,-0.37420076,2.0738764,0.916496,-0.4868255,0.107058994,0.45633233
1747672461.0460072,-0.37420076,2.0738764,0.916496,-0.4868255,0.107058994,0.45633233
1747672461.0467181,-0.37420076,2.0738764,0.916496,-0.4868255,0.107058994,0.45633233
1747672461.0474567,-0.37420076,2.0738764,0.916496,-0.4868255,0.107058994,0.45633233
1747672461.0482647,-0.37420076,2.0738764,0.916496,-0.4868255,0.107058994,0.45633233
1747672461.04906,-0.37420076,2.0738764,0.916496,-0.4868255,0.107058994,0.45633233
1747672461.0498178,-0.37420076,2.0738764,0.916496,-0.4868255,0.107058994,0.45633233
1747672461.0505786,-0.37420076,2.0738764,0.916496,-0.4868255,0.107058994,0.45633233
1747672461.0528138,-0.37420076,2.0738764,0.916496,-0.4868255,0.107058994,0.45633233
1747672461.0538776,-0.37420076,2.0738764,0.916496,-0.4868255,0.107058994,0.45633233
1747672461.054874,-0.37420076,2.0738764,0.916496,-0.4868255,0.107058994,0.45633233
1747672461.0558705,-0.37420076,2.0738764,0.916496,-0.4868255,0.107058994,0.45633233
1747672461.0566783,-0.37420076,2.0738764,0.916496,-0.4868255,0.107058994,0.45633233
1747672461.0574799,-0.37420076,2.0738764,0.916496,-0.4868255,0.107058994,0.45633233
1747672461.0582902,-0.37420076,2.0738764,0.916496,-0.4868255,0.107058994,0.45633233
1747672461.0590932,-0.37420076,2.0738764,0.916496,-0.4868255,0.107058994,0.45633233
1747672461.0599244,-0.42398846,2.1251285,0.9574976,-0.29827383,0.12303795,0.22197431
1747672461.0609295,-0.42398846,2.1251285,0.9574976,-0.29827383,0.12303795,0.22197431
1747672461.0619304,-0.42398846,2.1251285,0.9574976,-0.29827383,0.12303795,0.22197431
1747672461.0629296,-0.42398846,2.1251285,0.9574976,-0.29827383,0.12303795,0.22197431
1747672461.0639286,-0.42398846,2.1251285,0.9574976,-0.29827383,0.12303795,0.22197431
1747672461.0662231,-0.42398846,2.1251285,0.9574976,-0.29827383,0.12303795,0.22197431
1747672461.068099,-0.42398846,2.1251285,0.9574976,-0.29827383,0.12303795,0.22197431
1747672461.0692015,-0.42301223,2.1339145,0.95212835,0.11930953,0.023968432,-0.2850912
1747672461.0700538,-0.42301223,2.1339145,0.95212835,0.11930953,0.023968432,-0.2850912
1747672461.071063,-0.42301223,2.1339145,0.95212835,0.11930953,0.023968432,-0.2850912
1747672461.072058,-0.42301223,2.1339145,0.95212835,0.11930953,0.023968432,-0.2850912
1747672461.0730667,-0.42301223,2.1339145,0.95212835,0.11930953,0.023968432,-0.2850912
1747672461.0740612,-0.42301223,2.1339145,0.95212835,0.11930953,0.023968432,-0.2850912
1747672461.0750573,-0.42301223,2.1339145,0.95212835,0.11930953,0.023968432,-0.2850912
1747672461.0760775,-0.42301223,2.1339145,0.95212835,0.11930953,0.023968432,-0.2850912
1747672461.0770557,-0.42301223,2.1339145,0.95212835,0.11930953,0.023968432,-0.2850912
1747672461.0780594,-0.42301223,2.1339145,0.95212835,0.11930953,0.023968432,-0.2850912
1747672461.0792077,-0.42301223,2.1339145,0.95212835,0.11930953,0.023968432,-0.2850912
1747672461.0800745,-0.4327745,2.0875435,0.8457194,0.43462756,-0.18375798,-0.7048051
1747672461.0810592,-0.4327745,2.0875435,0.8457194,0.43462756,-0.18375798,-0.7048051
1747672461.0820568,-0.4327745,2.0875435,0.8457194,0.43462756,-0.18375798,-0.7048051
1747672461.083065,-0.4327745,2.0875435,0.8457194,0.43462756,-0.18375798,-0.7048051
1747672461.0840778,-0.4327745,2.0875435,0.8457194,0.43462756,-0.18375798,-0.7048051
1747672461.084845,-0.4327745,2.0875435,0.8457194,0.43462756,-0.18375798,-0.7048051
1747672461.0855982,-0.4327745,2.0875435,0.8457194,0.43462756,-0.18375798,-0.7048051
1747672461.0863607,-0.4327745,2.0875435,0.8457194,0.43462756,-0.18375798,-0.7048051
1747672461.087109,-0.4327745,2.0875435,0.8457194,0.43462756,-0.18375798,-0.7048051
1747672461.0878546,-0.4327745,2.0875435,0.8457194,0.55180657,-0.34780857,-1.1138663
1747672461.088673,-0.37517703,1.9991949,0.56847036,0.55180657,-0.34780857,-1.1138663
1747672461.0894146,-0.37517703,1.9991949,0.56847036,0.55180657,-0.34780857,-1.1138663
1747672461.0901403,-0.37517703,1.9991949,0.56847036,0.55180657,-0.34780857,-1.1138663
1747672461.0909417,-0.37517703,1.9991949,0.56847036,0.55180657,-0.34780857,-1.1138663
1747672461.0916598,-0.37517703,1.9991949,0.56847036,0.55180657,-0.34780857,-1.1138663
1747672461.092377,-0.37517703,1.9991949,0.56847036,0.55180657,-0.34780857,-1.1138663
1747672461.0929089,-0.37517703,1.9991949,0.56847036,0.55180657,-0.34780857,-1.1138663
1747672461.0936694,-0.37517703,1.9991949,0.56847036,0.32703593,-0.24554327,-1.3450285
1747672461.0944223,-0.37517703,1.9991949,0.56847036,0.32703593,-0.24554327,-1.3450285
1747672461.0952656,-0.37517703,1.9991949,0.56847036,0.32703593,-0.24554327,-1.3450285
1747672461.0961199,-0.37517703,1.9991949,0.56847036,0.32703593,-0.24554327,-1.3450285
1747672461.097814,-0.37517703,1.9991949,0.56847036,0.32703593,-0.24554327,-1.3450285
1747672461.0991626,-0.37517703,1.9991949,0.56847036,0.32703593,-0.24554327,-1.3450285
1747672461.1001089,-0.27853033,1.9337876,0.35418808,0.32703593,-0.24554327,-1.3450285
1747672461.101113,-0.27853033,1.9337876,0.35418808,0.32703593,-0.24554327,-1.3450285
1747672461.102112,-0.27853033,1.9337876,0.35418808,0.32703593,-0.24554327,-1.3450285
1747672461.1031003,-0.27853033,1.9337876,0.35418808,0.32703593,-0.24554327,-1.3450285
1747672461.1041172,-0.27853033,1.9337876,0.35418808,0.32703593,-0.24554327,-1.3450285
1747672461.105104,-0.27853033,1.9337876,0.35418808,0.32703593,-0.24554327,-1.3450285
1747672461.106101,-0.27853033,1.9337876,0.35418808,0.32703593,-0.24554327,-1.3450285
1747672461.1071181,-0.27853033,1.9337876,0.35418808,0.32703593,-0.24554327,-1.3450285
1747672461.1080997,-0.27853033,1.9337876,0.35418808,0.32703593,-0.24554327,-1.3450285
1747672461.1091385,0.022148196,1.8210331,0.30293608,-0.12144005,0.13688637,-1.5101444
1747672461.1101124,0.022148196,1.8210331,0.30293608,-0.12144005,0.13688637,-1.5101444
1747672461.1120424,0.022148196,1.8210331,0.30293608,-0.12144005,0.13688637,-1.5101444
1747672461.1131487,0.022148196,1.8210331,0.30293608,-0.12144005,0.13688637,-1.5101444
1747672461.1158683,0.022148196,1.8210331,0.30293608,-0.12144005,0.13688637,-1.5101444
1747672461.1168678,0.3560185,1.6853373,0.47133556,-0.55819815,0.6546045,-1.6699339
1747672461.117814,0.3560185,1.6853373,0.47133556,-0.55819815,0.6546045,-1.6699339
1747672461.1186144,0.3560185,1.6853373,0.47133556,-0.55819815,0.6546045,-1.6699339
1747672461.1194143,0.3560185,1.6853373,0.47133556,-0.55819815,0.6546045,-1.6699339
1747672461.1203878,0.3560185,1.6853373,0.47133556,-0.55819815,0.6546045,-1.6699339
1747672461.121423,0.3560185,1.6853373,0.47133556,-0.55819815,0.6546045,-1.6699339
1747672461.1223934,0.3560185,1.6853373,0.47133556,-0.55819815,0.6546045,-1.6699339
1747672461.1234572,0.3560185,1.6853373,0.47133556,-0.55819815,0.6546045,-1.6699339
1747672461.1244836,0.3560185,1.6853373,0.47133556,-0.55819815,0.6546045,-1.6699339
1747672461.1270344,0.7279617,1.5759997,0.78177637,-0.75420666,0.9571394,-1.8201361
1747672461.1281335,0.7279617,1.5759997,0.78177637,-0.75420666,0.9571394,-1.8201361
1747672461.129056,0.7279617,1.5759997,0.78177637,-0.75420666,0.9571394,-1.8201361
1747672461.1299691,0.7279617,1.5759997,0.78177637,-0.75420666,0.9571394,-1.8201361
1747672461.1308074,0.7279617,1.5759997,0.78177637,-0.75420666,0.9571394,-1.8201361
1747672461.1313477,0.7279617,1.5759997,0.78177637,-0.75420666,0.9571394,-1.8201361
1747672461.1321065,0.7279617,1.5759997,0.78177637,-0.75420666,0.9571394,-1.8201361
1747672461.1328404,0.7279617,1.5759997,0.78177637,-0.75420666,0.9571394,-1.8201361
1747672461.1333883,0.7279617,1.5759997,0.78177637,-0.75420666,0.9571394,-1.8201361
1747672461.1341507,1.0335214,1.543296,1.0712283,-0.6860298,1.1787143,-2.1311932
1747672461.134908,1.0335214,1.543296,1.0712283,-0.6860298,1.1787143,-2.1311932
1747672461.135749,1.0335214,1.543296,1.0712283,-0.6860298,1.1787143,-2.1311932
1747672461.1364925,1.0335214,1.543296,1.0712283,-0.6860298,1.1787143,-2.1311932
1747672461.137236,1.0335214,1.543296,1.0712283,-0.6860298,1.1787143,-2.1311932
1747672461.137934,1.0335214,1.543296,1.0712283,-0.6860298,1.1787143,-2.1311932
1747672461.1386259,1.0335214,1.543296,1.0712283,-0.6860298,1.1787143,-2.1311932
1747672461.1393192,1.0335214,1.543296,1.0712283,-0.6860298,1.1787143,-2.1311932
1747672461.1400754,1.0335214,1.543296,1.0712283,-0.6860298,1.1787143,-2.1311932
1747672461.140825,1.0335214,1.543296,1.0712283,-0.6860298,1.1787143,-2.1311932
1747672461.1413636,1.0335214,1.543296,1.0712283,-0.6860298,1.1787143,-2.1311932
1747672461.1421065,1.0335214,1.543296,1.0712283,-0.6860298,1.1787143,-2.1311932
1747672461.1428926,1.0335214,1.543296,1.0712283,-0.6860298,1.1787143,-2.1311932
1747672461.1437726,1.0335214,1.543296,1.0712283,-0.6860298,1.1787143,-2.1311932
1747672461.144601,1.4396327,1.5042468,1.3845978,-0.6860298,1.1787143,-2.1311932
1747672461.1465337,1.4396327,1.5042468,1.3845978,-0.40160438,1.2724574,-2.4443805
1747672461.1474228,1.4396327,1.5042468,1.3845978,-0.40160438,1.2724574,-2.4443805
1747672461.1483483,1.4396327,1.5042468,1.3845978,-0.40160438,1.2724574,-2.4443805
1747672461.1492853,1.4396327,1.5042468,1.3845978,-0.40160438,1.2724574,-2.4443805
1747672461.1502032,1.4396327,1.5042468,1.3845978,-0.40160438,1.2724574,-2.4443805
1747672461.1510272,1.4396327,1.5042468,1.3845978,-0.40160438,1.2724574,-2.4443805
1747672461.151564,1.4396327,1.5042468,1.3845978,-0.40160438,1.2724574,-2.4443805
1747672461.1523817,1.4396327,1.5042468,1.3845978,-0.40160438,1.2724574,-2.4443805
1747672461.153168,1.4396327,1.5042468,1.3845978,-0.40160438,1.2724574,-2.4443805
1747672461.153975,1.4396327,1.5042468,1.3845978,-0.40160438,1.2724574,-2.4443805
1747672461.1548111,1.4396327,1.5042468,1.3845978,-0.40160438,1.2724574,-2.4443805
1747672461.1556532,1.4396327,1.5042468,1.3845978,-0.40160438,1.2724574,-2.4443805
1747672461.15661,1.730549,1.4276129,1.5144362,-0.40160438,1.2724574,-2.4443805
1747672461.1612608,1.730549,1.4276129,1.5144362,-0.40160438,1.2724574,-2.4443805
1747672461.1622915,1.730549,1.4276129,1.5144362,-0.40160438,1.2724574,-2.4443805
1747672461.163076,1.730549,1.4276129,1.5144362,-0.40160438,1.2724574,-2.4443805
1747672461.163863,1.730549,1.4276129,1.5144362,-0.40160438,1.2724574,-2.4443805
1747672461.1646533,1.730549,1.4276129,1.5144362,-0.40160438,1.2724574,-2.4443805
1747672461.1654923,1.9536172,1.2865478,1.48759,0.67218137,1.5068154,-3.440402
1747672461.1662912,1.9536172,1.2865478,1.48759,0.67218137,1.5068154,-3.440402
1747672461.1671512,1.9536172,1.2865478,1.48759,0.67218137,1.5068154,-3.440402
1747672461.167935,1.9536172,1.2865478,1.48759,0.67218137,1.5068154,-3.440402
1747672461.1687212,1.9536172,1.2865478,1.48759,0.67218137,1.5068154,-3.440402
1747672461.169503,1.9536172,1.2865478,1.48759,0.67218137,1.5068154,-3.440402
1747672461.170346,1.9536172,1.2865478,1.48759,0.67218137,1.5068154,-3.440402
1747672461.1728008,1.9536172,1.2865478,1.48759,0.67218137,1.5068154,-3.440402
1747672461.1743493,1.9536172,1.2865478,1.48759,0.67218137,1.5068154,-3.440402
1747672461.175637,1.9536172,1.2865478,1.48759,0.67218137,1.5068154,-3.440402
1747672461.1764553,1.9536172,1.2865478,1.48759,0.67218137,1.5068154,-3.440402
1747672461.1772656,2.06686,1.1122909,1.2523187,1.3805817,1.6239945,-4.1157794
1747672461.178071,2.06686,1.1122909,1.2523187,1.3805817,1.6239945,-4.1157794
1747672461.1789405,2.06686,1.1122909,1.2523187,1.3805817,1.6239945,-4.1157794
1747672461.1797307,2.06686,1.1122909,1.2523187,1.3805817,1.6239945,-4.1157794
1747672461.180492,2.06686,1.1122909,1.2523187,1.3805817,1.6239945,-4.1157794
1747672461.1812859,2.06686,1.1122909,1.2523187,1.3805817,1.6239945,-4.1157794
1747672461.1820498,2.06686,1.1122909,1.2523187,1.3805817,1.6239945,-4.1157794
1747672461.1827652,2.06686,1.1122909,1.2523187,1.3805817,1.6239945,-4.1157794
1747672461.1834729,2.06686,1.1122909,1.2523187,1.3805817,1.6239945,-4.1157794
1747672461.1841831,2.06686,1.1122909,1.2523187,1.3805817,1.6239945,-4.1157794
1747672461.1848857,2.06686,1.1122909,1.2523187,1.3805817,1.6239945,-4.1157794
1747672461.185628,2.06686,1.1122909,1.2523187,1.3805817,1.6239945,-4.1157794
1747672461.1863666,2.06686,1.1122909,1.2523187,1.3805817,1.6239945,-4.1157794
1747672461.18712,2.06686,1.1122909,1.2523187,1.3805817,1.6239945,-4.1157794
1747672461.1878674,2.072229,1.0327282,0.99312997,1.3805817,1.6239945,-4.1157794
1747672461.1885884,2.072229,1.0327282,0.99312997,1.8130788,1.6037544,-4.5205793
1747672461.1893463,2.072229,1.0327282,0.99312997,1.8130788,1.6037544,-4.5205793
1747672461.1901627,2.072229,1.0327282,0.99312997,1.8130788,1.6037544,-4.5205793
1747672461.1917338,2.072229,1.0327282,0.99312997,1.8130788,1.6037544,-4.5205793
1747672461.1928055,2.072229,1.0327282,0.99312997,1.8130788,1.6037544,-4.5205793
1747672461.1936269,2.072229,1.0327282,0.99312997,1.8130788,1.6037544,-4.5205793
1747672461.1945276,2.072229,1.0327282,0.99312997,1.8130788,1.6037544,-4.5205793
1747672461.1954288,2.072229,1.0327282,0.99312997,1.8130788,1.6037544,-4.5205793
1747672461.1962488,2.072229,1.0327282,0.99312997,1.8130788,1.6037544,-4.5205793
1747672461.1970565,2.072229,1.0327282,0.99312997,1.8130788,1.6037544,-4.5205793
1747672461.1978457,2.072229,1.0327282,0.99312997,1.8130788,1.6037544,-4.5205793
1747672461.1998773,2.072229,1.0327282,0.99312997,1.8130788,1.6037544,-4.5205793
1747672461.2008257,2.072229,1.0327282,0.99312997,1.8130788,1.6037544,-4.5205793
1747672461.201704,2.2323306,1.0302876,0.7041662,2.0932431,1.594167,-4.7751775
1747672461.2028058,2.2323306,1.0302876,0.7041662,2.0932431,1.594167,-4.7751775
1747672461.2045846,2.48615,1.0722655,0.54455274,2.1465063,1.5781881,-4.798613
1747672461.2062213,2.48615,1.0722655,0.54455274,2.1465063,1.5781881,-4.798613
1747672461.207214,2.48615,1.0722655,0.54455274,2.1465063,1.5781881,-4.798613
1747672461.2082882,2.48615,1.0722655,0.54455274,2.1465063,1.5781881,-4.798613
1747672461.209249,2.48615,1.0722655,0.54455274,2.1465063,1.5781881,-4.798613
1747672461.2101586,2.48615,1.0722655,0.54455274,2.1465063,1.5781881,-4.798613
1747672461.2109535,2.48615,1.0722655,0.54455274,2.1465063,1.5781881,-4.798613
1747672461.2117918,2.48615,1.0722655,0.54455274,2.1465063,1.5781881,-4.798613
1747672461.2127912,2.48615,1.0722655,0.54455274,2.1465063,1.5781881,-4.798613
1747672461.2135892,2.48615,1.0722655,0.54455274,2.1465063,1.5781881,-4.798613
1747672461.214397,2.48615,1.0722655,0.54455274,2.1465063,1.5781881,-4.798613
1747672461.2153068,2.48615,1.0722655,0.54455274,2.1465063,1.5781881,-4.798613
1747672461.2161717,2.48615,1.0722655,0.54455274,2.1465063,1.5781881,-4.798613
1747672461.2169669,2.48615,1.0722655,0.54455274,2.1465063,1.5781881,-4.798613
1747672461.2187467,3.1548672,1.1820914,0.40251142,2.0783293,1.6122766,-4.7304363
1747672461.2208745,3.1548672,1.1820914,0.40251142,2.0783293,1.6122766,-4.7304363
1747672461.2218394,3.1548672,1.1820914,0.40251142,2.0783293,1.6122766,-4.7304363
1747672461.2226355,3.1548672,1.1820914,0.40251142,2.0783293,1.6122766,-4.7304363
1747672461.2233927,3.1548672,1.1820914,0.40251142,2.0783293,1.6122766,-4.7304363
1747672461.2241673,4.285828,1.1733052,0.3244131,1.911083,1.6570176,-4.8454847
1747672461.2249162,4.285828,1.1733052,0.3244131,1.911083,1.6570176,-4.8454847
1747672461.2257156,4.285828,1.1733052,0.3244131,1.911083,1.6570176,-4.8454847
1747672461.2264621,4.285828,1.1733052,0.3244131,1.911083,1.6570176,-4.8454847
1747672461.2271914,4.285828,1.1733052,0.3244131,1.911083,1.6570176,-4.8454847
1747672461.2279072,4.285828,1.1733052,0.3244131,1.911083,1.6570176,-4.8454847
1747672461.2286098,4.285828,1.1733052,0.3244131,1.911083,1.6570176,-4.8454847
1747672461.229339,4.285828,1.1733052,0.3244131,1.911083,1.6570176,-4.8454847
1747672461.230031,4.285828,1.1733052,0.3244131,1.911083,1.6570176,-4.8454847
1747672461.2307248,4.285828,1.1733052,0.3244131,1.911083,1.6570176,-4.8454847
1747672461.231485,4.285828,1.1733052,0.3244131,1.911083,1.6570176,-4.8454847
1747672461.2322521,4.285828,1.1733052,0.3244131,1.911083,1.6570176,-4.8454847
1747672461.233053,4.285828,1.1733052,0.3244131,1.911083,1.6570176,-4.8454847
1747672461.233801,4.285828,1.1733052,0.3244131,1.911083,1.6570176,-4.8454847
1747672461.2345595,4.285828,1.1733052,0.3244131,1.911083,1.6570176,-4.8454847
1747672461.2353365,5.4040985,1.0175967,0.35955733,1.7619461,1.6367776,-5.3131356
1747672461.2360973,5.4040985,1.0175967,0.35955733,1.7619461,1.6367776,-5.3131356
1747672461.2368546,5.4040985,1.0175967,0.35955733,1.7619461,1.6367776,-5.3131356
1747672461.2375875,5.4040985,1.0175967,0.35955733,1.7619461,1.6367776,-5.3131356
1747672461.239285,5.4040985,1.0175967,0.35955733,1.7619461,1.6367776,-5.3131356
1747672461.2405355,5.4040985,1.0175967,0.35955733,1.7619461,1.6367776,-5.3131356
1747672461.2413616,5.4040985,1.0175967,0.35955733,1.7619461,1.6367776,-5.3131356
1747672461.242293,5.4040985,1.0175967,0.35955733,1.7619461,1.6367776,-5.3131356
1747672461.243226,6.2514653,0.82723206,0.45766833,1.7619461,1.6367776,-5.3131356
1747672461.244069,6.2514653,0.82723206,0.45766833,1.7619461,1.6367776,-5.3131356
1747672461.2449527,6.2514653,0.82723206,0.45766833,1.7619461,1.6367776,-5.3131356
1747672461.2457411,6.2514653,0.82723206,0.45766833,1.7619461,1.6367776,-5.3131356
1747672461.246547,6.2514653,0.82723206,0.45766833,1.7619461,1.6367776,-5.3131356
1747672461.2473946,6.2514653,0.82723206,0.45766833,1.7001607,1.6985629,-5.939511
1747672461.2485757,6.2514653,0.82723206,0.45766833,1.7001607,1.6985629,-5.939511
1747672461.2494795,6.2514653,0.82723206,0.45766833,1.7001607,1.6985629,-5.939511
1747672461.250385,6.2514653,0.82723206,0.45766833,1.7001607,1.6985629,-5.939511
1747672461.2514725,6.2514653,0.82723206,0.45766833,1.7001607,1.6985629,-5.939511
1747672461.2571206,6.2514653,0.82723206,0.45766833,1.7001607,1.6985629,-5.939511
1747672461.2581244,6.7498302,0.6568801,0.5079441,1.7672724,1.8871145,-6.4007697
1747672461.2589571,6.7498302,0.6568801,0.5079441,1.7672724,1.8871145,-6.4007697
1747672461.2599432,6.7498302,0.6568801,0.5079441,1.7672724,1.8871145,-6.4007697
1747672461.2607687,6.7498302,0.6568801,0.5079441,1.7672724,1.8871145,-6.4007697
1747672461.2615926,6.7498302,0.6568801,0.5079441,1.7672724,1.8871145,-6.4007697
1747672461.2624338,6.7498302,0.6568801,0.5079441,1.7672724,1.8871145,-6.4007697
1747672461.2635195,6.7498302,0.6568801,0.5079441,1.7672724,1.8871145,-6.4007697
1747672461.2643423,6.7498302,0.6568801,0.5079441,1.7672724,1.8871145,-6.4007697
1747672461.2651374,6.7498302,0.6568801,0.5079441,1.7672724,1.8871145,-6.4007697
1747672461.267236,7.4014626,0.30885443,0.33661595,1.9036261,2.1917799,-6.428467
1747672461.26829,7.4014626,0.30885443,0.33661595,1.9036261,2.1917799,-6.428467
1747672461.2690914,7.4014626,0.30885443,0.33661595,1.9036261,2.1917799,-6.428467
1747672461.2699063,7.4014626,0.30885443,0.33661595,1.9036261,2.1917799,-6.428467
1747672461.2706954,7.4014626,0.30885443,0.33661595,1.9036261,2.1917799,-6.428467
1747672461.2714434,7.4014626,0.30885443,0.33661595,1.9036261,2.1917799,-6.428467
1747672461.2722096,7.4014626,0.30885443,0.33661595,1.9036261,2.1917799,-6.428467
1747672461.2730083,7.4014626,0.30885443,0.33661595,1.9036261,2.1917799,-6.428467
1747672461.2738054,7.4014626,0.30885443,0.33661595,1.9036261,2.1917799,-6.428467
1747672461.274564,7.4014626,0.30885443,0.33661595,1.9036261,2.1917799,-6.428467
1747672461.2753012,7.4014626,0.30885443,0.33661595,1.9036261,2.1917799,-6.428467
1747672461.2760026,8.386967,-0.15338998,-0.18664278,1.9036261,2.1917799,-6.428467
1747672461.276706,8.386967,-0.15338998,-0.18664278,1.9036261,2.1917799,-6.428467
1747672461.2774074,8.386967,-0.15338998,-0.18664278,2.0037608,2.4144201,-6.550972
1747672461.2781572,8.386967,-0.15338998,-0.18664278,2.0037608,2.4144201,-6.550972
1747672461.278953,8.386967,-0.15338998,-0.18664278,2.0037608,2.4144201,-6.550972
1747672461.2796917,8.386967,-0.15338998,-0.18664278,2.0037608,2.4144201,-6.550972
1747672461.2804828,8.386967,-0.15338998,-0.18664278,2.0037608,2.4144201,-6.550972
1747672461.2812364,8.386967,-0.15338998,-0.18664278,2.0037608,2.4144201,-6.550972
1747672461.2819598,8.386967,-0.15338998,-0.18664278,2.0037608,2.4144201,-6.550972
1747672461.282665,8.386967,-0.15338998,-0.18664278,2.0037608,2.4144201,-6.550972
1747672461.2834177,8.386967,-0.15338998,-0.18664278,2.0037608,2.4144201,-6.550972
1747672461.284168,8.386967,-0.15338998,-0.18664278,2.0037608,2.4144201,-6.550972
1747672461.2868772,8.386967,-0.15338998,-0.18664278,2.0037608,2.4144201,-6.550972
1747672461.2880044,8.386967,-0.15338998,-0.18664278,2.0037608,2.4144201,-6.550972
1747672461.2889397,8.963918,-0.8787281,-0.8519428,1.7108134,2.4517043,-7.4308796
1747672461.2897453,8.963918,-0.8787281,-0.8519428,1.7108134,2.4517043,-7.4308796
