timestamp,acc_x,acc_y,acc_z,gyro_x,gyro_y,gyro_z
1747679454.1970754,0.09341291,0.1824328,0.95212835,0.09387636,-0.2539322,-0.02210422
1747679454.1976147,0.09341291,0.1824328,0.95212835,0.09387636,-0.2539322,-0.02210422
1747679454.1981401,0.09341291,0.1824328,0.95212835,0.09387636,-0.2539322,-0.02210422
1747679454.1986594,0.09341291,0.1824328,0.95212835,0.09387636,-0.2539322,-0.02210422
1747679454.199178,0.09341291,0.1824328,0.95212835,0.09387636,-0.2539322,-0.02210422
1747679454.199698,0.09341291,0.1824328,0.95212835,0.09387636,-0.2539322,-0.02210422
1747679454.2002182,0.09341291,0.1824328,0.95212835,0.09387636,-0.2539322,-0.02210422
1747679454.2007382,0.12611659,0.19365942,0.95164025,0.09387636,-0.2539322,-0.02210422
1747679454.2012565,0.12611659,0.19365942,0.95164025,0.09387636,-0.2539322,-0.02210422
1747679454.2017756,0.12611659,0.19365942,0.95164025,0.09387636,-0.2539322,-0.02210422
1747679454.2022977,0.12611659,0.19365942,0.95164025,0.09387636,-0.2539322,-0.02210422
1747679454.2028184,0.12611659,0.19365942,0.95164025,0.052331075,-0.2837596,0.037550543
1747679454.2033367,0.12611659,0.19365942,0.95164025,0.052331075,-0.2837596,0.037550543
1747679454.2038693,0.12611659,0.19365942,0.95164025,0.052331075,-0.2837596,0.037550543
1747679454.2044013,0.12611659,0.19365942,0.95164025,0.052331075,-0.2837596,0.037550543
1747679454.2049456,0.12611659,0.19365942,0.95164025,0.052331075,-0.2837596,0.037550543
1747679454.2054925,0.12611659,0.19365942,0.95164025,0.052331075,-0.2837596,0.037550543
1747679454.2060318,0.12611659,0.19365942,0.95164025,0.052331075,-0.2837596,0.037550543
1747679454.2065647,0.12611659,0.19365942,0.95164025,0.052331075,-0.2837596,0.037550543
1747679454.2070842,0.12611659,0.19365942,0.95164025,0.052331075,-0.2837596,0.037550543
1747679454.2076025,0.12611659,0.19365942,0.95164025,0.052331075,-0.2837596,0.037550543
1747679454.2081208,0.12611659,0.19365942,0.95164025,0.052331075,-0.2837596,0.037550543
1747679454.2086856,0.12611659,0.19365942,0.95164025,0.052331075,-0.2837596,0.037550543
1747679454.2092519,0.12611659,0.19365942,0.95164025,0.052331075,-0.2837596,0.037550543
1747679454.209821,0.12611659,0.19365942,0.95164025,0.052331075,-0.2837596,0.037550543
1747679454.2103832,0.12611659,0.19365942,0.95164025,0.010785795,-0.13568796,0.05672529
1747679454.2109404,0.25302637,0.1760873,1.0141189,0.010785795,-0.13568796,0.05672529
1747679454.2114892,0.25302637,0.1760873,1.0141189,0.010785795,-0.13568796,0.05672529
1747679454.2120433,0.25302637,0.1760873,1.0141189,0.010785795,-0.13568796,0.05672529
1747679454.2125962,0.25302637,0.1760873,1.0141189,0.010785795,-0.13568796,0.05672529
1747679454.2131438,0.25302637,0.1760873,1.0141189,0.010785795,-0.13568796,0.05672529
1747679454.2136939,0.25302637,0.1760873,1.0141189,0.010785795,-0.13568796,0.05672529
1747679454.2142365,0.25302637,0.1760873,1.0141189,0.010785795,-0.13568796,0.05672529
1747679454.2147717,0.25302637,0.1760873,1.0141189,0.010785795,-0.13568796,0.05672529
1747679454.2153125,0.25302637,0.1760873,1.0141189,0.010785795,-0.13568796,0.05672529
1747679454.2158487,0.25302637,0.1760873,1.0141189,0.010785795,-0.13568796,0.05672529
1747679454.216374,0.25302637,0.1760873,1.0141189,0.010785795,-0.13568796,0.05672529
1747679454.2168927,0.25302637,0.1760873,1.0141189,0.010785795,-0.13568796,0.05672529
1747679454.2174106,0.25302637,0.1760873,1.0141189,0.010785795,-0.13568796,0.05672529
1747679454.2179286,0.25302637,0.1760873,1.0141189,0.010785795,-0.13568796,0.05672529
1747679454.2184472,0.25302637,0.1760873,1.0141189,0.010785795,-0.13568796,0.05672529
1747679454.2189662,0.25302637,0.1760873,1.0141189,0.010785795,-0.13568796,0.05672529
1747679454.2194843,0.25302637,0.1760873,1.0141189,0.010785795,-0.13568796,0.05672529
1747679454.2200053,0.25302637,0.1760873,1.0141189,0.010785795,-0.13568796,0.05672529
1747679454.2205517,0.25302637,0.1760873,1.0141189,0.010785795,-0.13568796,0.05672529
1747679454.2211065,0.25302637,0.1760873,1.0141189,0.023568958,0.013448954,-0.00079894776
1747679454.2216384,0.25302637,0.1760873,1.0141189,0.023568958,0.013448954,-0.00079894776
1747679454.2221787,0.2945161,0.16827747,1.0600016,0.023568958,0.013448954,-0.00079894776
1747679454.2227385,0.2945161,0.16827747,1.0600016,0.023568958,0.013448954,-0.00079894776
1747679454.2232878,0.2945161,0.16827747,1.0600016,0.023568958,0.013448954,-0.00079894776
1747679454.2238472,0.2945161,0.16827747,1.0600016,0.023568958,0.013448954,-0.00079894776
1747679454.224396,0.2945161,0.16827747,1.0600016,0.023568958,0.013448954,-0.00079894776
1747679454.224924,0.2945161,0.16827747,1.0600016,0.023568958,0.013448954,-0.00079894776
1747679454.2254481,0.2945161,0.16827747,1.0600016,0.023568958,0.013448954,-0.00079894776
1747679454.2259703,0.2945161,0.16827747,1.0600016,0.023568958,0.013448954,-0.00079894776
1747679454.2265246,0.2945161,0.16827747,1.0600016,0.023568958,0.013448954,-0.00079894776
1747679454.2361577,0.2945161,0.16827747,1.0600016,0.023568958,0.013448954,-0.00079894776
1747679454.2367227,0.2945161,0.16827747,1.0600016,0.023568958,0.013448954,-0.00079894776
1747679454.2372713,0.2945161,0.16827747,1.0600016,0.023568958,0.013448954,-0.00079894776
1747679454.2378228,0.2945161,0.16827747,1.0600016,0.023568958,0.013448954,-0.00079894776
1747679454.2383654,0.2945161,0.16827747,1.0600016,0.023568958,0.013448954,-0.00079894776
1747679454.2389069,0.2945161,0.16827747,1.0600016,0.023568958,0.013448954,-0.00079894776
1747679454.2394843,0.28768247,0.17462297,1.0761094,0.023568958,0.013448954,-0.00079894776
1747679454.2400308,0.26718166,0.17706352,1.0980746,0.057657395,0.1263669,-0.05619266
1747679454.240557,0.26718166,0.17706352,1.0980746,0.13009532,0.2584596,-0.11371689
1747679454.241083,0.26718166,0.17706352,1.0980746,0.13009532,0.2584596,-0.11371689
1747679454.2416012,0.26718166,0.17706352,1.0980746,0.13009532,0.2584596,-0.11371689
1747679454.2421198,0.26718166,0.17706352,1.0980746,0.13009532,0.2584596,-0.11371689
1747679454.242638,0.26718166,0.17706352,1.0980746,0.13009532,0.2584596,-0.11371689
1747679454.2431564,0.26718166,0.17706352,1.0980746,0.13009532,0.2584596,-0.11371689
1747679454.2436888,0.26718166,0.17706352,1.0980746,0.13009532,0.2584596,-0.11371689
1747679454.244224,0.26718166,0.17706352,1.0980746,0.13009532,0.2584596,-0.11371689
1747679454.2447445,0.26718166,0.17706352,1.0980746,0.13009532,0.2584596,-0.11371689
1747679454.2452626,0.26718166,0.17706352,1.0980746,0.13009532,0.2584596,-0.11371689
1747679454.245781,0.26718166,0.17706352,1.0980746,0.13009532,0.2584596,-0.11371689
1747679454.246299,0.26718166,0.17706352,1.0980746,0.13009532,0.2584596,-0.11371689
1747679454.2468174,0.26718166,0.17706352,1.0980746,0.13009532,0.2584596,-0.11371689
1747679454.2473404,0.26718166,0.17706352,1.0980746,0.13009532,0.2584596,-0.11371689
1747679454.2478633,0.26718166,0.17706352,1.0980746,0.13009532,0.2584596,-0.11371689
1747679454.2483816,0.26718166,0.17706352,1.0980746,0.13009532,0.2584596,-0.11371689
1747679454.2488997,0.26718166,0.17706352,1.0980746,0.13009532,0.2584596,-0.11371689
1747679454.2494173,0.26718166,0.17706352,1.0980746,0.13009532,0.2584596,-0.11371689
1747679454.2499359,0.25205013,0.15851519,1.0717164,0.13009532,0.2584596,-0.11371689
1747679454.250457,0.25205013,0.15851519,1.0717164,0.13009532,0.2584596,-0.11371689
1747679454.251006,0.25205013,0.15851519,1.0717164,0.13009532,0.2584596,-0.11371689
1747679454.251554,0.25205013,0.15851519,1.0717164,0.13009532,0.2584596,-0.11371689
1747679454.2520907,0.25205013,0.15851519,1.0717164,0.13009532,0.2584596,-0.11371689
1747679454.2526138,0.25205013,0.15851519,1.0717164,0.13009532,0.2584596,-0.11371689
1747679454.253136,0.25205013,0.15851519,1.0717164,0.13009532,0.2584596,-0.11371689
1747679454.2536623,0.25205013,0.15851519,1.0717164,0.13009532,0.2584596,-0.11371689
1747679454.2542398,0.25205013,0.15851519,1.0717164,0.13009532,0.2584596,-0.11371689
1747679454.2548158,0.25205013,0.15851519,1.0717164,0.21425115,0.35646385,-0.15419692
1747679454.255365,0.25205013,0.15851519,1.0717164,0.21425115,0.35646385,-0.15419692
1747679454.2559144,0.25205013,0.15851519,1.0717164,0.21425115,0.35646385,-0.15419692
1747679454.2564645,0.25205013,0.15851519,1.0717164,0.21425115,0.35646385,-0.15419692
1747679454.2570016,0.25205013,0.15851519,1.0717164,0.21425115,0.35646385,-0.15419692
1747679454.2575295,0.25205013,0.15851519,1.0717164,0.21425115,0.35646385,-0.15419692
1747679454.2580564,0.25205013,0.15851519,1.0717164,0.21425115,0.35646385,-0.15419692
1747679454.2585843,0.25205013,0.15851519,1.0717164,0.21425115,0.35646385,-0.15419692
1747679454.2591162,0.25205013,0.15851519,1.0717164,0.21425115,0.35646385,-0.15419692
1747679454.259645,0.25205013,0.15851519,1.0717164,0.21425115,0.35646385,-0.15419692
1747679454.2601755,0.25205013,0.15851519,1.0717164,0.21425115,0.35646385,-0.15419692
1747679454.260723,0.25205013,0.15851519,1.0717164,0.21425115,0.35646385,-0.15419692
1747679454.2612627,0.25205013,0.15851519,1.0717164,0.21425115,0.35646385,-0.15419692
1747679454.2617865,0.25205013,0.15851519,1.0717164,0.21425115,0.35646385,-0.15419692
1747679454.2623076,0.25205013,0.15851519,1.0717164,0.21425115,0.35646385,-0.15419692
1747679454.2628288,0.25205013,0.15851519,1.0717164,0.21425115,0.35646385,-0.15419692
1747679454.2633643,0.25205013,0.15851519,1.0717164,0.21425115,0.35646385,-0.15419692
1747679454.2639034,0.25205013,0.15851519,1.0717164,0.21425115,0.35646385,-0.15419692
1747679454.2644515,0.25205013,0.15851519,1.0717164,0.21425115,0.35646385,-0.15419692
1747679454.2649734,0.25205013,0.15851519,1.0717164,0.21425115,0.35646385,-0.15419692
1747679454.2655034,0.25205013,0.15851519,1.0717164,0.21425115,0.35646385,-0.15419692
1747679454.2660353,0.21690588,0.166325,1.0287622,0.2483396,0.36818174,-0.17337166
1747679454.2665586,0.21690588,0.166325,1.0287622,0.2483396,0.36818174,-0.17337166
1747679454.2671056,0.21690588,0.166325,1.0287622,0.2483396,0.36818174,-0.17337166
1747679454.267659,0.21690588,0.166325,1.0287622,0.2483396,0.36818174,-0.17337166
1747679454.2681997,0.21690588,0.166325,1.0287622,0.2483396,0.36818174,-0.17337166
1747679454.26873,0.21690588,0.166325,1.0287622,0.2483396,0.36818174,-0.17337166
1747679454.2692888,0.21690588,0.166325,1.0287622,0.2483396,0.36818174,-0.17337166
1747679454.269851,0.21690588,0.166325,1.0287622,0.2483396,0.36818174,-0.17337166
1747679454.2703938,0.21690588,0.166325,1.0287622,0.2483396,0.36818174,-0.17337166
1747679454.270925,0.21690588,0.166325,1.0287622,0.2483396,0.36818174,-0.17337166
1747679454.2714446,0.21690588,0.166325,1.0287622,0.2483396,0.36818174,-0.17337166
1747679454.271963,0.13148585,0.18389714,0.9565214,0.2483396,0.36818174,-0.17337166
1747679454.2724814,0.13148585,0.18389714,0.9565214,0.2483396,0.36818174,-0.17337166
1747679454.273,0.13148585,0.18389714,0.9565214,0.25473118,0.26804698,-0.15845796
1747679454.2735376,0.13148585,0.18389714,0.9565214,0.25473118,0.26804698,-0.15845796
1747679454.274071,0.13148585,0.18389714,0.9565214,0.25473118,0.26804698,-0.15845796
1747679454.2745912,0.13148585,0.18389714,0.9565214,0.25473118,0.26804698,-0.15845796
1747679454.2751157,0.13148585,0.18389714,0.9565214,0.25473118,0.26804698,-0.15845796
1747679454.2756343,0.13148585,0.18389714,0.9565214,0.25473118,0.26804698,-0.15845796
1747679454.2761521,0.13148585,0.18389714,0.9565214,0.25473118,0.26804698,-0.15845796
1747679454.2766702,0.13148585,0.18389714,0.9565214,0.25473118,0.26804698,-0.15845796
1747679454.277188,0.13148585,0.18389714,0.9565214,0.25473118,0.26804698,-0.15845796
1747679454.2777057,0.13148585,0.18389714,0.9565214,0.25473118,0.26804698,-0.15845796
1747679454.2782235,0.13148585,0.18389714,0.9565214,0.25473118,0.26804698,-0.15845796
1747679454.2787416,0.13148585,0.18389714,0.9565214,0.25473118,0.26804698,-0.15845796
1747679454.2792597,0.13148585,0.18389714,0.9565214,0.25473118,0.26804698,-0.15845796
1747679454.2797773,0.13148585,0.18389714,0.9565214,0.25473118,0.26804698,-0.15845796
1747679454.2802954,0.13148585,0.18389714,0.9565214,0.25473118,0.26804698,-0.15845796
1747679454.2808135,0.13148585,0.18389714,0.9565214,0.25473118,0.26804698,-0.15845796
1747679454.2813418,0.13148585,0.18389714,0.9565214,0.25473118,0.26804698,-0.15845796
1747679454.2818902,0.13148585,0.18389714,0.9565214,0.25473118,0.26804698,-0.15845796
1747679454.2824461,0.092436686,0.20781474,0.8901378,0.20572904,0.05925529,-0.07643267
1747679454.2830234,0.092436686,0.20781474,0.8901378,0.20572904,0.05925529,-0.07643267
1747679454.2835903,0.092436686,0.20781474,0.8901378,0.20572904,0.05925529,-0.07643267
1747679454.2841482,0.092436686,0.20781474,0.8901378,0.20572904,0.05925529,-0.07643267
1747679454.2847562,0.092436686,0.20781474,0.8901378,0.20572904,0.05925529,-0.07643267
1747679454.2853038,0.092436686,0.20781474,0.8901378,0.20572904,0.05925529,-0.07643267
1747679454.2858398,0.092436686,0.20781474,0.8901378,0.20572904,0.05925529,-0.07643267
1747679454.286363,0.092436686,0.20781474,0.8901378,0.20572904,0.05925529,-0.07643267
1747679454.2869189,0.092436686,0.20781474,0.8901378,0.20572904,0.05925529,-0.07643267
1747679454.2877393,0.092436686,0.20781474,0.8901378,0.20572904,0.05925529,-0.07643267
1747679454.2883074,0.092436686,0.20781474,0.8901378,0.20572904,0.05925529,-0.07643267
1747679454.2888696,0.092436686,0.20781474,0.8901378,0.20572904,0.05925529,-0.07643267
1747679454.2894275,0.092436686,0.20781474,0.8901378,0.20572904,0.05925529,-0.07643267
1747679454.2899745,0.092436686,0.20781474,0.8901378,0.20572904,0.05925529,-0.07643267
1747679454.2905073,0.092436686,0.20781474,0.8901378,0.20572904,0.05925529,-0.07643267
1747679454.2910268,0.092436686,0.20781474,0.8901378,0.20572904,0.05925529,-0.07643267
1747679454.2915452,0.092436686,0.20781474,0.8901378,0.20572904,0.05925529,-0.07643267
1747679454.2920635,0.092436686,0.20781474,0.8901378,0.20572904,0.05925529,-0.07643267
1747679454.2925813,0.092436686,0.20781474,0.8901378,0.20572904,0.05925529,-0.07643267
1747679454.2930994,0.092436686,0.20781474,0.8901378,0.20572904,0.05925529,-0.07643267
1747679454.2936332,0.11537806,0.20146926,0.8427907,0.13009532,-0.11225215,-0.019973693
1747679454.2941754,0.11537806,0.20146926,0.8427907,0.13009532,-0.11225215,-0.019973693
1747679454.2947063,0.11537806,0.20146926,0.8427907,0.13009532,-0.11225215,-0.019973693
1747679454.2952266,0.11537806,0.20146926,0.8427907,0.13009532,-0.11225215,-0.019973693
1747679454.2957454,0.11537806,0.20146926,0.8427907,0.13009532,-0.11225215,-0.019973693
1747679454.2962637,0.11537806,0.20146926,0.8427907,0.13009532,-0.11225215,-0.019973693
1747679454.2967818,0.11537806,0.20146926,0.8427907,0.13009532,-0.11225215,-0.019973693
1747679454.297302,0.11537806,0.20146926,0.8427907,0.13009532,-0.11225215,-0.019973693
1747679454.2978497,0.11537806,0.20146926,0.8427907,0.13009532,-0.11225215,-0.019973693
1747679454.2983906,0.11537806,0.20146926,0.8427907,0.13009532,-0.11225215,-0.019973693
1747679454.2989464,0.11537806,0.20146926,0.8427907,0.13009532,-0.11225215,-0.019973693
1747679454.2994833,0.11537806,0.20146926,0.8427907,0.13009532,-0.11225215,-0.019973693
1747679454.3000565,0.11537806,0.20146926,0.8427907,0.13009532,-0.11225215,-0.019973693
1747679454.3006067,0.11537806,0.20146926,0.8427907,0.13009532,-0.11225215,-0.019973693
1747679454.3011456,0.11537806,0.20146926,0.8427907,0.13009532,-0.11225215,-0.019973693
1747679454.3017116,0.11537806,0.20146926,0.8427907,0.13009532,-0.11225215,-0.019973693
1747679454.3022716,0.13783133,0.19365942,0.83009964,-0.01691106,-0.2017343,0.025832644
1747679454.302825,0.13783133,0.19365942,0.83009964,-0.01691106,-0.2017343,0.025832644
1747679454.3033738,0.13783133,0.19365942,0.83009964,-0.01691106,-0.2017343,0.025832644
1747679454.3039148,0.13783133,0.19365942,0.83009964,-0.01691106,-0.2017343,0.025832644
1747679454.304449,0.13783133,0.19365942,0.83009964,-0.01691106,-0.2017343,0.025832644
1747679454.3049805,0.13783133,0.19365942,0.83009964,-0.01691106,-0.2017343,0.025832644
1747679454.3055124,0.13783133,0.19365942,0.83009964,-0.01691106,-0.2017343,0.025832644
1747679454.3060591,0.13783133,0.19365942,0.83009964,-0.01691106,-0.2017343,0.025832644
1747679454.3066041,0.13783133,0.19365942,0.83009964,-0.01691106,-0.2017343,0.025832644
1747679454.307138,0.13783133,0.19365942,0.83009964,-0.01691106,-0.2017343,0.025832644
1747679454.307658,0.13783133,0.19365942,0.83009964,-0.01691106,-0.2017343,0.025832644
1747679454.3081763,0.13783133,0.19365942,0.83009964,-0.01691106,-0.2017343,0.025832644
1747679454.3086946,0.13783133,0.19365942,0.83009964,-0.01691106,-0.2017343,0.025832644
1747679454.3092127,0.13783133,0.19365942,0.83009964,-0.01691106,-0.2017343,0.025832644
1747679454.3097312,0.17248747,0.19463566,0.86475587,-0.13622059,-0.17403744,0.047137916
1747679454.31025,0.17248747,0.19463566,0.86475587,-0.13622059,-0.17403744,0.047137916
1747679454.3107705,0.17248747,0.19463566,0.86475587,-0.13622059,-0.17403744,0.047137916
1747679454.3112912,0.17248747,0.19463566,0.86475587,-0.13622059,-0.17403744,0.047137916
1747679454.3118095,0.17248747,0.19463566,0.86475587,-0.13622059,-0.17403744,0.047137916
1747679454.3123317,0.17248747,0.19463566,0.86475587,-0.13622059,-0.17403744,0.047137916
1747679454.3128505,0.17248747,0.19463566,0.86475587,-0.13622059,-0.17403744,0.047137916
1747679454.3133717,0.17248747,0.19463566,0.86475587,-0.13622059,-0.17403744,0.047137916
1747679454.3139262,0.17248747,0.19463566,0.86475587,-0.13622059,-0.17403744,0.047137916
1747679454.3144734,0.17248747,0.19463566,0.86475587,-0.13622059,-0.17403744,0.047137916
1747679454.3150406,0.17248747,0.19463566,0.86475587,-0.13622059,-0.17403744,0.047137916
1747679454.315613,0.17248747,0.19463566,0.86475587,-0.13622059,-0.17403744,0.047137916
1747679454.3161652,0.17248747,0.19463566,0.86475587,-0.13622059,-0.17403744,0.047137916
1747679454.3167117,0.17248747,0.19463566,0.86475587,-0.13622059,-0.17403744,0.047137916
1747679454.3172503,0.17248747,0.19463566,0.86475587,-0.13622059,-0.17403744,0.047137916
1747679454.317774,0.17248747,0.19463566,0.86475587,-0.13622059,-0.17403744,0.047137916
1747679454.3190308,0.17248747,0.19463566,0.86475587,-0.13622059,-0.17403744,0.047137916
1747679454.319592,0.17248747,0.19463566,0.86475587,-0.13622059,-0.17403744,0.047137916
1747679454.3201423,0.19494073,0.1897545,0.8969714,-0.13622059,-0.17403744,0.047137916
1747679454.3206751,0.19494073,0.1897545,0.8969714,-0.22463746,-0.13568796,0.042876862
1747679454.3212037,0.19494073,0.1897545,0.8969714,-0.22463746,-0.13568796,0.042876862
1747679454.321734,0.19494073,0.1897545,0.8969714,-0.22463746,-0.13568796,0.042876862
1747679454.322267,0.19494073,0.1897545,0.8969714,-0.22463746,-0.13568796,0.042876862
1747679454.3227978,0.19494073,0.1897545,0.8969714,-0.22463746,-0.13568796,0.042876862
1747679454.323327,0.19494073,0.1897545,0.8969714,-0.22463746,-0.13568796,0.042876862
1747679454.323863,0.19494073,0.1897545,0.8969714,-0.22463746,-0.13568796,0.042876862
1747679454.3244257,0.19494073,0.1897545,0.8969714,-0.22463746,-0.13568796,0.042876862
1747679454.3249836,0.19494073,0.1897545,0.8969714,-0.22463746,-0.13568796,0.042876862
1747679454.3255048,0.19494073,0.1897545,0.8969714,-0.22463746,-0.13568796,0.042876862
1747679454.3260233,0.19494073,0.1897545,0.8969714,-0.22463746,-0.13568796,0.042876862
1747679454.3265421,0.19494073,0.1897545,0.8969714,-0.22463746,-0.13568796,0.042876862
1747679454.3270605,0.19494073,0.1897545,0.8969714,-0.22463746,-0.13568796,0.042876862
1747679454.3275788,0.19494073,0.1897545,0.8969714,-0.22463746,-0.13568796,0.042876862
1747679454.3280969,0.19494073,0.1897545,0.8969714,-0.22463746,-0.13568796,0.042876862
1747679454.328642,0.19494073,0.1897545,0.8969714,-0.22463746,-0.13568796,0.042876862
1747679454.329191,0.19494073,0.1897545,0.8969714,-0.22463746,-0.13568796,0.042876862
1747679454.3297362,0.19494073,0.1897545,0.8969714,-0.22463746,-0.13568796,0.042876862
1747679454.330299,0.19494073,0.1897545,0.8969714,-0.22463746,-0.13568796,0.042876862
1747679454.330871,0.19494073,0.1897545,0.8969714,-0.22463746,-0.13568796,0.042876862
1747679454.3314414,0.19494073,0.1897545,0.8969714,-0.22463746,-0.13568796,0.042876862
1747679454.3319855,0.19494073,0.1897545,0.8969714,-0.22463746,-0.13568796,0.042876862
1747679454.3325057,0.19982187,0.18145657,0.9272345,-0.22463746,-0.13568796,0.042876862
1747679454.333025,0.19982187,0.18145657,0.9272345,-0.28642276,-0.09520794,0.037550543
1747679454.3335562,0.19982187,0.18145657,0.9272345,-0.28642276,-0.09520794,0.037550543
1747679454.3340845,0.19982187,0.18145657,0.9272345,-0.28642276,-0.09520794,0.037550543
1747679454.334605,0.19982187,0.18145657,0.9272345,-0.28642276,-0.09520794,0.037550543
1747679454.3351238,0.19982187,0.18145657,0.9272345,-0.28642276,-0.09520794,0.037550543
1747679454.3356416,0.19982187,0.18145657,0.9272345,-0.28642276,-0.09520794,0.037550543
1747679454.3361595,0.19982187,0.18145657,0.9272345,-0.28642276,-0.09520794,0.037550543
1747679454.336677,0.19982187,0.18145657,0.9272345,-0.28642276,-0.09520794,0.037550543
1747679454.337195,0.19982187,0.18145657,0.9272345,-0.28642276,-0.09520794,0.037550543
1747679454.3377135,0.19982187,0.18145657,0.9272345,-0.28642276,-0.09520794,0.037550543
1747679454.3382316,0.19982187,0.18145657,0.9272345,-0.28642276,-0.09520794,0.037550543
1747679454.3387496,0.19982187,0.18145657,0.9272345,-0.28642276,-0.09520794,0.037550543
1747679454.3392675,0.19982187,0.18145657,0.9272345,-0.28642276,-0.09520794,0.037550543
1747679454.3397858,0.19982187,0.18145657,0.9272345,-0.28642276,-0.09520794,0.037550543
1747679454.3403037,0.19982187,0.18145657,0.9272345,-0.28642276,-0.09520794,0.037550543
1747679454.340822,0.19982187,0.18145657,0.9272345,-0.28642276,-0.09520794,0.037550543
1747679454.3413408,0.19982187,0.18145657,0.9272345,-0.28642276,-0.09520794,0.037550543
1747679454.3418586,0.19982187,0.18145657,0.9272345,-0.28642276,-0.09520794,0.037550543
1747679454.3423767,0.19884564,0.17852788,0.9638431,-0.31838068,-0.05792371,0.030093698
1747679454.342897,0.19884564,0.17852788,0.9638431,-0.31838068,-0.05792371,0.030093698
1747679454.343415,0.19884564,0.17852788,0.9638431,-0.31838068,-0.05792371,0.030093698
1747679454.3439443,0.19884564,0.17852788,0.9638431,-0.31838068,-0.05792371,0.030093698
1747679454.3444867,0.19884564,0.17852788,0.9638431,-0.31838068,-0.05792371,0.030093698
1747679454.3450391,0.19884564,0.17852788,0.9638431,-0.31838068,-0.05792371,0.030093698
1747679454.3455925,0.19884564,0.17852788,0.9638431,-0.31838068,-0.05792371,0.030093698
1747679454.3461523,0.19884564,0.17852788,0.9638431,-0.31838068,-0.05792371,0.030093698
1747679454.3467143,0.19884564,0.17852788,0.9638431,-0.31838068,-0.05792371,0.030093698
1747679454.347256,0.19884564,0.17852788,0.9638431,-0.31838068,-0.05792371,0.030093698
1747679454.3478034,0.19884564,0.17852788,0.9638431,-0.31838068,-0.05792371,0.030093698
1747679454.3483648,0.19884564,0.17852788,0.9638431,-0.31838068,-0.05792371,0.030093698
1747679454.3494916,0.19884564,0.17852788,0.9638431,-0.31838068,-0.05792371,0.030093698
1747679454.3500483,0.19884564,0.17852788,0.9638431,-0.31838068,-0.05792371,0.030093698
1747679454.3505824,0.19884564,0.17852788,0.9638431,-0.31838068,-0.05792371,0.030093698
1747679454.3511019,0.19884564,0.17852788,0.9638431,-0.31838068,-0.05792371,0.030093698
1747679454.3516333,0.19884564,0.17852788,0.9638431,-0.31838068,-0.05792371,0.030093698
1747679454.3521547,0.19884564,0.17852788,0.9638431,-0.31838068,-0.05792371,0.030093698
1747679454.3526733,0.19884564,0.17852788,0.9638431,-0.31838068,-0.05792371,0.030093698
1747679454.353192,0.2271563,0.17022994,1.0297385,-0.3119891,0.020905798,0.029028434
1747679454.353713,0.2271563,0.17022994,1.0297385,-0.3119891,0.020905798,0.029028434
1747679454.35425,0.2271563,0.17022994,1.0297385,-0.3119891,0.020905798,0.029028434
1747679454.354789,0.2271563,0.17022994,1.0297385,-0.3119891,0.020905798,0.029028434
1747679454.3553116,0.2271563,0.17022994,1.0297385,-0.3119891,0.020905798,0.029028434
1747679454.3558323,0.2271563,0.17022994,1.0297385,-0.3119891,0.020905798,0.029028434
1747679454.3563535,0.2271563,0.17022994,1.0297385,-0.3119891,0.020905798,0.029028434
1747679454.3568745,0.2271563,0.17022994,1.0297385,-0.3119891,0.020905798,0.029028434
1747679454.3573952,0.2271563,0.17022994,1.0297385,-0.3119891,0.020905798,0.029028434
1747679454.3579166,0.2271563,0.17022994,1.0297385,-0.3119891,0.020905798,0.029028434
1747679454.3584373,0.2271563,0.17022994,1.0297385,-0.3119891,0.020905798,0.029028434
1747679454.358958,0.2271563,0.17022994,1.0297385,-0.3119891,0.020905798,0.029028434
1747679454.3594787,0.2271563,0.17022994,1.0297385,-0.3119891,0.020905798,0.029028434
1747679454.3599997,0.2271563,0.17022994,1.0297385,-0.3119891,0.020905798,0.029028434
1747679454.3605227,0.2271563,0.17022994,1.0297385,-0.3119891,0.020905798,0.029028434
1747679454.3610816,0.2271563,0.17022994,1.0297385,-0.3119891,0.020905798,0.029028434
1747679454.3616416,0.2271563,0.17022994,1.0297385,-0.3119891,0.020905798,0.029028434
1747679454.3621893,0.2271563,0.17022994,1.0297385,-0.3119891,0.020905798,0.029028434
1747679454.36273,0.2271563,0.17022994,1.0297385,-0.3119891,0.020905798,0.029028434
1747679454.3632572,0.2271563,0.17022994,1.0297385,-0.3119891,0.020905798,0.029028434
1747679454.3638053,0.2271563,0.17022994,1.0297385,-0.3119891,0.020905798,0.029028434
1747679454.3643832,0.24521652,0.16339633,1.0619541,-0.27257434,0.058190025,0.011984216
1747679454.3649273,0.24521652,0.16339633,1.0619541,-0.27257434,0.058190025,0.011984216
1747679454.3654635,0.24521652,0.16339633,1.0619541,-0.27257434,0.058190025,0.011984216
1747679454.3659859,0.24521652,0.16339633,1.0619541,-0.27257434,0.058190025,0.011984216
1747679454.3665066,0.24521652,0.16339633,1.0619541,-0.27257434,0.058190025,0.011984216
1747679454.3670282,0.24521652,0.16339633,1.0619541,-0.27257434,0.058190025,0.011984216
1747679454.367549,0.24521652,0.16339633,1.0619541,-0.27257434,0.058190025,0.011984216
1747679454.3680694,0.24521652,0.16339633,1.0619541,-0.27257434,0.058190025,0.011984216
1747679454.368593,0.24521652,0.16339633,1.0619541,-0.27257434,0.058190025,0.011984216
1747679454.3691008,0.24521652,0.16339633,1.0619541,-0.27257434,0.058190025,0.011984216
1747679454.36962,0.24521652,0.16339633,1.0619541,-0.27257434,0.058190025,0.011984216
1747679454.3701384,0.24521652,0.16339633,1.0619541,-0.27257434,0.058190025,0.011984216
1747679454.3706565,0.24521652,0.16339633,1.0619541,-0.27257434,0.058190025,0.011984216
1747679454.3711743,0.24521652,0.16339633,1.0619541,-0.27257434,0.058190025,0.011984216
1747679454.3716922,0.24521652,0.16339633,1.0619541,-0.27257434,0.058190025,0.011984216
1747679454.372211,0.24521652,0.16339633,1.0619541,-0.27257434,0.058190025,0.011984216
1747679454.3727405,0.24765708,0.16486067,1.0687877,-0.22357221,0.07097319,-0.014647375
1747679454.3732595,0.24765708,0.16486067,1.0687877,-0.22357221,0.07097319,-0.014647375
1747679454.3737779,0.24765708,0.16486067,1.0687877,-0.22357221,0.07097319,-0.014647375
1747679454.374308,0.24765708,0.16486067,1.0687877,-0.22357221,0.07097319,-0.014647375
1747679454.374837,0.24765708,0.16486067,1.0687877,-0.22357221,0.07097319,-0.014647375
1747679454.3753576,0.24765708,0.16486067,1.0687877,-0.22357221,0.07097319,-0.014647375
1747679454.3759353,0.24765708,0.16486067,1.0687877,-0.22357221,0.07097319,-0.014647375
1747679454.3764973,0.24765708,0.16486067,1.0687877,-0.22357221,0.07097319,-0.014647375
1747679454.377056,0.24765708,0.16486067,1.0687877,-0.22357221,0.07097319,-0.014647375
1747679454.3775952,0.24765708,0.16486067,1.0687877,-0.22357221,0.07097319,-0.014647375
1747679454.3781264,0.24765708,0.16486067,1.0687877,-0.22357221,0.07097319,-0.014647375
1747679454.3786576,0.24765708,0.16486067,1.0687877,-0.22357221,0.07097319,-0.014647375
1747679454.3792121,0.24765708,0.16486067,1.0687877,-0.22357221,0.07097319,-0.014647375
1747679454.3797643,0.24765708,0.16486067,1.0687877,-0.22357221,0.07097319,-0.014647375
1747679454.380304,0.24765708,0.16486067,1.0687877,-0.22357221,0.07097319,-0.014647375
1747679454.3808377,0.24765708,0.16486067,1.0687877,-0.22357221,0.07097319,-0.014647375
1747679454.3813572,0.24765708,0.16486067,1.0687877,-0.22357221,0.07097319,-0.014647375
1747679454.3818762,0.24765708,0.16486067,1.0687877,-0.22357221,0.07097319,-0.014647375
1747679454.382394,0.24765708,0.16486067,1.0687877,-0.22357221,0.07097319,-0.014647375
1747679454.3829124,0.24765708,0.16486067,1.0687877,-0.22357221,0.07097319,-0.014647375
1747679454.3834395,0.24765708,0.16486067,1.0687877,-0.22357221,0.07097319,-0.014647375
1747679454.3839693,0.24765708,0.16486067,1.0687877,-0.22357221,0.07097319,-0.014647375
1747679454.3844898,0.24765708,0.16486067,1.0687877,-0.14793849,0.04860265,-0.05619266
1747679454.385009,0.2271563,0.1721824,1.0512156,-0.14793849,0.04860265,-0.05619266
1747679454.3855274,0.2271563,0.1721824,1.0512156,-0.14793849,0.04860265,-0.05619266
1747679454.386046,0.2271563,0.1721824,1.0512156,-0.14793849,0.04860265,-0.05619266
1747679454.386564,0.2271563,0.1721824,1.0512156,-0.14793849,0.04860265,-0.05619266
1747679454.3870826,0.2271563,0.1721824,1.0512156,-0.14793849,0.04860265,-0.05619266
1747679454.3876004,0.2271563,0.1721824,1.0512156,-0.14793849,0.04860265,-0.05619266
1747679454.3881185,0.2271563,0.1721824,1.0512156,-0.14793849,0.04860265,-0.05619266
1747679454.3886364,0.2271563,0.1721824,1.0512156,-0.14793849,0.04860265,-0.05619266
1747679454.3891547,0.2271563,0.1721824,1.0512156,-0.14793849,0.04860265,-0.05619266
1747679454.3896728,0.2271563,0.1721824,1.0512156,-0.14793849,0.04860265,-0.05619266
1747679454.3901908,0.2271563,0.1721824,1.0512156,-0.14793849,0.04860265,-0.05619266
1747679454.390709,0.2271563,0.1721824,1.0512156,-0.14793849,0.04860265,-0.05619266
1747679454.3912678,0.2271563,0.1721824,1.0512156,-0.14793849,0.04860265,-0.05619266
1747679454.391821,0.2271563,0.1721824,1.0512156,-0.14793849,0.04860265,-0.05619266
1747679454.3923647,0.2271563,0.1721824,1.0512156,-0.14793849,0.04860265,-0.05619266
1747679454.3929048,0.2271563,0.1721824,1.0512156,-0.14793849,0.04860265,-0.05619266
1747679454.393436,0.19201204,0.16486067,1.0263216,-0.109588996,0.0070573715,-0.07217161
1747679454.3939729,0.19201204,0.16486067,1.0263216,-0.109588996,0.0070573715,-0.07217161
1747679454.3945067,0.19201204,0.16486067,1.0263216,-0.109588996,0.0070573715,-0.07217161
1747679454.395029,0.19201204,0.16486067,1.0263216,-0.109588996,0.0070573715,-0.07217161
1747679454.3955488,0.19201204,0.16486067,1.0263216,-0.109588996,0.0070573715,-0.07217161
1747679454.3961062,0.19201204,0.16486067,1.0263216,-0.109588996,0.0070573715,-0.07217161
1747679454.3966248,0.19201204,0.16486067,1.0263216,-0.109588996,0.0070573715,-0.07217161
1747679454.3971434,0.19201204,0.16486067,1.0263216,-0.109588996,0.0070573715,-0.07217161
1747679454.3976612,0.19201204,0.16486067,1.0263216,-0.109588996,0.0070573715,-0.07217161
1747679454.3981788,0.19201204,0.16486067,1.0263216,-0.109588996,0.0070573715,-0.07217161
1747679454.398697,0.19201204,0.16486067,1.0263216,-0.109588996,0.0070573715,-0.07217161
1747679454.3992152,0.19201204,0.16486067,1.0263216,-0.109588996,0.0070573715,-0.07217161
1747679454.3997328,0.19201204,0.16486067,1.0263216,-0.109588996,0.0070573715,-0.07217161
1747679454.400251,0.19201204,0.16486067,1.0263216,-0.109588996,0.0070573715,-0.07217161
1747679454.4007688,0.19201204,0.16486067,1.0263216,-0.109588996,0.0070573715,-0.07217161
1747679454.4012864,0.19201204,0.16486067,1.0263216,-0.109588996,0.0070573715,-0.07217161
1747679454.4018044,0.19201204,0.16486067,1.0263216,-0.109588996,0.0070573715,-0.07217161
1747679454.4023225,0.19201204,0.16486067,1.0263216,-0.109588996,0.0070573715,-0.07217161
1747679454.4028406,0.19201204,0.16486067,1.0263216,-0.109588996,0.0070573715,-0.07217161
1747679454.4033585,0.19201204,0.16486067,1.0263216,-0.109588996,0.0070573715,-0.07217161
1747679454.4038785,0.19201204,0.16486067,1.0263216,-0.109588996,0.0070573715,-0.07217161
1747679454.4044108,0.19201204,0.16486067,1.0263216,-0.109588996,0.0070573715,-0.07217161
1747679454.4049404,0.19201204,0.16486067,1.0263216,-0.109588996,0.0070573715,-0.07217161
1747679454.4054615,0.19201204,0.16486067,1.0263216,-0.0946753,-0.041944757,-0.06471477
1747679454.4059799,0.19201204,0.16486067,1.0263216,-0.0946753,-0.041944757,-0.06471477
1747679454.4065368,0.14759362,0.16388445,1.0180237,-0.0946753,-0.041944757,-0.06471477
1747679454.4071054,0.14759362,0.16388445,1.0180237,-0.0946753,-0.041944757,-0.06471477
1747679454.4076445,0.14759362,0.16388445,1.0180237,-0.0946753,-0.041944757,-0.06471477
1747679454.4081733,0.14759362,0.16388445,1.0180237,-0.0946753,-0.041944757,-0.06471477
1747679454.4087315,0.14759362,0.16388445,1.0180237,-0.0946753,-0.041944757,-0.06471477
1747679454.409274,0.14759362,0.16388445,1.0180237,-0.0946753,-0.041944757,-0.06471477
1747679454.4098072,0.14759362,0.16388445,1.0180237,-0.0946753,-0.041944757,-0.06471477
1747679454.4103274,0.14759362,0.16388445,1.0180237,-0.0946753,-0.041944757,-0.06471477
1747679454.4108467,0.14759362,0.16388445,1.0180237,-0.0946753,-0.041944757,-0.06471477
1747679454.411366,0.10805635,0.15509838,1.0219287,-0.0946753,-0.041944757,-0.06471477
1747679454.4118843,0.10805635,0.15509838,1.0219287,-0.0946753,-0.041944757,-0.06471477
1747679454.4124024,0.10805635,0.15509838,1.0219287,-0.0946753,-0.041944757,-0.06471477
1747679454.4129205,0.10805635,0.15509838,1.0219287,-0.0946753,-0.041944757,-0.06471477
1747679454.413457,0.10805635,0.15509838,1.0219287,-0.0946753,-0.041944757,-0.06471477
1747679454.4139905,0.10805635,0.15509838,1.0219287,-0.0946753,-0.041944757,-0.06471477
1747679454.4145112,0.10805635,0.15509838,1.0219287,-0.0946753,-0.041944757,-0.06471477
1747679454.4150324,0.10805635,0.15509838,1.0219287,-0.076565824,-0.08562057,-0.013582111
1747679454.415551,0.10805635,0.15509838,1.0219287,-0.076565824,-0.08562057,-0.013582111
1747679454.4160697,0.10805635,0.15509838,1.0219287,-0.076565824,-0.08562057,-0.013582111
1747679454.416588,0.10805635,0.15509838,1.0219287,-0.076565824,-0.08562057,-0.013582111
1747679454.4171062,0.10805635,0.15509838,1.0219287,-0.076565824,-0.08562057,-0.013582111
1747679454.4176242,0.10805635,0.15509838,1.0219287,-0.076565824,-0.08562057,-0.013582111
1747679454.4181426,0.10805635,0.15509838,1.0219287,-0.076565824,-0.08562057,-0.013582111
1747679454.4186606,0.10805635,0.15509838,1.0219287,-0.076565824,-0.08562057,-0.013582111
1747679454.4191906,0.10805635,0.15509838,1.0219287,-0.076565824,-0.08562057,-0.013582111
1747679454.419718,0.10805635,0.15509838,1.0219287,-0.076565824,-0.08562057,-0.013582111
1747679454.4202373,0.10805635,0.15509838,1.0219287,-0.076565824,-0.08562057,-0.013582111
1747679454.4207695,0.10805635,0.15509838,1.0219287,-0.076565824,-0.08562057,-0.013582111
1747679454.4213226,0.10805635,0.15509838,1.0219287,-0.076565824,-0.08562057,-0.013582111
1747679454.4218626,0.10805635,0.15509838,1.0219287,-0.076565824,-0.08562057,-0.013582111
1747679454.4224072,0.105127655,0.15412214,1.0209525,-0.06378266,-0.11331742,0.030093698
1747679454.4229581,0.105127655,0.15412214,1.0209525,-0.06378266,-0.11331742,0.030093698
1747679454.4235258,0.105127655,0.15412214,1.0209525,-0.06378266,-0.11331742,0.030093698
1747679454.4240882,0.105127655,0.15412214,1.0209525,-0.06378266,-0.11331742,0.030093698
1747679454.4246168,0.105127655,0.15412214,1.0209525,-0.06378266,-0.11331742,0.030093698
1747679454.4251356,0.105127655,0.15412214,1.0209525,-0.06378266,-0.11331742,0.030093698
1747679454.4256537,0.105127655,0.15412214,1.0209525,-0.06378266,-0.11331742,0.030093698
1747679454.426172,0.105127655,0.15412214,1.0209525,-0.06378266,-0.11331742,0.030093698
1747679454.4266906,0.105127655,0.15412214,1.0209525,-0.06378266,-0.11331742,0.030093698
1747679454.4272084,0.105127655,0.15412214,1.0209525,-0.06378266,-0.11331742,0.030093698
1747679454.427726,0.105127655,0.15412214,1.0209525,-0.06378266,-0.11331742,0.030093698
1747679454.4282436,0.105127655,0.15412214,1.0209525,-0.06378266,-0.11331742,0.030093698
1747679454.428761,0.105127655,0.15412214,1.0209525,-0.06378266,-0.11331742,0.030093698
1747679454.429279,0.105127655,0.15412214,1.0209525,-0.06378266,-0.11331742,0.030093698
1747679454.4297972,0.105127655,0.15412214,1.0209525,-0.06378266,-0.11331742,0.030093698
1747679454.4303155,0.105127655,0.15412214,1.0209525,-0.06378266,-0.11331742,0.030093698
1747679454.4308343,0.105127655,0.15412214,1.0209525,-0.06378266,-0.11331742,0.030093698
1747679454.431353,0.105127655,0.15412214,1.0209525,-0.050999496,-0.1431448,0.09294425
1747679454.431873,0.105127655,0.15412214,1.0209525,-0.050999496,-0.1431448,0.09294425
1747679454.4323933,0.11781863,0.15509838,1.0092378,-0.050999496,-0.1431448,0.09294425
1747679454.4329114,0.11781863,0.15509838,1.0092378,-0.050999496,-0.1431448,0.09294425
1747679454.4334295,0.11781863,0.15509838,1.0092378,-0.050999496,-0.1431448,0.09294425
1747679454.4339602,0.11781863,0.15509838,1.0092378,-0.050999496,-0.1431448,0.09294425
1747679454.4344876,0.11781863,0.15509838,1.0092378,-0.050999496,-0.1431448,0.09294425
1747679454.4350069,0.11781863,0.15509838,1.0092378,-0.050999496,-0.1431448,0.09294425
1747679454.4355252,0.11781863,0.15509838,1.0092378,-0.050999496,-0.1431448,0.09294425
1747679454.4360435,0.11781863,0.15509838,1.0092378,-0.050999496,-0.1431448,0.09294425
1747679454.4365838,0.11781863,0.15509838,1.0092378,-0.050999496,-0.1431448,0.09294425
1747679454.4371433,0.11781863,0.15509838,1.0092378,-0.050999496,-0.1431448,0.09294425
1747679454.4376822,0.11781863,0.15509838,1.0092378,-0.050999496,-0.1431448,0.09294425
1747679454.4382393,0.11781863,0.15509838,1.0092378,-0.050999496,-0.1431448,0.09294425
1747679454.4388096,0.11781863,0.15509838,1.0092378,-0.050999496,-0.1431448,0.09294425
1747679454.4393532,0.11781863,0.15509838,1.0092378,-0.050999496,-0.1431448,0.09294425
1747679454.439886,0.11781863,0.15509838,1.0092378,-0.050999496,-0.1431448,0.09294425
1747679454.4404411,0.11781863,0.15509838,1.0092378,-0.050999496,-0.1431448,0.09294425
1747679454.4409626,0.11781863,0.15509838,1.0092378,-0.050999496,-0.1431448,0.09294425
1747679454.441487,0.11781863,0.15509838,1.0092378,-0.06165213,-0.13355742,0.11744532
1747679454.442008,0.14564116,0.15997952,0.9945943,-0.06165213,-0.13355742,0.11744532
1747679454.442527,0.14564116,0.15997952,0.9945943,-0.06165213,-0.13355742,0.11744532
1747679454.4430454,0.14564116,0.15997952,0.9945943,-0.06165213,-0.13355742,0.11744532
1747679454.443563,0.14564116,0.15997952,0.9945943,-0.06165213,-0.13355742,0.11744532
1747679454.4440918,0.14564116,0.15997952,0.9945943,-0.06165213,-0.13355742,0.11744532
1747679454.4446218,0.14564116,0.15997952,0.9945943,-0.06165213,-0.13355742,0.11744532
1747679454.4451418,0.14564116,0.15997952,0.9945943,-0.06165213,-0.13355742,0.11744532
1747679454.4456604,0.14564116,0.15997952,0.9945943,-0.06165213,-0.13355742,0.11744532
1747679454.4461782,0.14564116,0.15997952,0.9945943,-0.06165213,-0.13355742,0.11744532
1747679454.4466965,0.14564116,0.15997952,0.9945943,-0.06165213,-0.13355742,0.11744532
1747679454.4472146,0.14564116,0.15997952,0.9945943,-0.06165213,-0.13355742,0.11744532
1747679454.4477324,0.14564116,0.15997952,0.9945943,-0.06165213,-0.13355742,0.11744532
1747679454.4482503,0.14564116,0.15997952,0.9945943,-0.06165213,-0.13355742,0.11744532
1747679454.4487686,0.14564116,0.15997952,0.9945943,-0.06165213,-0.13355742,0.11744532
1747679454.4492862,0.14564116,0.15997952,0.9945943,-0.06165213,-0.13355742,0.11744532
1747679454.449804,0.14564116,0.15997952,0.9945943,-0.06165213,-0.13355742,0.11744532
1747679454.450322,0.14564116,0.15997952,0.9945943,-0.06165213,-0.13355742,0.11744532
1747679454.4508765,0.14564116,0.15997952,0.9945943,-0.06165213,-0.13355742,0.11744532
1747679454.451397,0.14564116,0.15997952,0.9945943,-0.06165213,-0.13355742,0.11744532
1747679454.4519522,0.18224975,0.17022994,0.9906894,-0.06165213,-0.13355742,0.11744532
1747679454.4524965,0.18224975,0.17022994,0.9906894,-0.0946753,-0.103730045,0.121706374
1747679454.4530218,0.18224975,0.17022994,0.9906894,-0.0946753,-0.103730045,0.121706374
1747679454.4535458,0.18224975,0.17022994,0.9906894,-0.0946753,-0.103730045,0.121706374
1747679454.4540803,0.18224975,0.17022994,0.9906894,-0.0946753,-0.103730045,0.121706374
1747679454.4546435,0.18224975,0.17022994,0.9906894,-0.0946753,-0.103730045,0.121706374
1747679454.4552026,0.18224975,0.17022994,0.9906894,-0.0946753,-0.103730045,0.121706374
1747679454.455738,0.18224975,0.17022994,0.9906894,-0.0946753,-0.103730045,0.121706374
1747679454.4562604,0.18224975,0.17022994,0.9906894,-0.0946753,-0.103730045,0.121706374
1747679454.4567814,0.18224975,0.17022994,0.9906894,-0.0946753,-0.103730045,0.121706374
1747679454.4573054,0.18224975,0.17022994,0.9906894,-0.0946753,-0.103730045,0.121706374
1747679454.4578297,0.18224975,0.17022994,0.9906894,-0.0946753,-0.103730045,0.121706374
1747679454.458351,0.18224975,0.17022994,0.9906894,-0.0946753,-0.103730045,0.121706374
1747679454.4588716,0.18224975,0.17022994,0.9906894,-0.0946753,-0.103730045,0.121706374
1747679454.459392,0.18224975,0.17022994,0.9906894,-0.0946753,-0.103730045,0.121706374
1747679454.4599128,0.18224975,0.17022994,0.9906894,-0.0946753,-0.103730045,0.121706374
1747679454.4604342,0.18224975,0.17022994,0.9906894,-0.0946753,-0.103730045,0.121706374
1747679454.4609554,0.21690588,0.1795041,0.9945943,-0.0946753,-0.103730045,0.121706374
1747679454.461479,0.21690588,0.1795041,0.9945943,-0.15006901,-0.047271073,0.10253163
1747679454.462,0.21690588,0.1795041,0.9945943,-0.15006901,-0.047271073,0.10253163
1747679454.4625206,0.21690588,0.1795041,0.9945943,-0.15006901,-0.047271073,0.10253163
1747679454.4630418,0.21690588,0.1795041,0.9945943,-0.15006901,-0.047271073,0.10253163
1747679454.4635625,0.21690588,0.1795041,0.9945943,-0.15006901,-0.047271073,0.10253163
1747679454.46409,0.21690588,0.1795041,0.9945943,-0.15006901,-0.047271073,0.10253163
1747679454.464622,0.21690588,0.1795041,0.9945943,-0.15006901,-0.047271073,0.10253163
1747679454.4651444,0.21690588,0.1795041,0.9945943,-0.15006901,-0.047271073,0.10253163
1747679454.465665,0.21690588,0.1795041,0.9945943,-0.15006901,-0.047271073,0.10253163
1747679454.4661856,0.21690588,0.1795041,0.9945943,-0.15006901,-0.047271073,0.10253163
1747679454.4667084,0.21690588,0.1795041,0.9945943,-0.15006901,-0.047271073,0.10253163
1747679454.467332,0.21690588,0.1795041,0.9945943,-0.15006901,-0.047271073,0.10253163
1747679454.4678905,0.21690588,0.1795041,0.9945943,-0.15006901,-0.047271073,0.10253163
1747679454.4684272,0.21690588,0.1795041,0.9945943,-0.15006901,-0.047271073,0.10253163
1747679454.4689484,0.21690588,0.1795041,0.9945943,-0.15006901,-0.047271073,0.10253163
1747679454.4694817,0.21690588,0.1795041,0.9945943,-0.15006901,-0.047271073,0.10253163
1747679454.470034,0.21690588,0.1795041,0.9945943,-0.15006901,-0.047271073,0.10253163
1747679454.470592,0.21690588,0.1795041,0.9945943,-0.15006901,-0.047271073,0.10253163
1747679454.47115,0.23887102,0.18389714,1.0204643,-0.18735324,0.0038615807,0.07376951
1747679454.4717116,0.23887102,0.18389714,1.0204643,-0.18735324,0.0038615807,0.07376951
1747679454.4722342,0.23887102,0.18389714,1.0204643,-0.18735324,0.0038615807,0.07376951
1747679454.472753,0.23887102,0.18389714,1.0204643,-0.18735324,0.0038615807,0.07376951
1747679454.4732718,0.23887102,0.18389714,1.0204643,-0.18735324,0.0038615807,0.07376951
1747679454.4737902,0.23887102,0.18389714,1.0204643,-0.18735324,0.0038615807,0.07376951
1747679454.4743192,0.23887102,0.18389714,1.0204643,-0.18735324,0.0038615807,0.07376951
1747679454.4748487,0.23887102,0.18389714,1.0204643,-0.18735324,0.0038615807,0.07376951
1747679454.4753687,0.23887102,0.18389714,1.0204643,-0.18735324,0.0038615807,0.07376951
1747679454.4758868,0.23887102,0.18389714,1.0204643,-0.18735324,0.0038615807,0.07376951
1747679454.4764056,0.23887102,0.18389714,1.0204643,-0.18735324,0.0038615807,0.07376951
1747679454.4769263,0.23887102,0.18389714,1.0204643,-0.18735324,0.0038615807,0.07376951
1747679454.4774446,0.23887102,0.18389714,1.0204643,-0.18735324,0.0038615807,0.07376951
1747679454.4779625,0.23887102,0.18389714,1.0204643,-0.18735324,0.0038615807,0.07376951
1747679454.4784803,0.23887102,0.18389714,1.0204643,-0.18735324,0.0038615807,0.07376951
1747679454.4789984,0.23887102,0.18389714,1.0204643,-0.18735324,0.0038615807,0.07376951
1747679454.4795167,0.23887102,0.18389714,1.0204643,-0.18735324,0.0038615807,0.07376951
1747679454.4800348,0.23887102,0.18389714,1.0204643,-0.18735324,0.0038615807,0.07376951
1747679454.4805527,0.23887102,0.18389714,1.0204643,-0.18735324,0.0038615807,0.07376951
1747679454.4810708,0.23887102,0.18389714,1.0204643,-0.18735324,0.0038615807,0.07376951
1747679454.4815884,0.23887102,0.18389714,1.0204643,-0.18735324,0.0038615807,0.07376951
1747679454.4821074,0.23887102,0.18389714,1.0204643,-0.20013641,0.029427908,0.054594763
1747679454.4826527,0.2447284,0.18731394,1.0424296,-0.20013641,0.029427908,0.054594763
1747679454.4832022,0.2447284,0.18731394,1.0424296,-0.20013641,0.029427908,0.054594763
1747679454.4837506,0.2447284,0.18731394,1.0424296,-0.20013641,0.029427908,0.054594763
1747679454.4842932,0.2447284,0.18731394,1.0424296,-0.20013641,0.029427908,0.054594763
1747679454.4848804,0.2447284,0.18731394,1.0424296,-0.20013641,0.029427908,0.054594763
1747679454.4854286,0.2447284,0.18731394,1.0424296,-0.20013641,0.029427908,0.054594763
1747679454.485992,0.2447284,0.18731394,1.0424296,-0.20013641,0.029427908,0.054594763
1747679454.4865253,0.2447284,0.18731394,1.0424296,-0.20013641,0.029427908,0.054594763
1747679454.4870446,0.2447284,0.18731394,1.0424296,-0.20013641,0.029427908,0.054594763
1747679454.4875634,0.2447284,0.18731394,1.0424296,-0.20013641,0.029427908,0.054594763
1747679454.4880815,0.2447284,0.18731394,1.0424296,-0.20013641,0.029427908,0.054594763
1747679454.4885995,0.2447284,0.18731394,1.0424296,-0.20013641,0.029427908,0.054594763
1747679454.489118,0.2447284,0.18731394,1.0424296,-0.20013641,0.029427908,0.054594763
1747679454.4896367,0.2447284,0.18731394,1.0424296,-0.20013641,0.029427908,0.054594763
1747679454.4901545,0.2447284,0.18731394,1.0424296,-0.20013641,0.029427908,0.054594763
1747679454.4906723,0.2447284,0.18731394,1.0424296,-0.20013641,0.029427908,0.054594763
1747679454.4911902,0.2447284,0.18731394,1.0424296,-0.20013641,0.029427908,0.054594763
1747679454.4917083,0.2447284,0.18731394,1.0424296,-0.20013641,0.029427908,0.054594763
1747679454.4922264,0.2447284,0.18731394,1.0424296,-0.20013641,0.029427908,0.054594763
1747679454.4927447,0.2447284,0.18731394,1.0424296,-0.20013641,0.029427908,0.054594763
1747679454.4932628,0.2447284,0.18731394,1.0424296,-0.20013641,0.029427908,0.054594763
1747679454.4937944,0.2447284,0.18731394,1.0424296,-0.20013641,0.029427908,0.054594763
1747679454.4943283,0.2447284,0.18731394,1.0424296,-0.20013641,0.029427908,0.054594763
1747679454.494849,0.24424028,0.19756435,1.0902647,-0.19907114,0.037950017,0.0087884255
1747679454.4953682,0.24424028,0.19756435,1.0902647,-0.19907114,0.037950017,0.0087884255
1747679454.4958868,0.24424028,0.19756435,1.0902647,-0.19907114,0.037950017,0.0087884255
1747679454.496405,0.24424028,0.19756435,1.0902647,-0.19907114,0.037950017,0.0087884255
1747679454.496923,0.24424028,0.19756435,1.0902647,-0.19907114,0.037950017,0.0087884255
1747679454.497441,0.24424028,0.19756435,1.0902647,-0.19907114,0.037950017,0.0087884255
1747679454.4980285,0.24424028,0.19756435,1.0902647,-0.19907114,0.037950017,0.0087884255
1747679454.49859,0.24424028,0.19756435,1.0902647,-0.19907114,0.037950017,0.0087884255
1747679454.4991286,0.24424028,0.19756435,1.0902647,-0.19907114,0.037950017,0.0087884255
1747679454.4996643,0.24424028,0.19756435,1.0902647,-0.19907114,0.037950017,0.0087884255
1747679454.5001972,0.24424028,0.19756435,1.0902647,-0.19907114,0.037950017,0.0087884255
1747679454.5007322,0.24424028,0.19756435,1.0902647,-0.19907114,0.037950017,0.0087884255
1747679454.501298,0.24424028,0.19756435,1.0902647,-0.19907114,0.037950017,0.0087884255
1747679454.5018423,0.24424028,0.19756435,1.0902647,-0.19907114,0.037950017,0.0087884255
1747679454.502375,0.24424028,0.19756435,1.0902647,-0.19907114,0.037950017,0.0087884255
1747679454.5028949,0.24424028,0.19756435,1.0902647,-0.19907114,0.037950017,0.0087884255
1747679454.5034134,0.24424028,0.19756435,1.0902647,-0.19907114,0.037950017,0.0087884255
1747679454.5039456,0.24424028,0.19756435,1.0902647,-0.19907114,0.037950017,0.0087884255
1747679454.5044842,0.24424028,0.19756435,1.0902647,-0.19907114,0.037950017,0.0087884255
1747679454.5050068,0.24424028,0.19756435,1.0902647,-0.19907114,0.037950017,0.0087884255
1747679454.5055263,0.23496611,0.20732662,1.1522553,-0.19907114,0.037950017,0.0087884255
1747679454.506045,0.23496611,0.20732662,1.1522553,-0.19907114,0.037950017,0.0087884255
1747679454.5065641,0.23496611,0.20732662,1.1522553,-0.19907114,0.037950017,0.0087884255
1747679454.5070825,0.23496611,0.20732662,1.1522553,-0.19907114,0.037950017,0.0087884255
1747679454.5076015,0.23496611,0.20732662,1.1522553,-0.19907114,0.037950017,0.0087884255
1747679454.5081215,0.23496611,0.20732662,1.1522553,-0.19907114,0.037950017,0.0087884255
1747679454.5086417,0.23496611,0.20732662,1.1522553,-0.19907114,0.037950017,0.0087884255
1747679454.50916,0.23496611,0.20732662,1.1522553,-0.19907114,0.037950017,0.0087884255
1747679454.5096781,0.23496611,0.20732662,1.1522553,-0.19907114,0.037950017,0.0087884255
1747679454.510196,0.23496611,0.20732662,1.1522553,-0.19907114,0.037950017,0.0087884255
1747679454.510714,0.23496611,0.20732662,1.1522553,-0.19907114,0.037950017,0.0087884255
1747679454.511232,0.23496611,0.20732662,1.1522553,-0.19907114,0.037950017,0.0087884255
1747679454.5117502,0.23496611,0.20732662,1.1522553,-0.19907114,0.037950017,0.0087884255
1747679454.5122678,0.23496611,0.20732662,1.1522553,-0.19907114,0.037950017,0.0087884255
1747679454.512786,0.23496611,0.20732662,1.1522553,-0.19907114,0.037950017,0.0087884255
1747679454.5133429,0.23496611,0.20732662,1.1522553,-0.19907114,0.037950017,0.0087884255
1747679454.5138867,0.23496611,0.20732662,1.1522553,-0.19907114,0.037950017,0.0087884255
1747679454.5144217,0.23496611,0.20732662,1.1522553,-0.11171953,-0.05792371,-0.04447476
1747679454.5149558,0.22569194,0.21855327,1.2571999,-0.11171953,-0.05792371,-0.04447476
1747679454.515477,0.22569194,0.21855327,1.2571999,-0.11171953,-0.05792371,-0.04447476
1747679454.5159957,0.22569194,0.21855327,1.2571999,-0.11171953,-0.05792371,-0.04447476
1747679454.5165415,0.22569194,0.21855327,1.2571999,-0.11171953,-0.05792371,-0.04447476
1747679454.5170844,0.22569194,0.21855327,1.2571999,-0.11171953,-0.05792371,-0.04447476
1747679454.517648,0.22569194,0.21855327,1.2571999,-0.11171953,-0.05792371,-0.04447476
1747679454.518181,0.22569194,0.21855327,1.2571999,-0.11171953,-0.05792371,-0.04447476
1747679454.518701,0.22569194,0.21855327,1.2571999,-0.11171953,-0.05792371,-0.04447476
1747679454.5192196,0.22569194,0.21855327,1.2571999,-0.11171953,-0.05792371,-0.04447476
1747679454.519738,0.22569194,0.21855327,1.2571999,-0.11171953,-0.05792371,-0.04447476
1747679454.520257,0.22569194,0.21855327,1.2571999,-0.11171953,-0.05792371,-0.04447476
1747679454.520778,0.22569194,0.21855327,1.2571999,-0.11171953,-0.05792371,-0.04447476
1747679454.5212965,0.22569194,0.21855327,1.2571999,-0.11171953,-0.05792371,-0.04447476
1747679454.5218148,0.22569194,0.21855327,1.2571999,-0.11171953,-0.05792371,-0.04447476
1747679454.5223327,0.22569194,0.21855327,1.2571999,-0.11171953,-0.05792371,-0.04447476
1747679454.5228891,0.21544152,0.22782744,1.3084519,-0.03715107,-0.12823111,-0.05619266
1747679454.5234082,0.21544152,0.22782744,1.3084519,-0.03715107,-0.12823111,-0.05619266
1747679454.5239365,0.21544152,0.22782744,1.3084519,-0.03715107,-0.12823111,-0.05619266
1747679454.5244706,0.21544152,0.22782744,1.3084519,-0.03715107,-0.12823111,-0.05619266
1747679454.5249908,0.21544152,0.22782744,1.3084519,-0.03715107,-0.12823111,-0.05619266
1747679454.5255086,0.21544152,0.22782744,1.3084519,-0.03715107,-0.12823111,-0.05619266
1747679454.526027,0.21544152,0.22782744,1.3084519,-0.03715107,-0.12823111,-0.05619266
1747679454.5265446,0.21544152,0.22782744,1.3084519,-0.03715107,-0.12823111,-0.05619266
1747679454.5270634,0.21544152,0.22782744,1.3084519,-0.03715107,-0.12823111,-0.05619266
1747679454.5275817,0.21544152,0.22782744,1.3084519,-0.03715107,-0.12823111,-0.05619266
1747679454.5280998,0.21544152,0.22782744,1.3084519,-0.03715107,-0.12823111,-0.05619266
1747679454.5286453,0.21544152,0.22782744,1.3084519,-0.03715107,-0.12823111,-0.05619266
1747679454.5292053,0.21544152,0.22782744,1.3084519,-0.03715107,-0.12823111,-0.05619266
1747679454.5297534,0.21544152,0.22782744,1.3084519,-0.03715107,-0.12823111,-0.05619266
1747679454.5302937,0.21544152,0.22782744,1.3084519,-0.03715107,-0.12823111,-0.05619266
1747679454.5308268,0.21544152,0.22782744,1.3084519,-0.03715107,-0.12823111,-0.05619266
1747679454.5313463,0.21544152,0.22782744,1.3084519,-0.03715107,-0.12823111,-0.05619266
1747679454.5318656,0.21641776,0.2463758,1.3689781,0.050200548,-0.20066904,-0.059388448
1747679454.5324147,0.21641776,0.2463758,1.3689781,0.050200548,-0.20066904,-0.059388448
1747679454.5329688,0.21641776,0.2463758,1.3689781,0.050200548,-0.20066904,-0.059388448
1747679454.533525,0.21641776,0.2463758,1.3689781,0.050200548,-0.20066904,-0.059388448
1747679454.5340679,0.21641776,0.2463758,1.3689781,0.050200548,-0.20066904,-0.059388448
1747679454.5346258,0.21641776,0.2463758,1.3689781,0.050200548,-0.20066904,-0.059388448
1747679454.5351498,0.21641776,0.2463758,1.3689781,0.050200548,-0.20066904,-0.059388448
1747679454.5356688,0.21641776,0.2463758,1.3689781,0.050200548,-0.20066904,-0.059388448
1747679454.5361874,0.21641776,0.2463758,1.3689781,0.050200548,-0.20066904,-0.059388448
1747679454.5367055,0.21641776,0.2463758,1.3689781,0.050200548,-0.20066904,-0.059388448
1747679454.537224,0.21641776,0.2463758,1.3689781,0.050200548,-0.20066904,-0.059388448
1747679454.537742,0.21641776,0.2463758,1.3689781,0.050200548,-0.20066904,-0.059388448
1747679454.5382602,0.21641776,0.2463758,1.3689781,0.050200548,-0.20066904,-0.059388448
1747679454.5387783,0.21641776,0.2463758,1.3689781,0.050200548,-0.20066904,-0.059388448
1747679454.539296,0.21641776,0.2463758,1.3689781,0.050200548,-0.20066904,-0.059388448
1747679454.5398147,0.21641776,0.2463758,1.3689781,0.050200548,-0.20066904,-0.059388448
1747679454.5403411,0.21641776,0.2463758,1.3689781,0.1396827,-0.20279956,-0.06791056
1747679454.5408618,0.21641776,0.2463758,1.3689781,0.1396827,-0.20279956,-0.06791056
1747679454.5413811,0.21641776,0.2463758,1.3689781,0.1396827,-0.20279956,-0.06791056
1747679454.5418997,0.23643047,0.27517456,1.4295043,0.1396827,-0.20279956,-0.06791056
1747679454.5424182,0.23643047,0.27517456,1.4295043,0.1396827,-0.20279956,-0.06791056
1747679454.5429363,0.23643047,0.27517456,1.4295043,0.1396827,-0.20279956,-0.06791056
1747679454.543478,0.23643047,0.27517456,1.4295043,0.1396827,-0.20279956,-0.06791056
1747679454.5440414,0.23643047,0.27517456,1.4295043,0.1396827,-0.20279956,-0.06791056
1747679454.54461,0.23643047,0.27517456,1.4295043,0.1396827,-0.20279956,-0.06791056
1747679454.545156,0.23643047,0.27517456,1.4295043,0.1396827,-0.20279956,-0.06791056
1747679454.5456831,0.23643047,0.27517456,1.4295043,0.1396827,-0.20279956,-0.06791056
1747679454.5462027,0.23643047,0.27517456,1.4295043,0.1396827,-0.20279956,-0.06791056
1747679454.546721,0.23643047,0.27517456,1.4295043,0.1396827,-0.20279956,-0.06791056
1747679454.5472512,0.23643047,0.27517456,1.4295043,0.1396827,-0.20279956,-0.06791056
1747679454.5478065,0.23643047,0.27517456,1.4295043,0.1396827,-0.20279956,-0.06791056
1747679454.5483658,0.23643047,0.27517456,1.4295043,0.1396827,-0.20279956,-0.06791056
1747679454.548925,0.23643047,0.27517456,1.4295043,0.1396827,-0.20279956,-0.06791056
1747679454.5494661,0.23643047,0.27517456,1.4295043,0.1396827,-0.20279956,-0.06791056
1747679454.5499988,0.23643047,0.27517456,1.4295043,0.1396827,-0.20279956,-0.06791056
1747679454.5505185,0.23643047,0.27517456,1.4295043,0.1396827,-0.20279956,-0.06791056
1747679454.5510404,0.23643047,0.27517456,1.4295043,0.1396827,-0.20279956,-0.06791056
1747679454.5515594,0.23643047,0.27517456,1.4295043,0.1396827,-0.20279956,-0.06791056
1747679454.5520842,0.26278865,0.28249624,1.4578149,0.24727432,-0.11331742,-0.10199899
1747679454.5526032,0.26278865,0.28249624,1.4578149,0.24727432,-0.11331742,-0.10199899
1747679454.553121,0.26278865,0.28249624,1.4578149,0.24727432,-0.11331742,-0.10199899
1747679454.5536475,0.26278865,0.28249624,1.4578149,0.24727432,-0.11331742,-0.10199899
1747679454.554178,0.26278865,0.28249624,1.4578149,0.24727432,-0.11331742,-0.10199899
1747679454.5547004,0.26278865,0.28249624,1.4578149,0.24727432,-0.11331742,-0.10199899
1747679454.5552216,0.26278865,0.28249624,1.4578149,0.24727432,-0.11331742,-0.10199899
1747679454.5557425,0.26278865,0.28249624,1.4578149,0.24727432,-0.11331742,-0.10199899
1747679454.5562634,0.26278865,0.28249624,1.4578149,0.24727432,-0.11331742,-0.10199899
1747679454.5567842,0.26278865,0.28249624,1.4578149,0.24727432,-0.11331742,-0.10199899
1747679454.5573046,0.26278865,0.28249624,1.4578149,0.24727432,-0.11331742,-0.10199899
1747679454.5578256,0.26278865,0.28249624,1.4578149,0.24727432,-0.11331742,-0.10199899
1747679454.5583465,0.26278865,0.28249624,1.4578149,0.24727432,-0.11331742,-0.10199899
1747679454.5588846,0.26278865,0.28249624,1.4578149,0.24727432,-0.11331742,-0.10199899
1747679454.559447,0.26278865,0.28249624,1.4578149,0.24727432,-0.11331742,-0.10199899
1747679454.5599945,0.26278865,0.28249624,1.4578149,0.24727432,-0.11331742,-0.10199899
1747679454.5605211,0.26278865,0.28249624,1.4578149,0.24727432,-0.11331742,-0.10199899
1747679454.561042,0.26278865,0.28249624,1.4578149,0.24727432,-0.11331742,-0.10199899
1747679454.5615637,0.26278865,0.28249624,1.4578149,0.24727432,-0.11331742,-0.10199899
1747679454.5620847,0.26278865,0.28249624,1.4578149,0.24727432,-0.11331742,-0.10199899
1747679454.5626054,0.26278865,0.28249624,1.4578149,0.24727432,-0.11331742,-0.10199899
1747679454.563135,0.26278865,0.28249624,1.4578149,0.3442133,0.0049268445,-0.13715269
1747679454.5637429,0.26278865,0.28249624,1.4578149,0.3442133,0.0049268445,-0.13715269
1747679454.5643096,0.26766977,0.28835365,1.483685,0.3442133,0.0049268445,-0.13715269
1747679454.5648575,0.26766977,0.28835365,1.483685,0.3442133,0.0049268445,-0.13715269
1747679454.5654318,0.26766977,0.28835365,1.483685,0.3442133,0.0049268445,-0.13715269
1747679454.5659542,0.26766977,0.28835365,1.483685,0.3442133,0.0049268445,-0.13715269
1747679454.5664756,0.26766977,0.28835365,1.483685,0.3442133,0.0049268445,-0.13715269
1747679454.5669966,0.26766977,0.28835365,1.483685,0.3442133,0.0049268445,-0.13715269
1747679454.5675175,0.26766977,0.28835365,1.483685,0.3442133,0.0049268445,-0.13715269
1747679454.5680382,0.26766977,0.28835365,1.483685,0.3442133,0.0049268445,-0.13715269
1747679454.5685613,0.26766977,0.28835365,1.483685,0.3442133,0.0049268445,-0.13715269
1747679454.5690699,0.26766977,0.28835365,1.483685,0.3442133,0.0049268445,-0.13715269
1747679454.5695884,0.26766977,0.28835365,1.483685,0.3442133,0.0049268445,-0.13715269
1747679454.570107,0.26766977,0.28835365,1.483685,0.3442133,0.0049268445,-0.13715269
1747679454.570625,0.26766977,0.28835365,1.483685,0.3442133,0.0049268445,-0.13715269
1747679454.571143,0.26766977,0.28835365,1.483685,0.3442133,0.0049268445,-0.13715269
1747679454.5716612,0.26766977,0.28835365,1.483685,0.3442133,0.0049268445,-0.13715269
1747679454.5721796,0.26766977,0.28835365,1.483685,0.3442133,0.0049268445,-0.13715269
1747679454.5726998,0.26766977,0.28835365,1.483685,0.3442133,0.0049268445,-0.13715269
1747679454.573221,0.26766977,0.28835365,1.483685,0.42623863,0.099735305,-0.16804534
1747679454.5737395,0.26766977,0.28835365,1.483685,0.42623863,0.099735305,-0.16804534
1747679454.574287,0.26718166,0.2976278,1.5041858,0.42623863,0.099735305,-0.16804534
1747679454.574837,0.26718166,0.2976278,1.5041858,0.42623863,0.099735305,-0.16804534
1747679454.5753615,0.26718166,0.2976278,1.5041858,0.42623863,0.099735305,-0.16804534
1747679454.5758803,0.26718166,0.2976278,1.5041858,0.42623863,0.099735305,-0.16804534
1747679454.5763986,0.26718166,0.2976278,1.5041858,0.42623863,0.099735305,-0.16804534
1747679454.576917,0.26718166,0.2976278,1.5041858,0.42623863,0.099735305,-0.16804534
1747679454.5774355,0.26718166,0.2976278,1.5041858,0.42623863,0.099735305,-0.16804534
1747679454.5779538,0.26718166,0.2976278,1.5041858,0.42623863,0.099735305,-0.16804534
1747679454.5785036,0.26718166,0.2976278,1.5041858,0.42623863,0.099735305,-0.16804534
1747679454.5790534,0.26718166,0.2976278,1.5041858,0.42623863,0.099735305,-0.16804534
1747679454.5796173,0.26718166,0.2976278,1.5041858,0.42623863,0.099735305,-0.16804534
1747679454.580151,0.26718166,0.2976278,1.5041858,0.42623863,0.099735305,-0.16804534
1747679454.5806713,0.26718166,0.2976278,1.5041858,0.42623863,0.099735305,-0.16804534
1747679454.5811923,0.26718166,0.2976278,1.5041858,0.42623863,0.099735305,-0.16804534
1747679454.581713,0.26718166,0.2976278,1.5041858,0.42623863,0.099735305,-0.16804534
1747679454.5822318,0.26718166,0.2976278,1.5041858,0.42623863,0.099735305,-0.16804534
1747679454.5827553,0.25693128,0.3078782,1.5442113,0.42623863,0.099735305,-0.16804534
1747679454.5832763,0.25693128,0.3078782,1.5442113,0.5849629,0.17963009,-0.20639484
1747679454.583803,0.25693128,0.3078782,1.5442113,0.5849629,0.17963009,-0.20639484
1747679454.5843382,0.25693128,0.3078782,1.5442113,0.5849629,0.17963009,-0.20639484
1747679454.58486,0.25693128,0.3078782,1.5442113,0.5849629,0.17963009,-0.20639484
1747679454.5853786,0.25693128,0.3078782,1.5442113,0.5849629,0.17963009,-0.20639484
1747679454.5858965,0.25693128,0.3078782,1.5442113,0.5849629,0.17963009,-0.20639484
1747679454.5864146,0.25693128,0.3078782,1.5442113,0.5849629,0.17963009,-0.20639484
1747679454.5869327,0.25693128,0.3078782,1.5442113,0.5849629,0.17963009,-0.20639484
1747679454.5874507,0.25693128,0.3078782,1.5442113,0.5849629,0.17963009,-0.20639484
1747679454.5879688,0.25693128,0.3078782,1.5442113,0.5849629,0.17963009,-0.20639484
1747679454.588487,0.25693128,0.3078782,1.5442113,0.5849629,0.17963009,-0.20639484
1747679454.5890048,0.25693128,0.3078782,1.5442113,0.5849629,0.17963009,-0.20639484
1747679454.5895452,0.25693128,0.3078782,1.5442113,0.5849629,0.17963009,-0.20639484
1747679454.5900943,0.25693128,0.3078782,1.5442113,0.5849629,0.17963009,-0.20639484
1747679454.5906303,0.25693128,0.3078782,1.5442113,0.5849629,0.17963009,-0.20639484
1747679454.5911639,0.23935914,0.3176405,1.569105,0.72131664,0.17217323,-0.2245043
1747679454.591689,0.23935914,0.3176405,1.569105,0.72131664,0.17217323,-0.2245043
1747679454.5922081,0.23935914,0.3176405,1.569105,0.72131664,0.17217323,-0.2245043
1747679454.592727,0.23935914,0.3176405,1.569105,0.72131664,0.17217323,-0.2245043
1747679454.5932455,0.23935914,0.3176405,1.569105,0.72131664,0.17217323,-0.2245043
1747679454.5937636,0.23935914,0.3176405,1.569105,0.72131664,0.17217323,-0.2245043
1747679454.5943038,0.23935914,0.3176405,1.569105,0.72131664,0.17217323,-0.2245043
1747679454.5948725,0.23935914,0.3176405,1.569105,0.72131664,0.17217323,-0.2245043
1747679454.5954216,0.23935914,0.3176405,1.569105,0.72131664,0.17217323,-0.2245043
1747679454.5959544,0.23935914,0.3176405,1.569105,0.72131664,0.17217323,-0.2245043
1747679454.5964744,0.23935914,0.3176405,1.569105,0.72131664,0.17217323,-0.2245043
1747679454.596993,0.23935914,0.3176405,1.569105,0.72131664,0.17217323,-0.2245043
1747679454.5975115,0.23935914,0.3176405,1.569105,0.72131664,0.17217323,-0.2245043
1747679454.59803,0.23935914,0.3176405,1.569105,0.72131664,0.17217323,-0.2245043
1747679454.5985484,0.23935914,0.3176405,1.569105,0.72131664,0.17217323,-0.2245043
1747679454.5990663,0.23935914,0.3176405,1.569105,0.72131664,0.17217323,-0.2245043
1747679454.5995846,0.23935914,0.3176405,1.569105,0.72131664,0.17217323,-0.2245043
1747679454.6001027,0.23935914,0.3176405,1.569105,0.72131664,0.17217323,-0.2245043
1747679454.6006205,0.23935914,0.3176405,1.569105,0.72131664,0.17217323,-0.2245043
1747679454.6011386,0.23935914,0.3176405,1.569105,0.72131664,0.17217323,-0.2245043
1747679454.6016567,0.23935914,0.3176405,1.569105,0.72131664,0.17217323,-0.2245043
1747679454.6021752,0.23935914,0.3176405,1.569105,0.72131664,0.17217323,-0.2245043
1747679454.6026938,0.22618006,0.33570072,1.5671526,0.90454197,0.08908267,-0.23835275
1747679454.6032128,0.22618006,0.33570072,1.5671526,0.90454197,0.08908267,-0.23835275
1747679454.603741,0.22618006,0.33570072,1.5671526,0.90454197,0.08908267,-0.23835275
1747679454.6042755,0.22618006,0.33570072,1.5671526,0.90454197,0.08908267,-0.23835275
1747679454.6048307,0.22618006,0.33570072,1.5671526,0.90454197,0.08908267,-0.23835275
1747679454.6053815,0.22618006,0.33570072,1.5671526,0.90454197,0.08908267,-0.23835275
1747679454.6059072,0.22618006,0.33570072,1.5671526,0.90454197,0.08908267,-0.23835275
1747679454.6064267,0.22618006,0.33570072,1.5671526,0.90454197,0.08908267,-0.23835275
1747679454.6069448,0.22618006,0.33570072,1.5671526,0.90454197,0.08908267,-0.23835275
1747679454.6074626,0.22618006,0.33570072,1.5671526,0.90454197,0.08908267,-0.23835275
1747679454.6079803,0.22618006,0.33570072,1.5671526,0.90454197,0.08908267,-0.23835275
1747679454.6084979,0.22618006,0.33570072,1.5671526,0.90454197,0.08908267,-0.23835275
1747679454.6090155,0.22618006,0.33570072,1.5671526,0.90454197,0.08908267,-0.23835275
1747679454.609533,0.22618006,0.33570072,1.5671526,0.90454197,0.08908267,-0.23835275
1747679454.610063,0.22618006,0.33570072,1.5671526,0.90454197,0.08908267,-0.23835275
1747679454.6106253,0.22618006,0.33570072,1.5671526,0.90454197,0.08908267,-0.23835275
1747679454.6111708,0.22618006,0.33570072,1.5671526,0.90454197,0.08908267,-0.23835275
1747679454.6117213,0.22618006,0.33570072,1.5671526,0.90454197,0.08908267,-0.23835275
1747679454.6122408,0.22618006,0.33570072,1.5671526,0.90454197,0.08908267,-0.23835275
1747679454.6127596,0.22618006,0.33570072,1.5671526,0.90454197,0.08908267,-0.23835275
1747679454.6132777,0.22618006,0.33570072,1.5671526,0.90454197,0.08908267,-0.23835275
1747679454.6138053,0.22618006,0.33570072,1.5671526,1.0749842,0.011318427,-0.25539696
1747679454.6143348,0.22618006,0.33570072,1.5671526,1.0749842,0.011318427,-0.25539696
1747679454.614857,0.23350178,0.35913023,1.5627596,1.0749842,0.011318427,-0.25539696
1747679454.615375,0.23350178,0.35913023,1.5627596,1.0749842,0.011318427,-0.25539696
1747679454.615893,0.23350178,0.35913023,1.5627596,1.0749842,0.011318427,-0.25539696
1747679454.616411,0.23350178,0.35913023,1.5627596,1.0749842,0.011318427,-0.25539696
1747679454.6169288,0.23350178,0.35913023,1.5627596,1.0749842,0.011318427,-0.25539696
1747679454.617447,0.23350178,0.35913023,1.5627596,1.0749842,0.011318427,-0.25539696
1747679454.617965,0.23350178,0.35913023,1.5627596,1.0749842,0.011318427,-0.25539696
1747679454.6184835,0.23350178,0.35913023,1.5627596,1.0749842,0.011318427,-0.25539696
1747679454.6190014,0.23350178,0.35913023,1.5627596,1.0749842,0.011318427,-0.25539696
1747679454.6195195,0.23350178,0.35913023,1.5627596,1.0749842,0.011318427,-0.25539696
1747679454.620057,0.23350178,0.35913023,1.5627596,1.0749842,0.011318427,-0.25539696
1747679454.620646,0.23350178,0.35913023,1.5627596,1.0749842,0.011318427,-0.25539696
1747679454.6211958,0.23350178,0.35913023,1.5627596,1.0749842,0.011318427,-0.25539696
1747679454.6217396,0.23350178,0.35913023,1.5627596,1.0749842,0.011318427,-0.25539696
1747679454.622273,0.23350178,0.35913023,1.5627596,1.0749842,0.011318427,-0.25539696
1747679454.6227925,0.23350178,0.35913023,1.5627596,1.0749842,0.011318427,-0.25539696
1747679454.6233106,0.23350178,0.35913023,1.5627596,1.0749842,0.011318427,-0.25539696
1747679454.6238434,0.23350178,0.35913023,1.5627596,1.0749842,0.011318427,-0.25539696
1747679454.6243804,0.23350178,0.35913023,1.5627596,1.0749842,0.011318427,-0.25539696
1747679454.6249,0.23350178,0.35913023,1.5627596,1.0749842,0.011318427,-0.25539696
1747679454.625418,0.23350178,0.35913023,1.5627596,1.0749842,0.011318427,-0.25539696
1747679454.625966,0.268646,0.36645198,1.5534854,1.0749842,0.011318427,-0.25539696
1747679454.6265192,0.268646,0.36645198,1.5534854,1.0749842,0.011318427,-0.25539696
1747679454.627083,0.268646,0.36645198,1.5534854,1.2283821,-0.021704746,-0.27989802
1747679454.627653,0.268646,0.36645198,1.5534854,1.2283821,-0.021704746,-0.27989802
1747679454.628176,0.268646,0.36645198,1.5534854,1.2283821,-0.021704746,-0.27989802
1747679454.628695,0.268646,0.36645198,1.5534854,1.2283821,-0.021704746,-0.27989802
1747679454.6292133,0.268646,0.36645198,1.5534854,1.2283821,-0.021704746,-0.27989802
1747679454.6297321,0.268646,0.36645198,1.5534854,1.2283821,-0.021704746,-0.27989802
1747679454.6302502,0.268646,0.36645198,1.5534854,1.2283821,-0.021704746,-0.27989802
1747679454.6307712,0.268646,0.36645198,1.5534854,1.2283821,-0.021704746,-0.27989802
1747679454.631292,0.32721975,0.37670237,1.5564141,1.3881717,-0.00785632,-0.35872754
1747679454.631811,0.32721975,0.37670237,1.5564141,1.3881717,-0.00785632,-0.35872754
1747679454.632329,0.32721975,0.37670237,1.5564141,1.3881717,-0.00785632,-0.35872754
1747679454.6328473,0.32721975,0.37670237,1.5564141,1.3881717,-0.00785632,-0.35872754
1747679454.6333654,0.32721975,0.37670237,1.5564141,1.3881717,-0.00785632,-0.35872754
1747679454.6338937,0.32721975,0.37670237,1.5564141,1.3881717,-0.00785632,-0.35872754
1747679454.6344278,0.32721975,0.37670237,1.5564141,1.3881717,-0.00785632,-0.35872754
1747679454.6349478,0.32721975,0.37670237,1.5564141,1.3881717,-0.00785632,-0.35872754
1747679454.6354883,0.32721975,0.37670237,1.5564141,1.3881717,-0.00785632,-0.35872754
1747679454.6360369,0.32721975,0.37670237,1.5564141,1.3881717,-0.00785632,-0.35872754
1747679454.6365604,0.32721975,0.37670237,1.5564141,1.3881717,-0.00785632,-0.35872754
1747679454.637124,0.32721975,0.37670237,1.5564141,1.3881717,-0.00785632,-0.35872754
1747679454.637644,0.32721975,0.37670237,1.5564141,1.3881717,-0.00785632,-0.35872754
1747679454.638162,0.32721975,0.37670237,1.5564141,1.3881717,-0.00785632,-0.35872754
1747679454.6386797,0.32721975,0.37670237,1.5564141,1.3881717,-0.00785632,-0.35872754
1747679454.6391976,0.32721975,0.37670237,1.5564141,1.3881717,-0.00785632,-0.35872754
1747679454.6397183,0.32721975,0.37670237,1.5564141,1.3881717,-0.00785632,-0.35872754
1747679454.640239,0.32721975,0.37670237,1.5564141,1.5351781,0.039015282,-0.46312338
1747679454.640758,0.32721975,0.37670237,1.5564141,1.5351781,0.039015282,-0.46312338
1747679454.641279,0.3560185,0.3742618,1.5656883,1.5351781,0.039015282,-0.46312338
1747679454.6418262,0.3560185,0.3742618,1.5656883,1.5351781,0.039015282,-0.46312338
1747679454.6423762,0.3560185,0.3742618,1.5656883,1.5351781,0.039015282,-0.46312338
1747679454.6429286,0.3560185,0.3742618,1.5656883,1.5351781,0.039015282,-0.46312338
1747679454.6434681,0.3560185,0.3742618,1.5656883,1.5351781,0.039015282,-0.46312338
1747679454.6440039,0.3560185,0.3742618,1.5656883,1.5351781,0.039015282,-0.46312338
1747679454.6445613,0.3560185,0.3742618,1.5656883,1.5351781,0.039015282,-0.46312338
1747679454.645085,0.3560185,0.3742618,1.5656883,1.5351781,0.039015282,-0.46312338
1747679454.6456041,0.3560185,0.3742618,1.5656883,1.5351781,0.039015282,-0.46312338
1747679454.6461225,0.3560185,0.3742618,1.5656883,1.5351781,0.039015282,-0.46312338
1747679454.6466405,0.3560185,0.3742618,1.5656883,1.5351781,0.039015282,-0.46312338
1747679454.6471589,0.3560185,0.3742618,1.5656883,1.5351781,0.039015282,-0.46312338
1747679454.647677,0.3560185,0.3742618,1.5656883,1.5351781,0.039015282,-0.46312338
1747679454.6481948,0.3560185,0.3742618,1.5656883,1.5351781,0.039015282,-0.46312338
1747679454.6487129,0.3560185,0.3742618,1.5656883,1.5351781,0.039015282,-0.46312338
1747679454.649231,0.3560185,0.3742618,1.5656883,1.5351781,0.039015282,-0.46312338
1747679454.6497495,0.3560185,0.3742618,1.5656883,1.5351781,0.039015282,-0.46312338
1747679454.6502676,0.3560185,0.3742618,1.5656883,1.5351781,0.039015282,-0.46312338
1747679454.650843,0.3560185,0.3742618,1.5656883,1.5351781,0.039015282,-0.46312338
1747679454.6514013,0.3560185,0.3742618,1.5656883,1.5351781,0.039015282,-0.46312338
1747679454.6519518,0.3560185,0.3742618,1.5656883,1.6811192,0.11571426,-0.570715
1747679454.6525097,0.3560185,0.3742618,1.5656883,1.6811192,0.11571426,-0.570715
1747679454.6530488,0.35650662,0.36986876,1.5583665,1.6811192,0.11571426,-0.570715
1747679454.6535845,0.35650662,0.36986876,1.5583665,1.6811192,0.11571426,-0.570715
1747679454.6541164,0.35650662,0.36986876,1.5583665,1.6811192,0.11571426,-0.570715
1747679454.654649,0.35650662,0.36986876,1.5583665,1.6811192,0.11571426,-0.570715
1747679454.6551716,0.35650662,0.36986876,1.5583665,1.6811192,0.11571426,-0.570715
1747679454.6556923,0.35650662,0.36986876,1.5583665,1.6811192,0.11571426,-0.570715
1747679454.6562133,0.35650662,0.36986876,1.5583665,1.6811192,0.11571426,-0.570715
1747679454.6567478,0.35650662,0.36986876,1.5583665,1.6811192,0.11571426,-0.570715
1747679454.6573148,0.35650662,0.36986876,1.5583665,1.6811192,0.11571426,-0.570715
1747679454.6578662,0.35650662,0.36986876,1.5583665,1.6811192,0.11571426,-0.570715
1747679454.6584017,0.35650662,0.36986876,1.5583665,1.6811192,0.11571426,-0.570715
1747679454.6589236,0.35650662,0.36986876,1.5583665,1.6811192,0.11571426,-0.570715
1747679454.6594446,0.35650662,0.36986876,1.5583665,1.6811192,0.11571426,-0.570715
1747679454.6599655,0.35650662,0.36986876,1.5583665,1.6811192,0.11571426,-0.570715
1747679454.6604862,0.35650662,0.36986876,1.5583665,1.6811192,0.11571426,-0.570715
1747679454.6610074,0.35650662,0.36986876,1.5583665,1.6811192,0.11571426,-0.570715
1747679454.6615307,0.35650662,0.36986876,1.5583665,1.7887108,0.19347851,-0.65380555
1747679454.6620514,0.35650662,0.36986876,1.5583665,1.7887108,0.19347851,-0.65380555
1747679454.6625726,0.35650662,0.36986876,1.5583665,1.7887108,0.19347851,-0.65380555
1747679454.6630933,0.35650662,0.36986876,1.5583665,1.7887108,0.19347851,-0.65380555
1747679454.6636143,0.35650662,0.36986876,1.5583665,1.7887108,0.19347851,-0.65380555
1747679454.664142,0.35699475,0.36694008,1.5495806,1.7887108,0.19347851,-0.65380555
1747679454.6647234,0.35699475,0.36694008,1.5495806,1.7887108,0.19347851,-0.65380555
1747679454.6652603,0.35699475,0.36694008,1.5495806,1.7887108,0.19347851,-0.65380555
1747679454.6657858,0.35699475,0.36694008,1.5495806,1.7887108,0.19347851,-0.65380555
1747679454.6663325,0.35699475,0.36694008,1.5495806,1.7887108,0.19347851,-0.65380555
1747679454.6668851,0.35699475,0.36694008,1.5495806,1.7887108,0.19347851,-0.65380555
1747679454.6674132,0.35699475,0.36694008,1.5495806,1.7887108,0.19347851,-0.65380555
1747679454.6679344,0.35699475,0.36694008,1.5495806,1.7887108,0.19347851,-0.65380555
1747679454.6684577,0.35699475,0.36694008,1.5495806,1.7887108,0.19347851,-0.65380555
1747679454.6689656,0.35699475,0.36694008,1.5495806,1.7887108,0.19347851,-0.65380555
1747679454.6694846,0.35699475,0.36694008,1.5495806,1.7887108,0.19347851,-0.65380555
1747679454.6700027,0.35699475,0.36694008,1.5495806,1.7887108,0.19347851,-0.65380555
1747679454.6705205,0.35699475,0.36694008,1.5495806,1.7887108,0.19347851,-0.65380555
1747679454.6710384,0.35699475,0.36694008,1.5495806,1.7887108,0.19347851,-0.65380555
1747679454.6715567,0.35699475,0.36694008,1.5495806,1.7887108,0.19347851,-0.65380555
1747679454.6720746,0.35699475,0.36694008,1.5495806,1.7887108,0.19347851,-0.65380555
1747679454.6726067,0.35699475,0.36694008,1.5495806,1.7887108,0.19347851,-0.65380555
1747679454.673164,0.35699475,0.36694008,1.5495806,1.7887108,0.19347851,-0.65380555
1747679454.6737113,0.35699475,0.36694008,1.5495806,1.7887108,0.19347851,-0.65380555
1747679454.6742585,0.35699475,0.36694008,1.5495806,1.7887108,0.19347851,-0.65380555
1747679454.6747978,0.35699475,0.36694008,1.5495806,1.7887108,0.19347851,-0.65380555
1747679454.6753182,0.35699475,0.36694008,1.5495806,1.7887108,0.19347851,-0.65380555
1747679454.675837,0.35699475,0.36694008,1.5495806,1.7887108,0.19347851,-0.65380555
1747679454.6763551,0.35699475,0.36694008,1.5495806,1.7887108,0.19347851,-0.65380555
1747679454.6768734,0.35699475,0.36694008,1.5495806,1.7887108,0.19347851,-0.65380555
1747679454.6773922,0.35357794,0.36108267,1.5495806,1.8973677,0.30000487,-0.72943926
1747679454.6779106,0.35357794,0.36108267,1.5495806,1.8973677,0.30000487,-0.72943926
1747679454.6784286,0.35357794,0.36108267,1.5495806,1.8973677,0.30000487,-0.72943926
1747679454.678947,0.35357794,0.36108267,1.5495806,1.8973677,0.30000487,-0.72943926
1747679454.6794653,0.35357794,0.36108267,1.5495806,1.8973677,0.30000487,-0.72943926
1747679454.6799836,0.35357794,0.36108267,1.5495806,1.8973677,0.30000487,-0.72943926
1747679454.6805017,0.35357794,0.36108267,1.5495806,1.8973677,0.30000487,-0.72943926
1747679454.68102,0.35357794,0.36108267,1.5495806,1.8973677,0.30000487,-0.72943926
1747679454.6816216,0.35357794,0.36108267,1.5495806,1.8973677,0.30000487,-0.72943926
1747679454.682178,0.35357794,0.36108267,1.5495806,1.8973677,0.30000487,-0.72943926
1747679454.682719,0.34430376,0.34595114,1.5544616,1.8973677,0.30000487,-0.72943926
1747679454.6832585,0.34430376,0.34595114,1.5544616,2.0422435,0.47151232,-0.8082688
1747679454.6838057,0.34430376,0.34595114,1.5544616,2.0422435,0.47151232,-0.8082688
1747679454.6843584,0.34430376,0.34595114,1.5544616,2.0422435,0.47151232,-0.8082688
1747679454.684883,0.34430376,0.34595114,1.5544616,2.0422435,0.47151232,-0.8082688
1747679454.6854022,0.34430376,0.34595114,1.5544616,2.0422435,0.47151232,-0.8082688
1747679454.6859205,0.34430376,0.34595114,1.5544616,2.0422435,0.47151232,-0.8082688
1747679454.6864388,0.34430376,0.34595114,1.5544616,2.0422435,0.47151232,-0.8082688
1747679454.6869571,0.34430376,0.34595114,1.5544616,2.0422435,0.47151232,-0.8082688
1747679454.6874752,0.34430376,0.34595114,1.5544616,2.0422435,0.47151232,-0.8082688
1747679454.6879933,0.34430376,0.34595114,1.5544616,2.0422435,0.47151232,-0.8082688
1747679454.6885436,0.34430376,0.34595114,1.5544616,2.0422435,0.47151232,-0.8082688
1747679454.6890976,0.34430376,0.34595114,1.5544616,2.0422435,0.47151232,-0.8082688
1747679454.6896684,0.34430376,0.34595114,1.5544616,2.0422435,0.47151232,-0.8082688
1747679454.6902018,0.34430376,0.34595114,1.5544616,2.0422435,0.47151232,-0.8082688
1747679454.6907218,0.34430376,0.34595114,1.5544616,2.0422435,0.47151232,-0.8082688
1747679454.6912408,0.34430376,0.34595114,1.5544616,2.0422435,0.47151232,-0.8082688
1747679454.6917596,0.33307713,0.33911756,1.5412825,2.0422435,0.47151232,-0.8082688
1747679454.6922789,0.33307713,0.33911756,1.5412825,2.0422435,0.47151232,-0.8082688
1747679454.6927974,0.33307713,0.33911756,1.5412825,2.2606225,0.61958396,-0.90094674
1747679454.6933167,0.33307713,0.33911756,1.5412825,2.2606225,0.61958396,-0.90094674
1747679454.693835,0.33307713,0.33911756,1.5412825,2.2606225,0.61958396,-0.90094674
1747679454.6943636,0.33307713,0.33911756,1.5412825,2.2606225,0.61958396,-0.90094674
1747679454.6948981,0.33307713,0.33911756,1.5412825,2.2606225,0.61958396,-0.90094674
1747679454.6954181,0.33307713,0.33911756,1.5412825,2.2606225,0.61958396,-0.90094674
1747679454.6959364,0.33307713,0.33911756,1.5412825,2.2606225,0.61958396,-0.90094674
1747679454.6964548,0.33307713,0.33911756,1.5412825,2.2606225,0.61958396,-0.90094674
1747679454.697005,0.33307713,0.33911756,1.5412825,2.2606225,0.61958396,-0.90094674
1747679454.6975574,0.33307713,0.33911756,1.5412825,2.2606225,0.61958396,-0.90094674
1747679454.6980839,0.33307713,0.33911756,1.5412825,2.2606225,0.61958396,-0.90094674
1747679454.6986027,0.33307713,0.33911756,1.5412825,2.2606225,0.61958396,-0.90094674
1747679454.699121,0.33307713,0.33911756,1.5412825,2.2606225,0.61958396,-0.90094674
1747679454.699639,0.33307713,0.33911756,1.5412825,2.2606225,0.61958396,-0.90094674
1747679454.7001572,0.33307713,0.33911756,1.5412825,2.2606225,0.61958396,-0.90094674
1747679454.700675,0.33307713,0.33911756,1.5412825,2.2606225,0.61958396,-0.90094674
1747679454.7011929,0.33307713,0.33911756,1.5412825,2.2606225,0.61958396,-0.90094674
1747679454.7017112,0.33307713,0.33911756,1.5412825,2.2606225,0.61958396,-0.90094674
1747679454.702229,0.33307713,0.33911756,1.5412825,2.2606225,0.61958396,-0.90094674
1747679454.7027702,0.33307713,0.33911756,1.5412825,2.2606225,0.61958396,-0.90094674
1747679454.7032914,0.33307713,0.33911756,1.5412825,2.2606225,0.61958396,-0.90094674
1747679454.7038202,0.33307713,0.33911756,1.5412825,2.2606225,0.61958396,-0.90094674
1747679454.7043803,0.32917222,0.34497494,1.5295677,2.3543658,0.6025397,-0.942492
1747679454.7049186,0.32917222,0.34497494,1.5295677,2.3543658,0.6025397,-0.942492
1747679454.7054756,0.32917222,0.34497494,1.5295677,2.3543658,0.6025397,-0.942492
1747679454.706046,0.32917222,0.34497494,1.5295677,2.3543658,0.6025397,-0.942492
1747679454.7065792,0.32917222,0.34497494,1.5295677,2.3543658,0.6025397,-0.942492
1747679454.707099,0.32917222,0.34497494,1.5295677,2.3543658,0.6025397,-0.942492
1747679454.7076175,0.32917222,0.34497494,1.5295677,2.3543658,0.6025397,-0.942492
1747679454.7081358,0.32917222,0.34497494,1.5295677,2.3543658,0.6025397,-0.942492
1747679454.7086542,0.32917222,0.34497494,1.5295677,2.3543658,0.6025397,-0.942492
1747679454.7091725,0.32917222,0.34497494,1.5295677,2.3543658,0.6025397,-0.942492
1747679454.7096906,0.32917222,0.34497494,1.5295677,2.3543658,0.6025397,-0.942492
1747679454.7102087,0.32917222,0.34497494,1.5295677,2.3543658,0.6025397,-0.942492
1747679454.710727,0.32917222,0.34497494,1.5295677,2.3543658,0.6025397,-0.942492
1747679454.711245,0.32917222,0.34497494,1.5295677,2.3543658,0.6025397,-0.942492
1747679454.711763,0.32917222,0.34497494,1.5295677,2.3543658,0.6025397,-0.942492
1747679454.7123184,0.32917222,0.34497494,1.5295677,2.3543658,0.6025397,-0.942492
1747679454.7129023,0.32917222,0.34497494,1.5295677,2.3543658,0.6025397,-0.942492
1747679454.7134497,0.31062385,0.3479036,1.4988166,2.5301342,0.45340285,-1.0159951
1747679454.714002,0.31062385,0.3479036,1.4988166,2.5301342,0.45340285,-1.0159951
1747679454.7145462,0.31062385,0.3479036,1.4988166,2.5301342,0.45340285,-1.0159951
1747679454.7150712,0.31062385,0.3479036,1.4988166,2.5301342,0.45340285,-1.0159951
1747679454.7155902,0.31062385,0.3479036,1.4988166,2.5301342,0.45340285,-1.0159951
1747679454.7161083,0.31062385,0.3479036,1.4988166,2.5301342,0.45340285,-1.0159951
1747679454.7166262,0.31062385,0.3479036,1.4988166,2.5301342,0.45340285,-1.0159951
1747679454.7171443,0.31062385,0.3479036,1.4988166,2.5301342,0.45340285,-1.0159951
1747679454.7176626,0.31062385,0.3479036,1.4988166,2.5301342,0.45340285,-1.0159951
1747679454.7181804,0.31062385,0.3479036,1.4988166,2.5301342,0.45340285,-1.0159951
1747679454.7186985,0.31062385,0.3479036,1.4988166,2.5301342,0.45340285,-1.0159951
1747679454.7192168,0.31062385,0.3479036,1.4988166,2.5301342,0.45340285,-1.0159951
1747679454.7197511,0.31062385,0.3479036,1.4988166,2.5301342,0.45340285,-1.0159951
1747679454.7203116,0.31062385,0.3479036,1.4988166,2.5301342,0.45340285,-1.0159951
1747679454.720852,0.31062385,0.3479036,1.4988166,2.5301342,0.45340285,-1.0159951
1747679454.7213879,0.31062385,0.3479036,1.4988166,2.5301342,0.45340285,-1.0159951
1747679454.7219107,0.31062385,0.3479036,1.4988166,2.5301342,0.45340285,-1.0159951
1747679454.722433,0.31062385,0.3479036,1.4988166,2.5301342,0.45340285,-1.0159951
1747679454.7229548,0.31062385,0.3479036,1.4988166,2.5301342,0.45340285,-1.0159951
1747679454.723477,0.31062385,0.3479036,1.4988166,2.5301342,0.45340285,-1.0159951
1747679454.7240617,0.31062385,0.3479036,1.4988166,2.5301342,0.45340285,-1.0159951
1747679454.724617,0.29012305,0.33277205,1.4914949,2.646248,0.34474593,-1.059671
1747679454.7251577,0.29012305,0.33277205,1.4914949,2.646248,0.34474593,-1.059671
1747679454.7256901,0.29012305,0.33277205,1.4914949,2.646248,0.34474593,-1.059671
1747679454.7262096,0.29012305,0.33277205,1.4914949,2.646248,0.34474593,-1.059671
1747679454.7267282,0.29012305,0.33277205,1.4914949,2.646248,0.34474593,-1.059671
1747679454.7272465,0.29012305,0.33277205,1.4914949,2.646248,0.34474593,-1.059671
1747679454.727787,0.29012305,0.33277205,1.4914949,2.646248,0.34474593,-1.059671
1747679454.7283354,0.29012305,0.33277205,1.4914949,2.646248,0.34474593,-1.059671
1747679454.7288623,0.29012305,0.33277205,1.4914949,2.646248,0.34474593,-1.059671
1747679454.729381,0.29012305,0.33277205,1.4914949,2.646248,0.34474593,-1.059671
1747679454.7298992,0.29012305,0.33277205,1.4914949,2.646248,0.34474593,-1.059671
1747679454.7304175,0.29012305,0.33277205,1.4914949,2.646248,0.34474593,-1.059671
1747679454.7309353,0.29012305,0.33277205,1.4914949,2.646248,0.34474593,-1.059671
1747679454.7314534,0.29012305,0.33277205,1.4914949,2.646248,0.34474593,-1.059671
1747679454.731971,0.29012305,0.33277205,1.4914949,2.646248,0.34474593,-1.059671
1747679454.7324896,0.29012305,0.33277205,1.4914949,2.646248,0.34474593,-1.059671
1747679454.7330074,0.29012305,0.33277205,1.4914949,2.646248,0.34474593,-1.059671
1747679454.733525,0.29012305,0.33277205,1.4914949,2.646248,0.34474593,-1.059671
1747679454.734043,0.29012305,0.33277205,1.4914949,2.646248,0.34474593,-1.059671
1747679454.7345693,0.29012305,0.33277205,1.4914949,2.646248,0.34474593,-1.059671
1747679454.7351258,0.29012305,0.33277205,1.4914949,2.646248,0.34474593,-1.059671
1747679454.73567,0.268646,0.31227124,1.5036978,2.646248,0.34474593,-1.059671
1747679454.7362163,0.268646,0.31227124,1.5036978,2.7868629,0.3074617,-1.0905637
1747679454.7367597,0.268646,0.31227124,1.5036978,2.7868629,0.3074617,-1.0905637
1747679454.7372968,0.268646,0.31227124,1.5036978,2.7868629,0.3074617,-1.0905637
1747679454.7378216,0.268646,0.31227124,1.5036978,2.7868629,0.3074617,-1.0905637
1747679454.7383444,0.268646,0.31227124,1.5036978,2.7868629,0.3074617,-1.0905637
1747679454.7388668,0.268646,0.31227124,1.5036978,2.7868629,0.3074617,-1.0905637
1747679454.739394,0.268646,0.31227124,1.5036978,2.9157598,0.36498594,-1.0948247
1747679454.7399182,0.268646,0.31227124,1.5036978,2.9157598,0.36498594,-1.0948247
1747679454.7404413,0.268646,0.31227124,1.5036978,2.9157598,0.36498594,-1.0948247
1747679454.7409642,0.268646,0.31227124,1.5036978,2.9157598,0.36498594,-1.0948247
1747679454.7414906,0.25937185,0.28347248,1.500769,2.9157598,0.36498594,-1.0948247
1747679454.7420166,0.25937185,0.28347248,1.500769,2.9157598,0.36498594,-1.0948247
1747679454.7426946,0.25937185,0.28347248,1.500769,2.9157598,0.36498594,-1.0948247
1747679454.7432492,0.25937185,0.28347248,1.500769,2.9157598,0.36498594,-1.0948247
1747679454.7437942,0.25937185,0.28347248,1.500769,2.9157598,0.36498594,-1.0948247
1747679454.7443352,0.25937185,0.28347248,1.500769,2.9157598,0.36498594,-1.0948247
1747679454.7448623,0.25937185,0.28347248,1.500769,2.9157598,0.36498594,-1.0948247
1747679454.7454185,0.25937185,0.28347248,1.500769,2.9157598,0.36498594,-1.0948247
1747679454.7459526,0.25937185,0.28347248,1.500769,2.9157598,0.36498594,-1.0948247
1747679454.7464724,0.25937185,0.28347248,1.500769,2.9157598,0.36498594,-1.0948247
1747679454.746991,0.25937185,0.28347248,1.500769,2.9157598,0.36498594,-1.0948247
1747679454.747509,0.25937185,0.28347248,1.500769,2.9157598,0.36498594,-1.0948247
1747679454.7480268,0.25937185,0.28347248,1.500769,2.9157598,0.36498594,-1.0948247
1747679454.748545,0.25937185,0.28347248,1.500769,2.9157598,0.36498594,-1.0948247
1747679454.7490633,0.25937185,0.28347248,1.500769,2.9157598,0.36498594,-1.0948247
1747679454.749581,0.25937185,0.28347248,1.500769,2.9157598,0.36498594,-1.0948247
1747679454.7500992,0.25937185,0.28347248,1.500769,2.9157598,0.36498594,-1.0948247
1747679454.7506173,0.25937185,0.28347248,1.500769,2.9157598,0.36498594,-1.0948247
1747679454.751166,0.25937185,0.28347248,1.500769,2.9157598,0.36498594,-1.0948247
1747679454.751721,0.25937185,0.28347248,1.500769,2.9157598,0.36498594,-1.0948247
1747679454.7522695,0.25937185,0.28347248,1.500769,2.9157598,0.36498594,-1.0948247
1747679454.7528338,0.25937185,0.28347248,1.500769,3.0201557,0.42677125,-1.0980206
1747679454.7533686,0.25937185,0.28347248,1.500769,3.0201557,0.42677125,-1.0980206
1747679454.7538967,0.25937185,0.28347248,1.500769,3.0201557,0.42677125,-1.0980206
1747679454.7544308,0.25937185,0.28347248,1.500769,3.0201557,0.42677125,-1.0980206
1747679454.754957,0.26327676,0.25760242,1.4817326,3.0201557,0.42677125,-1.0980206
1747679454.7554786,0.26327676,0.25760242,1.4817326,3.0201557,0.42677125,-1.0980206
1747679454.7559998,0.26327676,0.25760242,1.4817326,3.0201557,0.42677125,-1.0980206
1747679454.7565207,0.26327676,0.25760242,1.4817326,3.0201557,0.42677125,-1.0980206
1747679454.7570415,0.26327676,0.25760242,1.4817326,3.0201557,0.42677125,-1.0980206
1747679454.7575622,0.26327676,0.25760242,1.4817326,3.0201557,0.42677125,-1.0980206
1747679454.758118,0.26327676,0.25760242,1.4817326,3.0201557,0.42677125,-1.0980206
1747679454.758673,0.26327676,0.25760242,1.4817326,3.0201557,0.42677125,-1.0980206
1747679454.7592077,0.26327676,0.25760242,1.4817326,3.0201557,0.42677125,-1.0980206
1747679454.7597294,0.26327676,0.25760242,1.4817326,3.0201557,0.42677125,-1.0980206
1747679454.7602503,0.26327676,0.25760242,1.4817326,3.0201557,0.42677125,-1.0980206
1747679454.7607713,0.26327676,0.25760242,1.4817326,3.0201557,0.42677125,-1.0980206
1747679454.7612934,0.26327676,0.25760242,1.4817326,3.0201557,0.42677125,-1.0980206
1747679454.7618148,0.25546694,0.24881637,1.4524457,3.0201557,0.42677125,-1.0980206
1747679454.7623358,0.25546694,0.24881637,1.4524457,3.0201557,0.42677125,-1.0980206
1747679454.762856,0.25546694,0.24881637,1.4524457,3.0201557,0.42677125,-1.0980206
1747679454.763377,0.25546694,0.24881637,1.4524457,3.1490524,0.50347024,-1.1033468
1747679454.763898,0.25546694,0.24881637,1.4524457,3.1490524,0.50347024,-1.1033468
1747679454.7644255,0.25546694,0.24881637,1.4524457,3.1490524,0.50347024,-1.1033468
1747679454.7649581,0.25546694,0.24881637,1.4524457,3.1490524,0.50347024,-1.1033468
1747679454.7654803,0.25546694,0.24881637,1.4524457,3.1490524,0.50347024,-1.1033468
1747679454.7660015,0.25546694,0.24881637,1.4524457,3.1490524,0.50347024,-1.1033468
1747679454.7665324,0.25546694,0.24881637,1.4524457,3.1490524,0.50347024,-1.1033468
1747679454.7670984,0.25546694,0.24881637,1.4524457,3.1490524,0.50347024,-1.1033468
1747679454.7676604,0.25546694,0.24881637,1.4524457,3.1490524,0.50347024,-1.1033468
1747679454.7682023,0.25546694,0.24881637,1.4524457,3.1490524,0.50347024,-1.1033468
1747679454.769211,0.25546694,0.24881637,1.4524457,3.1490524,0.50347024,-1.1033468
1747679454.769733,0.25546694,0.24881637,1.4524457,3.1490524,0.50347024,-1.1033468
1747679454.7702518,0.25546694,0.24881637,1.4524457,3.1490524,0.50347024,-1.1033468
1747679454.7707698,0.25546694,0.24881637,1.4524457,3.1490524,0.50347024,-1.1033468
1747679454.7712882,0.25546694,0.24881637,1.4524457,3.1490524,0.50347024,-1.1033468
1747679454.771806,0.25546694,0.24881637,1.4524457,3.1490524,0.50347024,-1.1033468
1747679454.772324,0.25546694,0.24881637,1.4524457,3.1490524,0.50347024,-1.1033468
1747679454.7728658,0.25546694,0.24881637,1.4524457,3.1490524,0.50347024,-1.1033468
1747679454.7734306,0.25546694,0.24881637,1.4524457,3.1490524,0.50347024,-1.1033468
1747679454.7739732,0.25546694,0.24881637,1.4524457,3.1490524,0.50347024,-1.1033468
1747679454.7745044,0.25546694,0.24881637,1.4524457,3.1490524,0.50347024,-1.1033468
1747679454.7750285,0.25546694,0.24881637,1.4524457,3.1490524,0.50347024,-1.1033468
1747679454.7755475,0.25546694,0.24881637,1.4524457,3.1490524,0.50347024,-1.1033468
1747679454.7760653,0.25546694,0.24881637,1.4524457,3.1490524,0.50347024,-1.1033468
1747679454.7765834,0.25546694,0.24881637,1.4524457,3.1490524,0.50347024,-1.1033468
1747679454.777102,0.25205013,0.25125694,1.385574,3.2790146,0.57058185,-1.1033468
1747679454.7776206,0.25205013,0.25125694,1.385574,3.2790146,0.57058185,-1.1033468
1747679454.7781389,0.25205013,0.25125694,1.385574,3.2790146,0.57058185,-1.1033468
1747679454.7786567,0.25205013,0.25125694,1.385574,3.2790146,0.57058185,-1.1033468
1747679454.7791743,0.25205013,0.25125694,1.385574,3.2790146,0.57058185,-1.1033468
1747679454.7796922,0.25205013,0.25125694,1.385574,3.2790146,0.57058185,-1.1033468
1747679454.7802105,0.25205013,0.25125694,1.385574,3.38128,0.57697344,-1.1108036
1747679454.7807293,0.25205013,0.25125694,1.385574,3.38128,0.57697344,-1.1108036
1747679454.7812471,0.25205013,0.25125694,1.385574,3.38128,0.57697344,-1.1108036
1747679454.781778,0.25205013,0.25125694,1.385574,3.38128,0.57697344,-1.1108036
1747679454.7823462,0.27987266,0.2634598,1.278677,3.38128,0.57697344,-1.1108036
1747679454.7829056,0.27987266,0.2634598,1.278677,3.38128,0.57697344,-1.1108036
1747679454.7834468,0.27987266,0.2634598,1.278677,3.38128,0.57697344,-1.1108036
1747679454.7839794,0.27987266,0.2634598,1.278677,3.38128,0.57697344,-1.1108036
1747679454.7845056,0.27987266,0.2634598,1.278677,3.38128,0.57697344,-1.1108036
1747679454.7850318,0.27987266,0.2634598,1.278677,3.38128,0.57697344,-1.1108036
1747679454.7855515,0.27987266,0.2634598,1.278677,3.38128,0.57697344,-1.1108036
1747679454.7860703,0.27987266,0.2634598,1.278677,3.38128,0.57697344,-1.1108036
1747679454.7865884,0.27987266,0.2634598,1.278677,3.38128,0.57697344,-1.1108036
1747679454.7871065,0.27987266,0.2634598,1.278677,3.38128,0.57697344,-1.1108036
1747679454.7876246,0.27987266,0.2634598,1.278677,3.38128,0.57697344,-1.1108036
1747679454.7881796,0.27987266,0.2634598,1.278677,3.38128,0.57697344,-1.1108036
1747679454.7887313,0.27987266,0.2634598,1.278677,3.38128,0.57697344,-1.1108036
1747679454.7892687,0.27987266,0.2634598,1.278677,3.38128,0.57697344,-1.1108036
1747679454.7897925,0.27987266,0.2634598,1.278677,3.38128,0.57697344,-1.1108036
1747679454.7903183,0.27987266,0.2634598,1.278677,3.38128,0.57697344,-1.1108036
1747679454.7908416,0.27987266,0.2634598,1.278677,3.38128,0.57697344,-1.1108036
1747679454.7913628,0.27987266,0.2634598,1.278677,3.38128,0.57697344,-1.1108036
1747679454.7918813,0.30769518,0.27517456,1.214734,3.410042,0.57058185,-1.1491531
1747679454.7924638,0.30769518,0.27517456,1.214734,3.410042,0.57058185,-1.1491531
1747679454.7929826,0.30769518,0.27517456,1.214734,3.410042,0.57058185,-1.1491531
1747679454.7935007,0.30769518,0.27517456,1.214734,3.410042,0.57058185,-1.1491531
1747679454.7940273,0.30769518,0.27517456,1.214734,3.410042,0.57058185,-1.1491531
1747679454.7945552,0.30769518,0.27517456,1.214734,3.410042,0.57058185,-1.1491531
1747679454.7950745,0.30769518,0.27517456,1.214734,3.410042,0.57058185,-1.1491531
1747679454.795593,0.30769518,0.27517456,1.214734,3.410042,0.57058185,-1.1491531
1747679454.796111,0.30769518,0.27517456,1.214734,3.410042,0.57058185,-1.1491531
1747679454.7966285,0.30769518,0.27517456,1.214734,3.410042,0.57058185,-1.1491531
1747679454.7971468,0.30769518,0.27517456,1.214734,3.410042,0.57058185,-1.1491531
1747679454.7976642,0.30769518,0.27517456,1.214734,3.410042,0.57058185,-1.1491531
1747679454.798214,0.30769518,0.27517456,1.214734,3.410042,0.57058185,-1.1491531
1747679454.7987761,0.30769518,0.27517456,1.214734,3.410042,0.57058185,-1.1491531
1747679454.7993274,0.30769518,0.27517456,1.214734,3.410042,0.57058185,-1.1491531
1747679454.7998915,0.30769518,0.27517456,1.214734,3.410042,0.57058185,-1.1491531
1747679454.800425,0.30769518,0.27517456,1.214734,3.410042,0.57058185,-1.1491531
1747679454.8009446,0.30769518,0.27517456,1.214734,3.410042,0.57058185,-1.1491531
1747679454.8014631,0.30769518,0.27517456,1.214734,3.410042,0.57058185,-1.1491531
1747679454.801982,0.30769518,0.27517456,1.214734,3.410042,0.57058185,-1.1491531
1747679454.8025007,0.30769518,0.27517456,1.214734,3.4228253,0.5801692,-1.1917636
1747679454.8030193,0.30769518,0.27517456,1.214734,3.4228253,0.5801692,-1.1917636
1747679454.8036044,0.3350296,0.27615076,1.1590889,3.4228253,0.5801692,-1.1917636
1747679454.8041716,0.3350296,0.27615076,1.1590889,3.4228253,0.5801692,-1.1917636
1747679454.804723,0.3350296,0.27615076,1.1590889,3.4228253,0.5801692,-1.1917636
1747679454.806333,0.3350296,0.27615076,1.1590889,3.4228253,0.5801692,-1.1917636
1747679454.806879,0.3350296,0.27615076,1.1590889,3.4228253,0.5801692,-1.1917636
1747679454.8073993,0.3350296,0.27615076,1.1590889,3.4228253,0.5801692,-1.1917636
1747679454.807917,0.3350296,0.27615076,1.1590889,3.4228253,0.5801692,-1.1917636
1747679454.8084352,0.3350296,0.27615076,1.1590889,3.4228253,0.5801692,-1.1917636
1747679454.8089533,0.3350296,0.27615076,1.1590889,3.4228253,0.5801692,-1.1917636
1747679454.8094711,0.3350296,0.27615076,1.1590889,3.4228253,0.5801692,-1.1917636
1747679454.8099895,0.3350296,0.27615076,1.1590889,3.4228253,0.5801692,-1.1917636
1747679454.8105075,0.3350296,0.27615076,1.1590889,3.4228253,0.5801692,-1.1917636
1747679454.8110251,0.3350296,0.27615076,1.1590889,3.4228253,0.5801692,-1.1917636
1747679454.8115432,0.3350296,0.27615076,1.1590889,3.4228253,0.5801692,-1.1917636
1747679454.812061,0.3350296,0.27615076,1.1590889,3.4228253,0.5801692,-1.1917636
1747679454.8125792,0.3350296,0.27615076,1.1590889,3.4228253,0.5801692,-1.1917636
1747679454.8130972,0.3350296,0.27615076,1.1590889,3.4228253,0.5801692,-1.1917636
1747679454.8136382,0.3350296,0.27615076,1.1590889,3.4228253,0.5801692,-1.1917636
1747679454.8142173,0.3350296,0.27615076,1.1590889,3.4228253,0.5801692,-1.1917636
1747679454.8147776,0.3389345,0.272734,1.0931934,3.4228253,0.5801692,-1.1917636
1747679454.8153224,0.3389345,0.272734,1.0931934,3.4228253,0.5801692,-1.1917636
1747679454.8158565,0.3389345,0.272734,1.0931934,3.446261,0.5375587,-1.29829
1747679454.8163774,0.3389345,0.272734,1.0931934,3.446261,0.5375587,-1.29829
1747679454.8168955,0.3389345,0.272734,1.0931934,3.446261,0.5375587,-1.29829
1747679454.8174148,0.3389345,0.272734,1.0931934,3.446261,0.5375587,-1.29829
1747679454.817933,0.3389345,0.272734,1.0931934,3.446261,0.5375587,-1.29829
1747679454.8185146,0.3389345,0.272734,1.0931934,3.446261,0.5375587,-1.29829
1747679454.819073,0.3389345,0.272734,1.0931934,3.446261,0.5375587,-1.29829
1747679454.8196127,0.3389345,0.272734,1.0931934,3.446261,0.5375587,-1.29829
1747679454.8201368,0.3389345,0.272734,1.0931934,3.446261,0.5375587,-1.29829
1747679454.8206553,0.3389345,0.272734,1.0931934,3.446261,0.5375587,-1.29829
1747679454.821174,0.3389345,0.272734,1.0931934,3.446261,0.5375587,-1.29829
1747679454.8216925,0.3389345,0.272734,1.0931934,3.446261,0.5375587,-1.29829
1747679454.8222108,0.3389345,0.272734,1.0931934,3.446261,0.5375587,-1.29829
1747679454.8227284,0.3389345,0.272734,1.0931934,3.446261,0.5375587,-1.29829
1747679454.8232465,0.3389345,0.272734,1.0931934,3.446261,0.5375587,-1.29829
1747679454.823774,0.3389345,0.272734,1.0931934,3.446261,0.5375587,-1.29829
1747679454.8243012,0.3389345,0.272734,1.0931934,3.446261,0.5375587,-1.29829
1747679454.8248222,0.28231323,0.2668766,1.0175357,3.4611747,0.40546596,-1.4186648
1747679454.8253415,0.28231323,0.2668766,1.0175357,3.4611747,0.40546596,-1.4186648
1747679454.8258626,0.28231323,0.2668766,1.0175357,3.4611747,0.40546596,-1.4186648
1747679454.8263836,0.28231323,0.2668766,1.0175357,3.4611747,0.40546596,-1.4186648
1747679454.826902,0.28231323,0.2668766,1.0175357,3.4611747,0.40546596,-1.4186648
1747679454.82742,0.28231323,0.2668766,1.0175357,3.4611747,0.40546596,-1.4186648
1747679454.8279388,0.28231323,0.2668766,1.0175357,3.4611747,0.40546596,-1.4186648
1747679454.8284574,0.28231323,0.2668766,1.0175357,3.4611747,0.40546596,-1.4186648
1747679454.829004,0.28231323,0.2668766,1.0175357,3.4611747,0.40546596,-1.4186648
1747679454.829554,0.28231323,0.2668766,1.0175357,3.4611747,0.40546596,-1.4186648
1747679454.8301072,0.28231323,0.2668766,1.0175357,3.4611747,0.40546596,-1.4186648
1747679454.8306735,0.28231323,0.2668766,1.0175357,3.4611747,0.40546596,-1.4186648
1747679454.8312068,0.28231323,0.2668766,1.0175357,3.4611747,0.40546596,-1.4186648
1747679454.8317263,0.28231323,0.2668766,1.0175357,3.4611747,0.40546596,-1.4186648
1747679454.8322446,0.28231323,0.2668766,1.0175357,3.4611747,0.40546596,-1.4186648
1747679454.8327634,0.28231323,0.2668766,1.0175357,3.4611747,0.40546596,-1.4186648
1747679454.8332849,0.21983455,0.26199543,0.9716529,3.4611747,0.40546596,-1.4186648
1747679454.8339727,0.21983455,0.26199543,0.9716529,3.4675663,0.36498594,-1.463406
1747679454.8345346,0.21983455,0.26199543,0.9716529,3.4675663,0.36498594,-1.463406
1747679454.8350909,0.21983455,0.26199543,0.9716529,3.4675663,0.36498594,-1.463406
1747679454.8356378,0.21983455,0.26199543,0.9716529,3.4675663,0.36498594,-1.463406
1747679454.836178,0.21983455,0.26199543,0.9716529,3.4675663,0.36498594,-1.463406
1747679454.8367202,0.21983455,0.26199543,0.9716529,3.4675663,0.36498594,-1.463406
1747679454.8372817,0.21983455,0.26199543,0.9716529,3.4675663,0.36498594,-1.463406
1747679454.837819,0.21983455,0.26199543,0.9716529,3.4675663,0.36498594,-1.463406
1747679454.838342,0.21983455,0.26199543,0.9716529,3.4675663,0.36498594,-1.463406
1747679454.838865,0.21983455,0.26199543,0.9716529,3.4675663,0.36498594,-1.463406
1747679454.8393862,0.21983455,0.26199543,0.9716529,3.4675663,0.36498594,-1.463406
1747679454.839905,0.21983455,0.26199543,0.9716529,3.4675663,0.36498594,-1.463406
1747679454.8404245,0.21983455,0.26199543,0.9716529,3.4675663,0.36498594,-1.463406
1747679454.840944,0.21983455,0.26199543,0.9716529,3.4675663,0.36498594,-1.463406
1747679454.8414624,0.21983455,0.26199543,0.9716529,3.4675663,0.36498594,-1.463406
1747679454.8419805,0.21983455,0.26199543,0.9716529,3.4675663,0.36498594,-1.463406
1747679454.8424988,0.21983455,0.26199543,0.9716529,3.4675663,0.36498594,-1.463406
1747679454.8430169,0.21983455,0.26199543,0.9716529,3.4675663,0.36498594,-1.463406
1747679454.843536,0.21983455,0.26199543,0.9716529,3.4675663,0.36498594,-1.463406
1747679454.844068,0.21983455,0.26199543,0.9716529,3.4675663,0.36498594,-1.463406
1747679454.8446236,0.21983455,0.26199543,0.9716529,3.4601095,0.44701126,-1.4612755
1747679454.8451724,0.21983455,0.26199543,0.9716529,3.4601095,0.44701126,-1.4612755
1747679454.8457522,0.21983455,0.26199543,0.9716529,3.4601095,0.44701126,-1.4612755
1747679454.846332,0.17297557,0.24881637,0.9042931,3.4601095,0.44701126,-1.4612755
1747679454.8468654,0.17297557,0.24881637,0.9042931,3.4601095,0.44701126,-1.4612755
1747679454.847385,0.17297557,0.24881637,0.9042931,3.4601095,0.44701126,-1.4612755
1747679454.8479033,0.17297557,0.24881637,0.9042931,3.4601095,0.44701126,-1.4612755
1747679454.8484256,0.17297557,0.24881637,0.9042931,3.4601095,0.44701126,-1.4612755
1747679454.8489647,0.17297557,0.24881637,0.9042931,3.4601095,0.44701126,-1.4612755
1747679454.849508,0.17297557,0.24881637,0.9042931,3.4601095,0.44701126,-1.4612755
1747679454.8500395,0.17297557,0.24881637,0.9042931,3.4601095,0.44701126,-1.4612755
1747679454.850559,0.17297557,0.24881637,0.9042931,3.4601095,0.44701126,-1.4612755
1747679454.851078,0.17297557,0.24881637,0.9042931,3.4601095,0.44701126,-1.4612755
1747679454.8515968,0.17297557,0.24881637,0.9042931,3.4601095,0.44701126,-1.4612755
1747679454.8521154,0.14076002,0.24003032,0.8222898,3.4313474,0.6110619,-1.4282522
1747679454.852635,0.14076002,0.24003032,0.8222898,3.4313474,0.6110619,-1.4282522
1747679454.8531535,0.14076002,0.24003032,0.8222898,3.4313474,0.6110619,-1.4282522
1747679454.8536747,0.14076002,0.24003032,0.8222898,3.4313474,0.6110619,-1.4282522
1747679454.854203,0.14076002,0.24003032,0.8222898,3.4313474,0.6110619,-1.4282522
1747679454.8547356,0.14076002,0.24003032,0.8222898,3.4313474,0.6110619,-1.4282522
1747679454.8552575,0.14076002,0.24003032,0.8222898,3.4313474,0.6110619,-1.4282522
1747679454.855779,0.14076002,0.24003032,0.8222898,3.4313474,0.6110619,-1.4282522
1747679454.8562999,0.14076002,0.24003032,0.8222898,3.4313474,0.6110619,-1.4282522
1747679454.8568208,0.14076002,0.24003032,0.8222898,3.4313474,0.6110619,-1.4282522
1747679454.8573415,0.14076002,0.24003032,0.8222898,3.4313474,0.6110619,-1.4282522
1747679454.8578622,0.14076002,0.24003032,0.8222898,3.4313474,0.6110619,-1.4282522
1747679454.8583822,0.14076002,0.24003032,0.8222898,3.4313474,0.6110619,-1.4282522
1747679454.8589034,0.14076002,0.24003032,0.8222898,3.4313474,0.6110619,-1.4282522
1747679454.8594244,0.14076002,0.24003032,0.8222898,3.4313474,0.6110619,-1.4282522
1747679454.8599594,0.14076002,0.24003032,0.8222898,3.3834105,0.8965525,-1.3760543
1747679454.8605187,0.14076002,0.24003032,0.8222898,3.3834105,0.8965525,-1.3760543
1747679454.861075,0.1197711,0.23807785,0.74712026,3.3834105,0.8965525,-1.3760543
1747679454.8616257,0.1197711,0.23807785,0.74712026,3.3834105,0.8965525,-1.3760543
1747679454.8621614,0.1197711,0.23807785,0.74712026,3.3834105,0.8965525,-1.3760543
1747679454.862683,0.1197711,0.23807785,0.74712026,3.3834105,0.8965525,-1.3760543
1747679454.863204,0.1197711,0.23807785,0.74712026,3.3834105,0.8965525,-1.3760543
1747679454.8637295,0.1197711,0.23807785,0.74712026,3.3834105,0.8965525,-1.3760543
1747679454.8642752,0.1197711,0.23807785,0.74712026,3.3834105,0.8965525,-1.3760543
1747679454.8648348,0.1197711,0.23807785,0.74712026,3.3834105,0.8965525,-1.3760543
1747679454.8653698,0.1197711,0.23807785,0.74712026,3.3834105,0.8965525,-1.3760543
1747679454.865898,0.1197711,0.23807785,0.74712026,3.3834105,0.8965525,-1.3760543
1747679454.8664389,0.1197711,0.23807785,0.74712026,3.3834105,0.8965525,-1.3760543
1747679454.8669744,0.1197711,0.23807785,0.74712026,3.3834105,0.8965525,-1.3760543
1747679454.8674965,0.1197711,0.23807785,0.74712026,3.3834105,0.8965525,-1.3760543
1747679454.8680177,0.1197711,0.23807785,0.74712026,3.3834105,0.8965525,-1.3760543
1747679454.8685412,0.1197711,0.23807785,0.74712026,3.3834105,0.8965525,-1.3760543
1747679454.8690493,0.1197711,0.23807785,0.74712026,3.3834105,0.8965525,-1.3760543
1747679454.8695683,0.1197711,0.23807785,0.74712026,3.3834105,0.8965525,-1.3760543
1747679454.8701556,0.1197711,0.23807785,0.74712026,3.3834105,0.8965525,-1.3760543
1747679454.8706746,0.117330514,0.23612538,0.6665814,3.3834105,0.8965525,-1.3760543
1747679454.8711958,0.117330514,0.23612538,0.6665814,3.3834105,0.8965525,-1.3760543
1747679454.8717213,0.117330514,0.23612538,0.6665814,3.3301473,1.2321105,-1.3110732
1747679454.8722417,0.117330514,0.23612538,0.6665814,3.3301473,1.2321105,-1.3110732
1747679454.8727598,0.117330514,0.23612538,0.6665814,3.3301473,1.2321105,-1.3110732
1747679454.873278,0.117330514,0.23612538,0.6665814,3.3301473,1.2321105,-1.3110732
1747679454.8738072,0.117330514,0.23612538,0.6665814,3.3301473,1.2321105,-1.3110732
1747679454.8743415,0.117330514,0.23612538,0.6665814,3.3301473,1.2321105,-1.3110732
1747679454.8748612,0.117330514,0.23612538,0.6665814,3.3301473,1.2321105,-1.3110732
1747679454.8754108,0.117330514,0.23612538,0.6665814,3.3301473,1.2321105,-1.3110732
1747679454.8759654,0.117330514,0.23612538,0.6665814,3.3301473,1.2321105,-1.3110732
1747679454.8765216,0.117330514,0.23612538,0.6665814,3.3301473,1.2321105,-1.3110732
1747679454.8770847,0.117330514,0.23612538,0.6665814,3.3301473,1.2321105,-1.3110732
1747679454.877618,0.117330514,0.23612538,0.6665814,3.3301473,1.2321105,-1.3110732
1747679454.878138,0.117330514,0.23612538,0.6665814,3.3301473,1.2321105,-1.3110732
1747679454.8786566,0.117330514,0.23612538,0.6665814,3.3301473,1.2321105,-1.3110732
1747679454.879175,0.117330514,0.23612538,0.6665814,3.3301473,1.2321105,-1.3110732
1747679454.879721,0.117330514,0.23612538,0.6665814,3.3301473,1.2321105,-1.3110732
1747679454.8802726,0.117330514,0.23612538,0.6665814,3.3301473,1.2321105,-1.3110732
1747679454.8808048,0.117330514,0.23612538,0.6665814,3.3301473,1.2321105,-1.3110732
1747679454.8813248,0.117330514,0.23612538,0.6665814,3.3301473,1.2321105,-1.3110732
1747679454.8818438,0.105615765,0.24442334,0.59629285,3.2715578,1.4504896,-1.25781
1747679454.8823621,0.105615765,0.24442334,0.59629285,3.2715578,1.4504896,-1.25781
1747679454.8828807,0.105615765,0.24442334,0.59629285,3.2715578,1.4504896,-1.25781
1747679454.8833995,0.105615765,0.24442334,0.59629285,3.2715578,1.4504896,-1.25781
1747679454.8839262,0.105615765,0.24442334,0.59629285,3.2715578,1.4504896,-1.25781
1747679454.8844552,0.105615765,0.24442334,0.59629285,3.2715578,1.4504896,-1.25781
1747679454.8849745,0.105615765,0.24442334,0.59629285,3.2715578,1.4504896,-1.25781
1747679454.8854928,0.105615765,0.24442334,0.59629285,3.2715578,1.4504896,-1.25781
1747679454.886011,0.105615765,0.24442334,0.59629285,3.2715578,1.4504896,-1.25781
1747679454.8865292,0.105615765,0.24442334,0.59629285,3.2715578,1.4504896,-1.25781
1747679454.8870468,0.105615765,0.24442334,0.59629285,3.2715578,1.4504896,-1.25781
1747679454.8875654,0.105615765,0.24442334,0.59629285,3.2715578,1.4504896,-1.25781
1747679454.888083,0.105615765,0.24442334,0.59629285,3.2715578,1.4504896,-1.25781
1747679454.8886006,0.105615765,0.24442334,0.59629285,3.2715578,1.4504896,-1.25781
1747679454.8891187,0.105615765,0.24442334,0.59629285,3.2715578,1.4504896,-1.25781
1747679454.8896365,0.105615765,0.24442334,0.59629285,3.2715578,1.4504896,-1.25781
1747679454.8901548,0.105615765,0.24442334,0.59629285,3.2715578,1.4504896,-1.25781
1747679454.8906727,0.105615765,0.24442334,0.59629285,3.2715578,1.4504896,-1.25781
1747679454.8911908,0.105615765,0.24442334,0.59629285,3.2715578,1.4504896,-1.25781
1747679454.8917356,0.105615765,0.24442334,0.59629285,3.2715578,1.4504896,-1.25781
1747679454.8922853,0.105615765,0.24442334,0.59629285,3.2257514,1.5761907,-1.2045468
1747679454.8928623,0.105615765,0.24442334,0.59629285,3.2257514,1.5761907,-1.2045468
1747679454.893394,0.06314981,0.25906676,0.51819456,3.2257514,1.5761907,-1.2045468
1747679454.8939133,0.06314981,0.25906676,0.51819456,3.2257514,1.5761907,-1.2045468
1747679454.8944454,0.06314981,0.25906676,0.51819456,3.2257514,1.5761907,-1.2045468
1747679454.8949957,0.06314981,0.25906676,0.51819456,3.2257514,1.5761907,-1.2045468
1747679454.8955615,0.06314981,0.25906676,0.51819456,3.2257514,1.5761907,-1.2045468
1747679454.8961132,0.06314981,0.25906676,0.51819456,3.2257514,1.5761907,-1.2045468
1747679454.896658,0.06314981,0.25906676,0.51819456,3.2257514,1.5761907,-1.2045468
1747679454.8971908,0.06314981,0.25906676,0.51819456,3.2257514,1.5761907,-1.2045468
1747679454.8977103,0.06314981,0.25906676,0.51819456,3.2257514,1.5761907,-1.2045468
1747679454.898229,0.06314981,0.25906676,0.51819456,3.2257514,1.5761907,-1.2045468
1747679454.8987474,0.06314981,0.25906676,0.51819456,3.2257514,1.5761907,-1.2045468
1747679454.8992653,0.06314981,0.25906676,0.51819456,3.2257514,1.5761907,-1.2045468
1747679454.8997834,0.06314981,0.25906676,0.51819456,3.2257514,1.5761907,-1.2045468
1747679454.9003015,0.06314981,0.25906676,0.51819456,3.2257514,1.5761907,-1.2045468
1747679454.9008198,0.06314981,0.25906676,0.51819456,3.2257514,1.5761907,-1.2045468
1747679454.9013376,0.06314981,0.25906676,0.51819456,3.2257514,1.5761907,-1.2045468
1747679454.9018555,0.06314981,0.25906676,0.51819456,3.2257514,1.5761907,-1.2045468
1747679454.9023738,0.06314981,0.25906676,0.51819456,3.2257514,1.5761907,-1.2045468
1747679454.9028926,0.06314981,0.25906676,0.51819456,3.2257514,1.5761907,-1.2045468
1747679454.9034107,0.06314981,0.25906676,0.51819456,3.2257514,1.5761907,-1.2045468
1747679454.9039392,0.03825597,0.2844487,0.45034662,3.2257514,1.5761907,-1.2045468
1747679454.9044693,0.03825597,0.2844487,0.45034662,3.1810105,1.5793865,-1.1544795
1747679454.9049897,0.03825597,0.2844487,0.45034662,3.1810105,1.5793865,-1.1544795
1747679454.905508,0.03825597,0.2844487,0.45034662,3.1810105,1.5793865,-1.1544795
1747679454.9060268,0.03825597,0.2844487,0.45034662,3.1810105,1.5793865,-1.1544795
1747679454.9065573,0.03825597,0.2844487,0.45034662,3.1810105,1.5793865,-1.1544795
1747679454.907125,0.03825597,0.2844487,0.45034662,3.1810105,1.5793865,-1.1544795
1747679454.9076798,0.03825597,0.2844487,0.45034662,3.1810105,1.5793865,-1.1544795
1747679454.9082258,0.03825597,0.2844487,0.45034662,3.1810105,1.5793865,-1.1544795
1747679454.908759,0.03825597,0.2844487,0.45034662,3.1810105,1.5793865,-1.1544795
1747679454.9092786,0.03825597,0.2844487,0.45034662,3.1810105,1.5793865,-1.1544795
1747679454.9097974,0.03825597,0.2844487,0.45034662,3.1810105,1.5793865,-1.1544795
1747679454.9103382,0.03825597,0.2844487,0.45034662,3.1810105,1.5793865,-1.1544795
1747679454.910881,0.03825597,0.2844487,0.45034662,3.1810105,1.5793865,-1.1544795
1747679454.911405,0.03825597,0.2844487,0.45034662,3.1810105,1.5793865,-1.1544795
1747679454.911924,0.03825597,0.2844487,0.45034662,3.1810105,1.5793865,-1.1544795
1747679454.9124422,0.03825597,0.2844487,0.45034662,3.1810105,1.5793865,-1.1544795
1747679454.9129605,0.03825597,0.2844487,0.45034662,3.1810105,1.5793865,-1.1544795
1747679454.9134781,0.03825597,0.2844487,0.45034662,3.1810105,1.5793865,-1.1544795
1747679454.9140036,0.03825597,0.2844487,0.45034662,3.1810105,1.5793865,-1.1544795
1747679454.9145305,0.03825597,0.2844487,0.45034662,3.1810105,1.5793865,-1.1544795
1747679454.9150507,0.016290821,0.3244741,0.3820106,3.0915282,1.4835128,-1.0852374
1747679454.91557,0.016290821,0.3244741,0.3820106,3.0915282,1.4835128,-1.0852374
1747679454.9160886,0.016290821,0.3244741,0.3820106,3.0915282,1.4835128,-1.0852374
1747679454.9166067,0.016290821,0.3244741,0.3820106,3.0915282,1.4835128,-1.0852374
1747679454.9171245,0.016290821,0.3244741,0.3820106,3.0915282,1.4835128,-1.0852374
1747679454.9176428,0.016290821,0.3244741,0.3820106,3.0915282,1.4835128,-1.0852374
1747679454.9181607,0.016290821,0.3244741,0.3820106,3.0915282,1.4835128,-1.0852374
1747679454.9186788,0.016290821,0.3244741,0.3820106,3.0915282,1.4835128,-1.0852374
1747679454.9191968,0.016290821,0.3244741,0.3820106,3.0915282,1.4835128,-1.0852374
1747679454.919715,0.016290821,0.3244741,0.3820106,3.0915282,1.4835128,-1.0852374
1747679454.9202325,0.016290821,0.3244741,0.3820106,3.0915282,1.4835128,-1.0852374
1747679454.9207504,0.016290821,0.3244741,0.3820106,3.0915282,1.4835128,-1.0852374
1747679454.9212685,0.016290821,0.3244741,0.3820106,3.0915282,1.4835128,-1.0852374
1747679454.9217863,0.016290821,0.3244741,0.3820106,3.0915282,1.4835128,-1.0852374
1747679454.9223042,0.016290821,0.3244741,0.3820106,3.0915282,1.4835128,-1.0852374
1747679454.9228501,0.016290821,0.3244741,0.3820106,3.0915282,1.4835128,-1.0852374
1747679454.9233906,0.016290821,0.3244741,0.3820106,2.9807408,1.3780516,-1.0127994
1747679454.9239323,0.016290821,0.3244741,0.3820106,2.9807408,1.3780516,-1.0127994
1747679454.9244652,0.016290821,0.3244741,0.3820106,2.9807408,1.3780516,-1.0127994
1747679454.9250014,0.009945333,0.34302247,0.3273418,2.9807408,1.3780516,-1.0127994
1747679454.925557,0.009945333,0.34302247,0.3273418,2.9807408,1.3780516,-1.0127994
1747679454.926116,0.009945333,0.34302247,0.3273418,2.9807408,1.3780516,-1.0127994
1747679454.9266655,0.009945333,0.34302247,0.3273418,2.9807408,1.3780516,-1.0127994
1747679454.9272215,0.009945333,0.34302247,0.3273418,2.9807408,1.3780516,-1.0127994
1747679454.9277716,0.009945333,0.34302247,0.3273418,2.9807408,1.3780516,-1.0127994
1747679454.9283168,0.009945333,0.34302247,0.3273418,2.9807408,1.3780516,-1.0127994
1747679454.9288495,0.009945333,0.34302247,0.3273418,2.9807408,1.3780516,-1.0127994
1747679454.9293852,0.009945333,0.34302247,0.3273418,2.9807408,1.3780516,-1.0127994
1747679454.9299166,0.009945333,0.34302247,0.3273418,2.9807408,1.3780516,-1.0127994
1747679454.9304483,0.009945333,0.34302247,0.3273418,2.9807408,1.3780516,-1.0127994
1747679454.9309814,0.009945333,0.34302247,0.3273418,2.9807408,1.3780516,-1.0127994
1747679454.931515,0.009945333,0.34302247,0.3273418,2.9807408,1.3780516,-1.0127994
1747679454.9320471,0.009945333,0.34302247,0.3273418,2.9807408,1.3780516,-1.0127994
1747679454.9325795,0.009945333,0.34302247,0.3273418,2.9807408,1.3780516,-1.0127994
1747679454.9331117,0.009945333,0.34302247,0.3273418,2.9807408,1.3780516,-1.0127994
1747679454.9336498,0.009945333,0.34302247,0.3273418,2.9807408,1.3780516,-1.0127994
1747679454.9341958,0.009945333,0.34302247,0.3273418,2.9807408,1.3780516,-1.0127994
1747679454.934731,0.009945333,0.34302247,0.3273418,2.9807408,1.3780516,-1.0127994
1747679454.9352672,0.009945333,0.34302247,0.3273418,2.8475828,1.2789822,-0.95634043
1747679454.9358022,0.0016473864,0.35864213,0.28878075,2.8475828,1.2789822,-0.95634043
1747679454.9363348,0.0016473864,0.35864213,0.28878075,2.8475828,1.2789822,-0.95634043
1747679454.9368696,0.0016473864,0.35864213,0.28878075,2.8475828,1.2789822,-0.95634043
1747679454.9374027,0.0016473864,0.35864213,0.28878075,2.8475828,1.2789822,-0.95634043
1747679454.937935,0.0016473864,0.35864213,0.28878075,2.8475828,1.2789822,-0.95634043
1747679454.9384701,0.0016473864,0.35864213,0.28878075,2.8475828,1.2789822,-0.95634043
1747679454.939029,0.0016473864,0.35864213,0.28878075,2.8475828,1.2789822,-0.95634043
1747679454.9395912,0.0016473864,0.35864213,0.28878075,2.8475828,1.2789822,-0.95634043
1747679454.940138,0.0016473864,0.35864213,0.28878075,2.8475828,1.2789822,-0.95634043
1747679454.9406931,0.0016473864,0.35864213,0.28878075,2.8475828,1.2789822,-0.95634043
1747679454.9412482,0.0016473864,0.35864213,0.28878075,2.8475828,1.2789822,-0.95634043
1747679454.9417882,0.0016473864,0.35864213,0.28878075,2.8475828,1.2789822,-0.95634043
1747679454.942321,0.0016473864,0.35864213,0.28878075,2.8475828,1.2789822,-0.95634043
1747679454.9428523,0.0016473864,0.35864213,0.28878075,2.8475828,1.2789822,-0.95634043
1747679454.943381,0.0016473864,0.35864213,0.28878075,2.8475828,1.2789822,-0.95634043
1747679454.9439147,0.0016473864,0.35864213,0.28878075,2.8475828,1.2789822,-0.95634043
1747679454.9444675,0.0016473864,0.35864213,0.28878075,2.8475828,1.2789822,-0.95634043
1747679454.9449909,0.0016473864,0.35864213,0.28878075,2.8475828,1.2789822,-0.95634043
1747679454.9455101,0.0016473864,0.35864213,0.28878075,2.8475828,1.2789822,-0.95634043
1747679454.9460287,-0.00030507156,0.37328556,0.26095822,2.7122943,1.2917653,-0.9041425
1747679454.9465473,-0.00030507156,0.37328556,0.26095822,2.7122943,1.2917653,-0.9041425
1747679454.947066,-0.00030507156,0.37328556,0.26095822,2.7122943,1.2917653,-0.9041425
1747679454.947584,-0.00030507156,0.37328556,0.26095822,2.7122943,1.2917653,-0.9041425
1747679454.9481022,-0.00030507156,0.37328556,0.26095822,2.7122943,1.2917653,-0.9041425
1747679454.9486203,-0.00030507156,0.37328556,0.26095822,2.7122943,1.2917653,-0.9041425
1747679454.9491384,-0.00030507156,0.37328556,0.26095822,2.7122943,1.2917653,-0.9041425
1747679454.9496572,-0.00030507156,0.37328556,0.26095822,2.7122943,1.2917653,-0.9041425
1747679454.9501753,-0.00030507156,0.37328556,0.26095822,2.7122943,1.2917653,-0.9041425
1747679454.9506934,-0.00030507156,0.37328556,0.26095822,2.7122943,1.2917653,-0.9041425
1747679454.951212,-0.00030507156,0.37328556,0.26095822,2.7122943,1.2917653,-0.9041425
1747679454.9517307,-0.00030507156,0.37328556,0.26095822,2.7122943,1.2917653,-0.9041425
1747679454.9522488,-0.00030507156,0.37328556,0.26095822,2.7122943,1.2917653,-0.9041425
1747679454.9527674,-0.0037218733,0.38011914,0.21898036,2.7122943,1.2917653,-0.9041425
1747679454.9532878,-0.0037218733,0.38011914,0.21898036,2.7122943,1.2917653,-0.9041425
1747679454.9538205,-0.0037218733,0.38011914,0.21898036,2.7122943,1.2917653,-0.9041425
1747679454.9544277,-0.0037218733,0.38011914,0.21898036,2.7122943,1.2917653,-0.9041425
1747679454.9550555,-0.0037218733,0.38011914,0.21898036,2.7122943,1.2917653,-0.9041425
1747679454.9555833,-0.0037218733,0.38011914,0.21898036,2.7122943,1.2917653,-0.9041425
1747679454.956129,-0.0037218733,0.38011914,0.21898036,2.7122943,1.2917653,-0.9041425
1747679454.9566896,-0.0037218733,0.38011914,0.21898036,2.7122943,1.2917653,-0.9041425
1747679454.9572246,-0.0037218733,0.38011914,0.21898036,2.7122943,1.2917653,-0.9041425
1747679454.9577556,-0.0037218733,0.38011914,0.21898036,2.7122943,1.2917653,-0.9041425
1747679454.958294,-0.0037218733,0.38011914,0.21898036,2.7122943,1.2917653,-0.9041425
1747679454.9588294,-0.0037218733,0.38011914,0.21898036,2.7122943,1.2917653,-0.9041425
1747679454.959351,-0.0037218733,0.38011914,0.21898036,2.7122943,1.2917653,-0.9041425
1747679454.959872,-0.0037218733,0.38011914,0.21898036,2.7122943,1.2917653,-0.9041425
1747679454.960393,-0.0037218733,0.38011914,0.21898036,2.7122943,1.2917653,-0.9041425
1747679454.9609146,-0.0037218733,0.38011914,0.21898036,2.7122943,1.2917653,-0.9041425
1747679454.9614356,-0.0037218733,0.38011914,0.21898036,2.7122943,1.2917653,-0.9041425
1747679454.9619575,-0.0037218733,0.38011914,0.21898036,2.4214773,1.5037528,-0.82318246
1747679454.9624789,-0.0037218733,0.38011914,0.21898036,2.4214773,1.5037528,-0.82318246
1747679454.9629993,-0.0037218733,0.38011914,0.21898036,2.4214773,1.5037528,-0.82318246
1747679454.9635272,-0.0037218733,0.38011914,0.21898036,2.4214773,1.5037528,-0.82318246
1747679454.9640613,-0.008114903,0.39232203,0.19213407,2.4214773,1.5037528,-0.82318246
