timestamp,acc_x,acc_y,acc_z,gyro_x,gyro_y,gyro_z
1747672370.7881324,0.19640507,0.933641,0.6163056,-0.68922555,0.40959388,-0.078430034
1747672370.7891297,0.19640507,0.933641,0.6163056,-0.68922555,0.40959388,-0.078430034
1747672370.790122,0.19640507,0.933641,0.6163056,-0.68922555,0.40959388,-0.078430034
1747672370.7911477,0.19640507,0.933641,0.6163056,-0.68922555,0.40959388,-0.078430034
1747672370.7921605,0.19640507,0.933641,0.6163056,-0.68922555,0.40959388,-0.078430034
1747672370.7935174,0.19640507,0.933641,0.6163056,-0.68922555,0.40959388,-0.078430034
1747672370.794297,0.19640507,0.933641,0.6163056,-0.68922555,0.40959388,-0.078430034
1747672370.7954187,0.09829406,0.9580467,0.6314371,-0.4101265,0.48416233,-0.1966743
1747672370.7966564,0.09829406,0.9580467,0.6314371,-0.4101265,0.48416233,-0.1966743
1747672370.801276,0.09829406,0.9580467,0.6314371,-0.4101265,0.48416233,-0.1966743
1747672370.8522947,0.04753015,0.95707047,0.35321185,-0.1757685,0.07190529,-0.0560595
1747672370.8534684,0.04753015,0.95707047,0.35321185,-0.1757685,0.07190529,-0.0560595
1747672370.8555276,-0.0022575296,0.97757137,0.3576049,-0.1757685,0.07190529,-0.0560595
1747672370.856343,-0.0022575296,0.97757137,0.3576049,-0.1757685,0.07190529,-0.0560595
1747672370.857249,-0.0022575296,0.97757137,0.3576049,-0.15126744,0.006924214,-0.036884755
1747672370.8580496,-0.0022575296,0.97757137,0.3576049,-0.15126744,0.006924214,-0.036884755
1747672370.8588254,-0.0022575296,0.97757137,0.3576049,-0.15126744,0.006924214,-0.036884755
1747672370.859593,-0.0022575296,0.97757137,0.3576049,-0.15126744,0.006924214,-0.036884755
1747672370.8603632,-0.0022575296,0.97757137,0.3576049,-0.15126744,0.006924214,-0.036884755
1747672370.8611593,-0.0022575296,0.97757137,0.3576049,-0.15126744,0.006924214,-0.036884755
1747672370.8623424,-0.0022575296,0.97757137,0.3576049,-0.15126744,0.006924214,-0.036884755
1747672370.863345,-0.0022575296,0.97757137,0.3576049,-0.15126744,0.006924214,-0.036884755
1747672370.865105,-0.0022575296,0.97757137,0.3576049,-0.15126744,0.006924214,-0.036884755
1747672370.9026954,0.02263631,0.90581846,0.3615098,-0.080960035,0.16990955,0.04087949
1747672370.9037359,0.02263631,0.90581846,0.3615098,-0.080960035,0.16990955,0.04087949
1747672370.9046547,0.02263631,0.90581846,0.3615098,-0.080960035,0.16990955,0.04087949
1747672370.905622,0.02263631,0.90581846,0.3615098,-0.080960035,0.16990955,0.04087949
1747672370.9066021,0.02263631,0.90581846,0.3615098,-0.080960035,0.16990955,0.04087949
1747672370.907446,-0.0032337585,0.9102115,0.3146508,-0.09480847,0.12516847,0.05472792
1747672370.9092648,-0.0032337585,0.9102115,0.3146508,-0.09480847,0.12516847,0.05472792
1747672370.9101973,-0.0032337585,0.9102115,0.3146508,-0.09480847,0.12516847,0.05472792
1747672370.948768,0.17053501,0.9643922,0.4996462,-0.03302317,-0.17204008,0.021704746
1747672370.9497871,0.17053501,0.9643922,0.4996462,-0.03302317,-0.17204008,0.021704746
1747672370.9507468,0.17053501,0.9643922,0.4996462,-0.03302317,-0.17204008,0.021704746
1747672370.951521,0.17053501,0.9643922,0.4996462,-0.03302317,-0.17204008,0.021704746
1747672370.9530053,0.17053501,0.9643922,0.4996462,-0.03302317,-0.17204008,0.021704746
1747672370.9538126,0.17053501,0.9643922,0.4996462,-0.03302317,-0.17204008,0.021704746
1747672370.9574046,0.12758093,0.9858693,0.45913267,0.0042610546,-0.26152223,-0.06671213
1747672370.994245,0.03972032,0.9556061,0.40641633,-0.17363797,-0.09321057,-0.100800574
1747672370.995794,-0.06766488,0.9375459,0.40055898,-0.22690116,-0.13156006,-0.040080544
1747672370.9965904,-0.06766488,0.9375459,0.40055898,-0.22690116,-0.13156006,-0.040080544
1747672370.9976802,-0.06766488,0.9375459,0.40055898,-0.22690116,-0.13156006,-0.040080544
1747672370.9984314,-0.06766488,0.9375459,0.40055898,-0.22690116,-0.13156006,-0.040080544
1747672370.9991715,-0.06766488,0.9375459,0.40055898,-0.22690116,-0.13156006,-0.040080544
1747672370.99991,-0.06766488,0.9375459,0.40055898,-0.22690116,-0.13156006,-0.040080544
1747672371.0006447,-0.06766488,0.9375459,0.40055898,-0.22690116,-0.13156006,-0.040080544
1747672371.002486,-0.06766488,0.9375459,0.40055898,-0.22690116,-0.13156006,-0.040080544
1747672371.0033064,-0.06766488,0.9375459,0.40055898,-0.22690116,-0.13156006,-0.040080544
1747672371.0441194,0.0660785,0.93901026,0.64559245,-0.1960085,-0.22849905,0.21132168
1747672371.0452626,0.0660785,0.93901026,0.64559245,-0.1960085,-0.22849905,0.21132168
1747672371.0460575,0.0660785,0.93901026,0.64559245,-0.1960085,-0.22849905,0.21132168
1747672371.0467925,0.0660785,0.93901026,0.64559245,-0.1960085,-0.22849905,0.21132168
1747672371.0475497,0.0660785,0.93901026,0.64559245,-0.1960085,-0.22849905,0.21132168
1747672371.0488715,0.0660785,0.93901026,0.64559245,-0.1960085,-0.22849905,0.21132168
1747672371.0496755,0.0660785,0.93901026,0.64559245,-0.1960085,-0.22849905,0.21132168
1747672371.0749478,0.10415143,0.9448676,0.6372945,0.19813904,-0.5075981,0.17403744
1747672371.0763247,0.10415143,0.9448676,0.6372945,0.19813904,-0.5075981,0.17403744
1747672371.0771255,0.10415143,0.9448676,0.6372945,0.19813904,-0.5075981,0.17403744
1747672371.0778978,0.10415143,0.9448676,0.6372945,0.19813904,-0.5075981,0.17403744
1747672371.0786748,0.10415143,0.9448676,0.6372945,0.19813904,-0.5075981,0.17403744
1747672371.0794804,0.07974571,0.9839168,0.3449139,0.3483412,-0.64501715,0.08881636
1747672371.080746,0.07974571,0.9839168,0.3449139,0.3483412,-0.64501715,0.08881636
1747672371.081568,0.07974571,0.9839168,0.3449139,0.3483412,-0.64501715,0.08881636
1747672371.1060324,0.062173583,0.9936791,0.32490122,0.25566328,-0.6588656,0.10053425
1747672371.1071613,0.00067115744,0.98098814,0.34003276,0.08522109,-0.6993456,0.236888
1747672371.107958,0.00067115744,0.98098814,0.34003276,0.08522109,-0.6993456,0.236888
1747672371.1087482,0.00067115744,0.98098814,0.34003276,0.08522109,-0.6993456,0.236888
1747672371.1095266,0.00067115744,0.98098814,0.34003276,0.08522109,-0.6993456,0.236888
1747672371.1102476,0.00067115744,0.98098814,0.34003276,0.08522109,-0.6993456,0.236888
1747672371.1111047,0.00067115744,0.98098814,0.34003276,0.08522109,-0.6993456,0.236888
1747672371.1119156,0.00067115744,0.98098814,0.34003276,0.08522109,-0.6993456,0.236888
1747672371.1126866,0.00067115744,0.98098814,0.34003276,0.08522109,-0.6993456,0.236888
1747672371.1371555,0.026541224,0.98050004,0.3776176,0.008522109,-0.692954,0.3306312
1747672371.1381023,0.081698164,0.9946554,0.4659663,-0.019174745,-0.73556453,0.3956123
1747672371.1388845,0.081698164,0.9946554,0.4659663,-0.019174745,-0.73556453,0.3956123
1747672371.139638,0.19591697,1.0293114,0.5982453,-0.019174745,-0.73556453,0.3956123
1747672371.140438,0.19591697,1.0293114,0.5982453,-0.019174745,-0.73556453,0.3956123
1747672371.1411657,0.19591697,1.0293114,0.5982453,-0.019174745,-0.73556453,0.3956123
1747672371.1419525,0.19591697,1.0293114,0.5982453,-0.019174745,-0.73556453,0.3956123
1747672371.14304,0.19591697,1.0293114,0.5982453,-0.019174745,-0.73556453,0.3956123
1747672371.1438353,0.19591697,1.0293114,0.5982453,-0.019174745,-0.73556453,0.3956123
1747672371.144625,0.19591697,1.0293114,0.5982453,-0.019174745,-0.73556453,0.3956123
1747672371.1701303,0.32136238,1.0546933,0.70074934,0.092677936,-0.10279794,0.1580585
1747672371.170968,0.32136238,1.0546933,0.70074934,0.092677936,-0.10279794,0.1580585
1747672371.1717355,0.32136238,1.0546933,0.70074934,0.092677936,-0.10279794,0.1580585
1747672371.172529,0.32136238,1.0546933,0.70074934,0.092677936,-0.10279794,0.1580585
1747672371.1732967,0.32136238,1.0546933,0.70074934,0.092677936,-0.10279794,0.1580585
1747672371.1740537,0.32136238,1.0546933,0.70074934,0.092677936,-0.10279794,0.1580585
1747672371.174848,0.32136238,1.0546933,0.70074934,0.092677936,-0.10279794,0.1580585
1747672371.1756423,0.32136238,1.0546933,0.70074934,0.092677936,-0.10279794,0.1580585
1747672371.2004178,0.2378948,1.0356569,0.68317723,0.23968431,-0.4085286,0.082424775
1747672371.2012415,0.2378948,1.0356569,0.68317723,0.23968431,-0.4085286,0.082424775
1747672371.2020347,0.2378948,1.0356569,0.68317723,0.23968431,-0.4085286,0.082424775
1747672371.202822,0.2378948,1.0356569,0.68317723,0.23968431,-0.4085286,0.082424775
1747672371.2037876,0.2378948,1.0356569,0.68317723,0.23968431,-0.4085286,0.082424775
1747672371.2045577,0.2378948,1.0356569,0.68317723,0.23968431,-0.4085286,0.082424775
1747672371.205337,0.2378948,1.0356569,0.68317723,0.23968431,-0.4085286,0.082424775
1747672371.2061837,0.28719437,0.99807215,0.6870822,0.30360013,-0.53529495,0.0845553
1747672371.231838,0.4302119,0.9634159,0.6617002,0.38456017,-0.46498758,0.020639483
1747672371.2327354,0.4302119,0.9634159,0.6617002,0.38456017,-0.46498758,0.020639483
1747672371.2336102,0.4302119,0.9634159,0.6617002,0.38456017,-0.46498758,0.020639483
1747672371.2343678,0.4302119,0.9634159,0.6617002,0.38456017,-0.46498758,0.020639483
1747672371.23514,0.4302119,0.9634159,0.6617002,0.38456017,-0.46498758,0.020639483
1747672371.2359169,0.4302119,0.9634159,0.6617002,0.38456017,-0.46498758,0.020639483
1747672371.2371044,0.4302119,0.9634159,0.6617002,0.38456017,-0.46498758,0.020639483
1747672371.2382925,0.4961074,0.95999914,0.6304609,0.3749728,-0.29667592,-0.09440899
1747672371.269459,0.47463033,0.9624397,0.63631827,0.35579807,-0.028229486,-0.30639645
1747672371.2713795,0.3584591,0.9477963,0.63924694,0.35686332,0.19334535,-0.40866175
1747672371.2722075,0.19445261,0.94926065,0.6275322,0.38562545,0.31691593,-0.38842174
1747672371.2729797,0.19445261,0.94926065,0.6275322,0.38562545,0.31691593,-0.38842174
1747672371.2737408,0.19445261,0.94926065,0.6275322,0.38562545,0.31691593,-0.38842174
1747672371.2745345,0.19445261,0.94926065,0.6275322,0.38562545,0.31691593,-0.38842174
1747672371.2752678,0.19445261,0.94926065,0.6275322,0.38562545,0.31691593,-0.38842174
1747672371.2759979,0.19445261,0.94926065,0.6275322,0.38562545,0.31691593,-0.38842174
1747672371.2767818,0.09438914,0.94193894,0.64949733,0.38562545,0.31691593,-0.38842174
1747672371.2776086,0.09438914,0.94193894,0.64949733,0.38562545,0.31691593,-0.38842174
1747672371.2784364,0.09438914,0.94193894,0.64949733,0.45806336,0.17949693,-0.2637859
1747672371.2792373,0.09438914,0.94193894,0.64949733,0.45806336,0.17949693,-0.2637859
1747672371.2800422,0.09438914,0.94193894,0.64949733,0.45806336,0.17949693,-0.2637859
1747672371.2808785,0.09438914,0.94193894,0.64949733,0.45806336,0.17949693,-0.2637859
1747672371.2816565,0.09438914,0.94193894,0.64949733,0.45806336,0.17949693,-0.2637859
1747672371.2824008,0.09438914,0.94193894,0.64949733,0.45806336,0.17949693,-0.2637859
1747672371.283217,0.09438914,0.94193894,0.64949733,0.45806336,0.17949693,-0.2637859
1747672371.284042,0.09438914,0.94193894,0.64949733,0.45806336,0.17949693,-0.2637859
1747672371.3150973,0.264253,0.8711623,0.56847036,0.565655,-0.22849905,-0.10506163
1747672371.3162787,0.264253,0.8711623,0.56847036,0.58269924,-0.35526544,-0.0560595
1747672371.3171108,0.3584591,0.87701976,0.507456,0.53156656,-0.34887385,-0.09653952
1747672371.3179038,0.3584591,0.87701976,0.507456,0.53156656,-0.34887385,-0.09653952
1747672371.3186867,0.3584591,0.87701976,0.507456,0.53156656,-0.34887385,-0.09653952
1747672371.3194425,0.3584591,0.87701976,0.507456,0.53156656,-0.34887385,-0.09653952
1747672371.3202088,0.3584591,0.87701976,0.507456,0.53156656,-0.34887385,-0.09653952
1747672371.320996,0.3584591,0.87701976,0.507456,0.53156656,-0.34887385,-0.09653952
1747672371.3217804,0.3584591,0.87701976,0.507456,0.53156656,-0.34887385,-0.09653952
1747672371.3225374,0.3584591,0.87701976,0.507456,0.53156656,-0.34887385,-0.09653952
1747672371.3232653,0.3584591,0.87701976,0.507456,0.53156656,-0.34887385,-0.09653952
1747672371.3239622,0.3584591,0.87701976,0.507456,0.53156656,-0.34887385,-0.09653952
1747672371.3246865,0.40043694,0.87409097,0.47328803,0.4069307,-0.09427583,-0.19134799
1747672371.3254147,0.40043694,0.87409097,0.47328803,0.4069307,-0.09427583,-0.19134799
1747672371.3261445,0.40043694,0.87409097,0.47328803,0.4069307,-0.09427583,-0.19134799
1747672371.326854,0.40043694,0.87409097,0.47328803,0.4069307,-0.09427583,-0.19134799
1747672371.32753,0.40043694,0.87409097,0.47328803,0.4069307,-0.09427583,-0.19134799
1747672371.3282025,0.40043694,0.87409097,0.47328803,0.4069307,-0.09427583,-0.19134799
1747672371.3288772,0.40043694,0.87409097,0.47328803,0.4069307,-0.09427583,-0.19134799
1747672371.3295534,0.40043694,0.87409097,0.47328803,0.4069307,-0.09427583,-0.19134799
1747672371.330312,0.40043694,0.87409097,0.47328803,0.4069307,-0.09427583,-0.19134799
1747672371.331139,0.40043694,0.87409097,0.47328803,0.4069307,-0.09427583,-0.19134799
1747672371.3620522,0.36480457,0.91362834,0.48695523,0.19174746,0.54488236,-0.4044007
1747672371.3629756,0.36480457,0.91362834,0.48695523,0.19174746,0.54488236,-0.4044007
1747672371.3639712,0.268646,0.9131402,0.520147,0.19281273,0.7014761,-0.48216495
1747672371.3647342,0.268646,0.9131402,0.520147,0.19281273,0.7014761,-0.48216495
1747672371.3654737,0.268646,0.9131402,0.520147,0.19281273,0.7014761,-0.48216495
1747672371.3662188,0.268646,0.9131402,0.520147,0.19281273,0.7014761,-0.48216495
1747672371.3669617,0.268646,0.9131402,0.520147,0.19281273,0.7014761,-0.48216495
1747672371.3677144,0.268646,0.9131402,0.520147,0.19281273,0.7014761,-0.48216495
1747672371.3684807,0.268646,0.9131402,0.520147,0.19281273,0.7014761,-0.48216495
1747672371.369764,0.268646,0.9131402,0.520147,0.19281273,0.7014761,-0.48216495
1747672371.3705041,0.09731783,0.9087472,0.52405196,0.19281273,0.7014761,-0.48216495
1747672371.371224,0.09731783,0.9087472,0.52405196,0.31744856,0.5789708,-0.50773126
1747672371.37198,0.09731783,0.9087472,0.52405196,0.31744856,0.5789708,-0.50773126
1747672371.3726883,0.09731783,0.9087472,0.52405196,0.31744856,0.5789708,-0.50773126
1747672371.3733706,0.09731783,0.9087472,0.52405196,0.31744856,0.5789708,-0.50773126
1747672371.3741174,0.09731783,0.9087472,0.52405196,0.31744856,0.5789708,-0.50773126
1747672371.3748622,0.09731783,0.9087472,0.52405196,0.45806336,0.35420015,-0.41611862
1747672371.3755608,0.09731783,0.9087472,0.52405196,0.45806336,0.35420015,-0.41611862
1747672371.3762386,0.09731783,0.9087472,0.52405196,0.45806336,0.35420015,-0.41611862
1747672371.3769841,0.09731783,0.9087472,0.52405196,0.45806336,0.35420015,-0.41611862
1747672371.3777447,0.09731783,0.9087472,0.52405196,0.45806336,0.35420015,-0.41611862
1747672371.3845687,0.09731783,0.9087472,0.52405196,0.45806336,0.35420015,-0.41611862
1747672371.4083562,-0.0315444,0.8189341,0.07840339,0.4133223,-0.04314318,-0.1466069
1747672371.4091744,0.0860912,0.801362,0.077427156,0.09054741,0.2711096,-0.00066578976
1747672371.409924,0.0860912,0.801362,0.077427156,0.09054741,0.2711096,-0.00066578976
1747672371.4107397,0.0860912,0.801362,0.077427156,0.09054741,0.2711096,-0.00066578976
1747672371.4114969,0.0860912,0.801362,0.077427156,0.09054741,0.2711096,-0.00066578976
1747672371.4122756,0.0860912,0.801362,0.077427156,0.09054741,0.2711096,-0.00066578976
1747672371.4130566,0.0860912,0.801362,0.077427156,0.09054741,0.2711096,-0.00066578976
1747672371.413822,0.0860912,0.801362,0.077427156,0.09054741,0.2711096,-0.00066578976
1747672371.414579,0.2540026,0.741812,0.23069511,0.09054741,0.2711096,-0.00066578976
1747672371.4153295,0.2540026,0.741812,0.23069511,0.09054741,0.2711096,-0.00066578976
1747672371.4161086,0.2540026,0.741812,0.23069511,-0.117179,0.46392232,-0.061385818
1747672371.4168522,0.2540026,0.741812,0.23069511,-0.117179,0.46392232,-0.061385818
1747672371.4176173,0.2540026,0.741812,0.23069511,-0.117179,0.46392232,-0.061385818
1747672371.418379,0.2540026,0.741812,0.23069511,-0.117179,0.46392232,-0.061385818
1747672371.419096,0.2540026,0.741812,0.23069511,-0.117179,0.46392232,-0.061385818
1747672371.4197936,0.2540026,0.741812,0.23069511,-0.117179,0.46392232,-0.061385818
1747672371.4205737,0.2540026,0.741812,0.23069511,-0.117179,0.46392232,-0.061385818
1747672371.4213305,0.2540026,0.741812,0.23069511,-0.117179,0.46392232,-0.061385818
1747672371.4220436,0.2540026,0.741812,0.23069511,-0.117179,0.46392232,-0.061385818
1747672371.4227512,0.2540026,0.741812,0.23069511,-0.117179,0.46392232,-0.061385818
1747672371.4235406,0.2540026,0.741812,0.23069511,-0.117179,0.46392232,-0.061385818
1747672371.4243658,0.2540026,0.741812,0.23069511,-0.117179,0.46392232,-0.061385818
1747672371.4251573,0.2540026,0.741812,0.23069511,-0.117179,0.46392232,-0.061385818
1747672371.4260306,0.2540026,0.741812,0.23069511,-0.117179,0.46392232,-0.061385818
1747672371.4267733,0.2540026,0.741812,0.23069511,-0.117179,0.46392232,-0.061385818
1747672371.4275522,0.2540026,0.741812,0.23069511,-0.117179,0.46392232,-0.061385818
1747672371.428329,0.2540026,0.741812,0.23069511,-0.117179,0.46392232,-0.061385818
1747672371.4290717,0.2540026,0.741812,0.23069511,-0.117179,0.46392232,-0.061385818
1747672371.4298756,0.3360058,0.7823255,0.29659057,-0.20026956,0.58962345,-0.23608905
1747672371.4306595,0.3360058,0.7823255,0.29659057,-0.20026956,0.58962345,-0.23608905
1747672371.4314072,0.3360058,0.7823255,0.29659057,-0.20026956,0.58962345,-0.23608905
1747672371.432113,0.3360058,0.7823255,0.29659057,-0.20026956,0.58962345,-0.23608905
1747672371.4328105,0.3360058,0.7823255,0.29659057,-0.20026956,0.58962345,-0.23608905
1747672371.4335046,0.3360058,0.7823255,0.29659057,-0.20026956,0.58962345,-0.23608905
1747672371.4341993,0.3360058,0.7823255,0.29659057,-0.20026956,0.58962345,-0.23608905
1747672371.4348958,0.3360058,0.7823255,0.29659057,-0.20026956,0.58962345,-0.23608905
1747672371.435619,0.3360058,0.7823255,0.29659057,-0.20026956,0.58962345,-0.23608905
1747672371.4363651,0.3360058,0.7823255,0.29659057,-0.20026956,0.58962345,-0.23608905
1747672371.4370937,0.3360058,0.7823255,0.29659057,-0.20026956,0.58962345,-0.23608905
1747672371.4378252,0.3360058,0.7823255,0.29659057,-0.20026956,0.58962345,-0.23608905
1747672371.4385433,0.3360058,0.7823255,0.29659057,-0.20026956,0.58962345,-0.23608905
1747672371.439289,0.3360058,0.7823255,0.29659057,-0.20026956,0.58962345,-0.23608905
1747672371.4400306,0.3360058,0.7823255,0.29659057,-0.20026956,0.58962345,-0.23608905
1747672371.4407668,0.3360058,0.7823255,0.29659057,-0.20026956,0.58962345,-0.23608905
1747672371.4420485,0.3360058,0.7823255,0.29659057,-0.20026956,0.58962345,-0.23608905
1747672371.442912,0.3360058,0.7823255,0.29659057,-0.20026956,0.58962345,-0.23608905
1747672371.4437082,0.26766977,0.8067312,0.3917729,-0.20133483,0.72704244,-0.48749128
1747672371.4451396,0.26766977,0.8067312,0.3917729,-0.20133483,0.72704244,-0.48749128
1747672371.446326,0.26766977,0.8067312,0.3917729,-0.20133483,0.72704244,-0.48749128
1747672371.4472623,0.26766977,0.8067312,0.3917729,-0.20133483,0.72704244,-0.48749128
1747672371.4480295,0.26766977,0.8067312,0.3917729,-0.20133483,0.72704244,-0.48749128
1747672371.44882,0.26766977,0.8067312,0.3917729,-0.20133483,0.72704244,-0.48749128
1747672371.4496548,0.09682971,0.8404111,0.40397575,-0.20133483,0.72704244,-0.48749128
1747672371.4504397,0.09682971,0.8404111,0.40397575,-0.11611374,0.6546045,-0.6089313
1747672371.4511986,0.09682971,0.8404111,0.40397575,-0.11611374,0.6546045,-0.6089313
1747672371.4528804,0.09682971,0.8404111,0.40397575,-0.11611374,0.6546045,-0.6089313
1747672371.4537625,0.09682971,0.8404111,0.40397575,-0.11611374,0.6546045,-0.6089313
1747672371.4549878,0.09682971,0.8404111,0.40397575,-0.11611374,0.6546045,-0.6089313
1747672371.456083,0.09682971,0.8404111,0.40397575,-0.11611374,0.6546045,-0.6089313
1747672371.456885,0.09682971,0.8404111,0.40397575,-0.11611374,0.6546045,-0.6089313
1747672371.4576821,0.09682971,0.8404111,0.40397575,-0.11611374,0.6546045,-0.6089313
1747672371.458851,-0.14185826,0.8506615,0.37517703,-0.042610545,0.5566003,-0.5247755
1747672371.4598432,-0.14185826,0.8506615,0.37517703,-0.042610545,0.5566003,-0.5247755
1747672371.4606657,-0.14185826,0.8506615,0.37517703,-0.042610545,0.5566003,-0.5247755
1747672371.4615936,-0.14185826,0.8506615,0.37517703,-0.042610545,0.5566003,-0.5247755
1747672371.4623878,-0.14185826,0.8506615,0.37517703,-0.042610545,0.5566003,-0.5247755
1747672371.46324,-0.14185826,0.8506615,0.37517703,-0.042610545,0.5566003,-0.5247755
1747672371.4647398,-0.14185826,0.8506615,0.37517703,-0.042610545,0.5566003,-0.5247755
1747672371.4655328,-0.14185826,0.8506615,0.37517703,-0.042610545,0.5566003,-0.5247755
1747672371.466323,-0.14185826,0.8506615,0.37517703,-0.042610545,0.5566003,-0.5247755
1747672371.4672291,-0.14185826,0.8506615,0.37517703,-0.042610545,0.5566003,-0.5247755
1747672371.4687657,-0.27853033,0.8174698,0.37322453,0.051132657,0.32437277,-0.27337328
1747672371.4698184,-0.27853033,0.8174698,0.37322453,0.051132657,0.32437277,-0.27337328
1747672371.47107,-0.27853033,0.8174698,0.37322453,0.051132657,0.32437277,-0.27337328
1747672371.4718547,-0.27853033,0.8174698,0.37322453,0.051132657,0.32437277,-0.27337328
1747672371.4726624,-0.27853033,0.8174698,0.37322453,0.051132657,0.32437277,-0.27337328
1747672371.473758,-0.27853033,0.8174698,0.37322453,0.051132657,0.32437277,-0.27337328
1747672371.474546,-0.27853033,0.8174698,0.37322453,0.051132657,0.32437277,-0.27337328
1747672371.4753125,-0.27853033,0.8174698,0.37322453,0.051132657,0.32437277,-0.27337328
1747672371.4760494,-0.27853033,0.8174698,0.37322453,0.051132657,0.32437277,-0.27337328
1747672371.4767983,-0.27853033,0.8174698,0.37322453,0.051132657,0.32437277,-0.27337328
1747672371.4775143,-0.27853033,0.8174698,0.37322453,0.051132657,0.32437277,-0.27337328
1747672371.478202,-0.27853033,0.8174698,0.37322453,0.051132657,0.32437277,-0.27337328
1747672371.4788957,-0.27853033,0.8174698,0.37322453,0.051132657,0.32437277,-0.27337328
1747672371.4796302,-0.27804223,0.75303864,0.3278299,0.051132657,0.32437277,-0.27337328
1747672371.4803689,-0.27804223,0.75303864,0.3278299,0.17470324,-0.013315796,0.072837405
1747672371.4810874,-0.27804223,0.75303864,0.3278299,0.17470324,-0.013315796,0.072837405
1747672371.4817774,-0.27804223,0.75303864,0.3278299,0.17470324,-0.013315796,0.072837405
1747672371.4824672,-0.27804223,0.75303864,0.3278299,0.17470324,-0.013315796,0.072837405
1747672371.4831524,-0.27804223,0.75303864,0.3278299,0.17470324,-0.013315796,0.072837405
1747672371.4838395,-0.27804223,0.75303864,0.3278299,0.17470324,-0.013315796,0.072837405
1747672371.484558,-0.27804223,0.75303864,0.3278299,0.17470324,-0.013315796,0.072837405
1747672371.4852836,-0.27804223,0.75303864,0.3278299,0.17470324,-0.013315796,0.072837405
1747672371.4860346,-0.27804223,0.75303864,0.3278299,0.17470324,-0.013315796,0.072837405
1747672371.486779,-0.27804223,0.75303864,0.3278299,0.17470324,-0.013315796,0.072837405
1747672371.4874775,-0.27804223,0.75303864,0.3278299,0.17470324,-0.013315796,0.072837405
1747672371.4881852,-0.27804223,0.75303864,0.3278299,0.17470324,-0.013315796,0.072837405
1747672371.4890263,-0.27804223,0.75303864,0.3278299,0.17470324,-0.013315796,0.072837405
1747672371.4898124,-0.16919269,0.72570425,0.27804223,0.26738116,-0.21358536,0.31678277
1747672371.4905756,-0.16919269,0.72570425,0.27804223,0.26738116,-0.21358536,0.31678277
1747672371.4913661,-0.16919269,0.72570425,0.27804223,0.26738116,-0.21358536,0.31678277
1747672371.4921498,-0.16919269,0.72570425,0.27804223,0.26738116,-0.21358536,0.31678277
1747672371.4929514,-0.16919269,0.72570425,0.27804223,0.26738116,-0.21358536,0.31678277
1747672371.4934802,-0.16919269,0.72570425,0.27804223,0.26738116,-0.21358536,0.31678277
1747672371.494203,-0.16919269,0.72570425,0.27804223,0.26738116,-0.21358536,0.31678277
1747672371.4949355,-0.16919269,0.72570425,0.27804223,0.26738116,-0.21358536,0.31678277
1747672371.4956713,-0.16919269,0.72570425,0.27804223,0.26738116,-0.21358536,0.31678277
1747672371.4963834,-0.16919269,0.72570425,0.27804223,0.26738116,-0.21358536,0.31678277
1747672371.4986413,0.026541224,0.724728,0.19164595,0.30146962,-0.34567806,0.43928808
1747672371.4997332,0.026541224,0.724728,0.19164595,0.30146962,-0.34567806,0.43928808
1747672371.5007963,0.026541224,0.724728,0.19164595,0.30146962,-0.34567806,0.43928808
1747672371.5074506,0.026541224,0.724728,0.19164595,0.30146962,-0.34567806,0.43928808
1747672371.5082088,0.026541224,0.724728,0.19164595,0.30146962,-0.34567806,0.43928808
1747672371.5090604,0.17102312,0.73009723,0.118428774,0.2727075,-0.39148438,0.41159123
1747672371.5098794,0.17102312,0.73009723,0.118428774,0.2727075,-0.39148438,0.41159123
1747672371.5107,0.17102312,0.73009723,0.118428774,0.2727075,-0.39148438,0.41159123
1747672371.511492,0.17102312,0.73009723,0.118428774,0.2727075,-0.39148438,0.41159123
1747672371.512285,0.17102312,0.73009723,0.118428774,0.2727075,-0.39148438,0.41159123
1747672371.5133386,0.17102312,0.73009723,0.118428774,0.2727075,-0.39148438,0.41159123
1747672371.5141702,0.17102312,0.73009723,0.118428774,0.2727075,-0.39148438,0.41159123
1747672371.5159035,0.32136238,0.74766934,0.07937962,0.14274533,-0.2508696,0.24221432
1747672371.516895,0.32136238,0.74766934,0.07937962,0.14274533,-0.2508696,0.24221432
1747672371.5180945,0.32136238,0.74766934,0.07937962,0.14274533,-0.2508696,0.24221432
1747672371.5188851,0.32136238,0.74766934,0.07937962,0.14274533,-0.2508696,0.24221432
1747672371.519786,0.32136238,0.74766934,0.07937962,0.14274533,-0.2508696,0.24221432
1747672371.5207224,0.32136238,0.74766934,0.07937962,0.14274533,-0.2508696,0.24221432
1747672371.5215824,0.32136238,0.74766934,0.07937962,0.14274533,-0.2508696,0.24221432
1747672371.5226014,0.32136238,0.74766934,0.07937962,0.14274533,-0.2508696,0.24221432
1747672371.5252295,0.32136238,0.74766934,0.07937962,0.14274533,-0.2508696,0.24221432
1747672371.526076,0.32136238,0.74766934,0.07937962,0.14274533,-0.2508696,0.24221432
1747672371.5268617,0.32136238,0.74766934,0.07937962,0.14274533,-0.2508696,0.24221432
1747672371.527673,0.32136238,0.74766934,0.07937962,0.14274533,-0.2508696,0.24221432
1747672371.5290506,0.32136238,0.74766934,0.07937962,0.14274533,-0.2508696,0.24221432
1747672371.529882,0.37212628,0.74522877,0.071569785,0.008522109,-0.0005326318,0.07390267
1747672371.5306752,0.37212628,0.74522877,0.071569785,0.008522109,-0.0005326318,0.07390267
1747672371.5314384,0.37212628,0.74522877,0.071569785,0.008522109,-0.0005326318,0.07390267
1747672371.5321674,0.37212628,0.74522877,0.071569785,0.008522109,-0.0005326318,0.07390267
1747672371.5329328,0.37212628,0.74522877,0.071569785,0.008522109,-0.0005326318,0.07390267
1747672371.533666,0.37212628,0.74522877,0.071569785,0.008522109,-0.0005326318,0.07390267
1747672371.536191,0.3823767,0.73595464,0.111595176,0.008522109,-0.0005326318,0.07390267
1747672371.5373807,0.3823767,0.73595464,0.111595176,-0.16192007,0.3094591,-0.23715432
1747672371.5381715,0.3823767,0.73595464,0.111595176,-0.16192007,0.3094591,-0.23715432
1747672371.539001,0.3823767,0.73595464,0.111595176,-0.16192007,0.3094591,-0.23715432
1747672371.539888,0.3823767,0.73595464,0.111595176,-0.16192007,0.3094591,-0.23715432
1747672371.5408251,0.3823767,0.73595464,0.111595176,-0.16192007,0.3094591,-0.23715432
1747672371.5415883,0.3823767,0.73595464,0.111595176,-0.16192007,0.3094591,-0.23715432
1747672371.5423877,0.3823767,0.73595464,0.111595176,-0.16192007,0.3094591,-0.23715432
1747672371.5431964,0.3823767,0.73595464,0.111595176,-0.16192007,0.3094591,-0.23715432
1747672371.5439577,0.3823767,0.73595464,0.111595176,-0.16192007,0.3094591,-0.23715432
1747672371.544723,0.3823767,0.73595464,0.111595176,-0.16192007,0.3094591,-0.23715432
1747672371.5454838,0.3823767,0.73595464,0.111595176,-0.16192007,0.3094591,-0.23715432
1747672371.546249,0.3823767,0.73595464,0.111595176,-0.16192007,0.3094591,-0.23715432
1747672371.5471025,0.328196,0.7686583,0.15162057,-0.16192007,0.3094591,-0.23715432
1747672371.5480754,0.328196,0.7686583,0.15162057,-0.16192007,0.3094591,-0.23715432
1747672371.5553856,0.328196,0.7686583,0.15162057,-0.19707377,0.27856645,-0.47577336
1747672371.5585961,0.328196,0.7686583,0.15162057,-0.19707377,0.27856645,-0.47577336
1747672371.5595028,0.328196,0.7686583,0.15162057,-0.19707377,0.27856645,-0.47577336
1747672371.560267,0.328196,0.7686583,0.15162057,-0.19707377,0.27856645,-0.47577336
1747672371.5610292,0.26376486,0.7862304,0.13307221,-0.1874864,0.17204008,-0.6046703
1747672371.56275,0.26376486,0.7862304,0.13307221,-0.1874864,0.17204008,-0.6046703
1747672371.56368,0.26376486,0.7862304,0.13307221,-0.1874864,0.17204008,-0.6046703
1747672371.564897,0.26376486,0.7862304,0.13307221,-0.1874864,0.17204008,-0.6046703
1747672371.5657957,0.26376486,0.7862304,0.13307221,-0.1874864,0.17204008,-0.6046703
1747672371.5666716,0.26376486,0.7862304,0.13307221,-0.1874864,0.17204008,-0.6046703
1747672371.5674667,0.26376486,0.7862304,0.13307221,-0.1874864,0.17204008,-0.6046703
1747672371.5682366,0.06168547,0.81307673,0.11452386,-0.1874864,0.17204008,-0.6046703
1747672371.5690181,0.06168547,0.81307673,0.11452386,-0.20559588,-0.0005326318,-0.7388935
1747672371.5698159,0.06168547,0.81307673,0.11452386,-0.20559588,-0.0005326318,-0.7388935
1747672371.5705943,0.06168547,0.81307673,0.11452386,-0.20559588,-0.0005326318,-0.7388935
1747672371.5713255,0.06168547,0.81307673,0.11452386,-0.20559588,-0.0005326318,-0.7388935
1747672371.5720515,0.06168547,0.81307673,0.11452386,-0.20559588,-0.0005326318,-0.7388935
1747672371.5727544,0.06168547,0.81307673,0.11452386,-0.20559588,-0.0005326318,-0.7388935
1747672371.573454,0.06168547,0.81307673,0.11452386,-0.20559588,-0.0005326318,-0.7388935
1747672371.577221,0.06168547,0.81307673,0.11452386,-0.20559588,-0.0005326318,-0.7388935
1747672371.5780783,0.06168547,0.81307673,0.11452386,-0.20559588,-0.0005326318,-0.7388935
1747672371.5789084,0.06168547,0.81307673,0.11452386,-0.20559588,-0.0005326318,-0.7388935
1747672371.5828154,-0.094511166,0.84480417,0.14429885,-0.23755379,-0.0005326318,-0.67071664
1747672371.5914211,-0.094511166,0.84480417,0.14429885,-0.23755379,-0.0005326318,-0.67071664
1747672371.5925632,-0.094511166,0.84480417,0.14429885,-0.23755379,-0.0005326318,-0.67071664
1747672371.5993972,-0.13941771,0.8682336,0.24240986,-0.18002956,-0.10279794,-0.2669817
1747672371.601494,-0.13941771,0.8682336,0.24240986,-0.18002956,-0.10279794,-0.2669817
1747672371.6037588,-0.13941771,0.8682336,0.24240986,-0.18002956,-0.10279794,-0.2669817
1747672371.604718,-0.13941771,0.8682336,0.24240986,-0.18002956,-0.10279794,-0.2669817
1747672371.6060102,-0.13941771,0.8682336,0.24240986,-0.18002956,-0.10279794,-0.2669817
1747672371.6071157,-0.09646362,1.0551815,0.30976966,-0.080960035,-0.19334535,-0.17963009
1747672371.6078894,-0.09646362,1.0551815,0.30976966,-0.080960035,-0.19334535,-0.17963009
1747672371.6086419,-0.09646362,1.0551815,0.30976966,-0.080960035,-0.19334535,-0.17963009
1747672371.6094232,-0.09646362,1.0551815,0.30976966,-0.080960035,-0.19334535,-0.17963009
1747672371.610185,-0.09646362,1.0551815,0.30976966,-0.080960035,-0.19334535,-0.17963009
1747672371.6109495,-0.09646362,1.0551815,0.30976966,-0.080960035,-0.19334535,-0.17963009
1747672371.6116877,-0.09646362,1.0551815,0.30976966,-0.080960035,-0.19334535,-0.17963009
1747672371.6124434,-0.09646362,1.0551815,0.30976966,-0.080960035,-0.19334535,-0.17963009
1747672371.6132674,-0.09646362,1.0551815,0.30976966,-0.080960035,-0.19334535,-0.17963009
1747672371.6161306,-0.09646362,1.0551815,0.30976966,-0.080960035,-0.19334535,-0.17963009
1747672371.6195006,-0.09646362,1.0551815,0.30976966,-0.080960035,-0.19334535,-0.17963009
1747672371.6203141,0.03337483,0.9844049,0.2838996,0.14700638,-0.48522758,-0.101865835
1747672371.6211054,0.03337483,0.9844049,0.2838996,0.14700638,-0.48522758,-0.101865835
1747672371.6218717,0.03337483,0.9844049,0.2838996,0.14700638,-0.48522758,-0.101865835
1747672371.6226494,0.03337483,0.9844049,0.2838996,0.14700638,-0.48522758,-0.101865835
1747672371.6234212,0.03337483,0.9844049,0.2838996,0.14700638,-0.48522758,-0.101865835
1747672371.624213,0.03337483,0.9844049,0.2838996,0.14700638,-0.48522758,-0.101865835
1747672371.6261642,0.03337483,0.9844049,0.2838996,0.14700638,-0.48522758,-0.101865835
1747672371.6271703,0.03337483,0.9844049,0.2838996,0.14700638,-0.48522758,-0.101865835
1747672371.6279728,0.03337483,0.9844049,0.2838996,0.14700638,-0.48522758,-0.101865835
1747672371.6288984,0.03337483,0.9844049,0.2838996,0.14700638,-0.48522758,-0.101865835
1747672371.6310463,0.13295019,0.97366637,0.20921808,0.25885907,-0.7600656,-0.17004271
1747672371.632742,0.13295019,0.97366637,0.20921808,0.25885907,-0.7600656,-0.17004271
1747672371.6336005,0.13295019,0.97366637,0.20921808,0.25885907,-0.7600656,-0.17004271
1747672371.6344287,0.13295019,0.97366637,0.20921808,0.25885907,-0.7600656,-0.17004271
1747672371.6354725,0.09536537,0.972202,0.12184558,0.29827383,-0.8356993,-0.3106575
1747672371.6374733,0.09536537,0.972202,0.12184558,0.29827383,-0.8356993,-0.3106575
1747672371.6384976,0.09536537,0.972202,0.12184558,0.29827383,-0.8356993,-0.3106575
1747672371.6394053,0.09536537,0.972202,0.12184558,0.29827383,-0.8356993,-0.3106575
1747672371.6407979,0.09536537,0.972202,0.12184558,0.29827383,-0.8356993,-0.3106575
1747672371.6420417,0.09536537,0.972202,0.12184558,0.29827383,-0.8356993,-0.3106575
1747672371.6430244,0.09536537,0.972202,0.12184558,0.29827383,-0.8356993,-0.3106575
1747672371.6441069,0.09536537,0.972202,0.12184558,0.13741902,-0.3382212,-0.33941963
1747672371.6453655,0.0831625,0.9106996,-0.013362135,0.13741902,-0.3382212,-0.33941963
1747672371.6468937,0.0831625,0.9106996,-0.013362135,0.13741902,-0.3382212,-0.33941963
1747672371.647926,0.0831625,0.9106996,-0.013362135,0.13741902,-0.3382212,-0.33941963
1747672371.6488461,0.0831625,0.9106996,-0.013362135,0.13741902,-0.3382212,-0.33941963
1747672371.6497126,0.0831625,0.9106996,-0.013362135,0.13741902,-0.3382212,-0.33941963
1747672371.6504898,0.0831625,0.9106996,-0.013362135,0.13741902,-0.3382212,-0.33941963
1747672371.6512635,0.0831625,0.9106996,-0.013362135,0.13741902,-0.3382212,-0.33941963
1747672371.651985,0.0831625,0.9106996,-0.013362135,0.13741902,-0.3382212,-0.33941963
1747672371.652693,0.0831625,0.9106996,-0.013362135,0.13741902,-0.3382212,-0.33941963
1747672371.6539946,0.0831625,0.9106996,-0.013362135,0.13741902,-0.3382212,-0.33941963
1747672371.6548736,0.0831625,0.9106996,-0.013362135,0.13741902,-0.3382212,-0.33941963
1747672371.655683,0.011409677,0.8174698,-0.008480989,-0.19813904,0.7707182,-0.42037967
1747672371.656487,0.011409677,0.8174698,-0.008480989,-0.19813904,0.7707182,-0.42037967
1747672371.6572661,0.011409677,0.8174698,-0.008480989,-0.19813904,0.7707182,-0.42037967
1747672371.6590643,0.011409677,0.8174698,-0.008480989,-0.19813904,0.7707182,-0.42037967
1747672371.6604297,0.011409677,0.8174698,-0.008480989,-0.19813904,0.7707182,-0.42037967
1747672371.6612895,0.011409677,0.8174698,-0.008480989,-0.19813904,0.7707182,-0.42037967
1747672371.662501,0.011409677,0.8174698,-0.008480989,-0.19813904,0.7707182,-0.42037967
1747672371.6638901,0.011409677,0.8174698,-0.008480989,-0.19813904,0.7707182,-0.42037967
1747672371.6650164,0.011409677,0.8174698,-0.008480989,-0.19813904,0.7707182,-0.42037967
1747672371.6661549,0.011409677,0.8174698,-0.008480989,-0.19813904,0.7707182,-0.42037967
1747672371.6672492,0.011409677,0.8174698,-0.008480989,-0.19813904,0.7707182,-0.42037967
1747672371.6683075,0.011409677,0.8174698,-0.008480989,-0.19813904,0.7707182,-0.42037967
1747672371.6690829,0.011409677,0.8174698,-0.008480989,-0.19813904,0.7707182,-0.42037967
1747672371.6700811,-0.055950124,0.8672574,0.00030507156,-0.19813904,0.7707182,-0.42037967
1747672371.6708648,-0.055950124,0.8672574,0.00030507156,-0.19813904,0.7707182,-0.42037967
1747672371.6728213,-0.055950124,0.8672574,0.00030507156,-0.19813904,0.7707182,-0.42037967
1747672371.6741838,-0.055950124,0.8672574,0.00030507156,-0.35792857,1.1595395,-0.42144492
1747672371.6751664,-0.055950124,0.8672574,0.00030507156,-0.35792857,1.1595395,-0.42144492
1747672371.677429,-0.055950124,0.8672574,0.00030507156,-0.35792857,1.1595395,-0.42144492
1747672371.6783056,-0.055950124,0.8672574,0.00030507156,-0.35792857,1.1595395,-0.42144492
1747672371.679378,-0.26681557,1.014668,0.12477427,-0.5539371,1.5686007,-0.3319628
1747672371.680394,-0.26681557,1.014668,0.12477427,-0.5539371,1.5686007,-0.3319628
1747672371.6812117,-0.26681557,1.014668,0.12477427,-0.5539371,1.5686007,-0.3319628
1747672371.6820066,-0.26681557,1.014668,0.12477427,-0.5539371,1.5686007,-0.3319628
1747672371.6828177,-0.26681557,1.014668,0.12477427,-0.5539371,1.5686007,-0.3319628
1747672371.6839075,-0.26681557,1.014668,0.12477427,-0.5539371,1.5686007,-0.3319628
1747672371.684991,-0.26681557,1.014668,0.12477427,-0.5539371,1.5686007,-0.3319628
1747672371.6859057,-0.26681557,1.014668,0.12477427,-0.5539371,1.5686007,-0.3319628
1747672371.6879013,-0.26681557,1.014668,0.12477427,-0.5539371,1.5686007,-0.3319628
1747672371.6887126,-0.28145903,1.082516,0.23996928,-0.5273055,1.3470259,-0.1966743
1747672371.6895025,-0.28145903,1.082516,0.23996928,-0.5273055,1.3470259,-0.1966743
1747672371.6902688,-0.28145903,1.082516,0.23996928,-0.5273055,1.3470259,-0.1966743
1747672371.6910236,-0.28145903,1.082516,0.23996928,-0.5273055,1.3470259,-0.1966743
1747672371.691835,-0.28145903,1.082516,0.23996928,-0.5273055,1.3470259,-0.1966743
1747672371.692587,-0.28145903,1.082516,0.23996928,-0.5273055,1.3470259,-0.1966743
1747672371.6933286,-0.28145903,1.082516,0.23996928,-0.5273055,1.3470259,-0.1966743
1747672371.6943328,-0.28145903,1.082516,0.23996928,-0.5273055,1.3470259,-0.1966743
1747672371.695339,-0.28145903,1.082516,0.23996928,-0.5273055,1.3470259,-0.1966743
1747672371.696337,-0.28145903,1.082516,0.23996928,-0.5273055,1.3470259,-0.1966743
1747672371.6973755,-0.20531316,1.1088741,0.3244131,-0.31744856,0.7664572,-0.0677774
1747672371.6983416,-0.20531316,1.1088741,0.3244131,-0.31744856,0.7664572,-0.0677774
1747672371.6993375,-0.20531316,1.1088741,0.3244131,-0.31744856,0.7664572,-0.0677774
1747672371.7000523,-0.20531316,1.1088741,0.3244131,-0.31744856,0.7664572,-0.0677774
1747672371.7007582,-0.20531316,1.1088741,0.3244131,-0.31744856,0.7664572,-0.0677774
1747672371.7014701,-0.20531316,1.1088741,0.3244131,-0.31744856,0.7664572,-0.0677774
1747672371.702177,-0.20531316,1.1088741,0.3244131,-0.31744856,0.7664572,-0.0677774
1747672371.702875,-0.20531316,1.1088741,0.3244131,-0.31744856,0.7664572,-0.0677774
1747672371.7035894,-0.20531316,1.1088741,0.3244131,-0.31744856,0.7664572,-0.0677774
1747672371.7043347,-0.15357302,1.117172,0.35418808,-0.31744856,0.7664572,-0.0677774
1747672371.7050965,-0.15357302,1.117172,0.35418808,-0.12250532,0.39894122,-0.039015282
1747672371.705864,-0.15357302,1.117172,0.35418808,-0.12250532,0.39894122,-0.039015282
1747672371.706798,-0.15357302,1.117172,0.35418808,-0.12250532,0.39894122,-0.039015282
1747672371.7089663,-0.15357302,1.117172,0.35418808,-0.12250532,0.39894122,-0.039015282
1747672371.7098048,-0.15357302,1.117172,0.35418808,-0.12250532,0.39894122,-0.039015282
1747672371.7106006,-0.15357302,1.117172,0.35418808,-0.12250532,0.39894122,-0.039015282
1747672371.711636,-0.15357302,1.117172,0.35418808,-0.12250532,0.39894122,-0.039015282
1747672371.712436,-0.15357302,1.117172,0.35418808,-0.12250532,0.39894122,-0.039015282
1747672371.7132428,-0.15357302,1.117172,0.35418808,-0.12250532,0.39894122,-0.039015282
1747672371.7141645,-0.15357302,1.117172,0.35418808,-0.12250532,0.39894122,-0.039015282
1747672371.7153113,-0.15357302,1.117172,0.35418808,-0.12250532,0.39894122,-0.039015282
1747672371.7163997,-0.15357302,1.117172,0.35418808,-0.12250532,0.39894122,-0.039015282
1747672371.7174652,-0.15357302,1.117172,0.35418808,-0.12250532,0.39894122,-0.039015282
1747672371.7184768,-0.094511166,1.1308392,0.33417538,0.16724639,0.023968432,-0.02410159
1747672371.7195027,-0.094511166,1.1308392,0.33417538,0.16724639,0.023968432,-0.02410159
1747672371.7202797,-0.094511166,1.1308392,0.33417538,0.16724639,0.023968432,-0.02410159
1747672371.7215447,-0.094511166,1.1308392,0.33417538,0.16724639,0.023968432,-0.02410159
1747672371.7229042,-0.094511166,1.1308392,0.33417538,0.16724639,0.023968432,-0.02410159
1747672371.7237277,-0.094511166,1.1308392,0.33417538,0.16724639,0.023968432,-0.02410159
1747672371.7251182,-0.094511166,1.1308392,0.33417538,0.16724639,0.023968432,-0.02410159
1747672371.726323,-0.047652178,1.12547,0.25217217,0.30999172,-0.022903169,-0.04860265
1747672371.7273042,-0.047652178,1.12547,0.25217217,0.30999172,-0.022903169,-0.04860265
1747672371.7282825,-0.047652178,1.12547,0.25217217,0.30999172,-0.022903169,-0.04860265
1747672371.7292871,-0.047652178,1.12547,0.25217217,0.30999172,-0.022903169,-0.04860265
1747672371.7302105,-0.047652178,1.12547,0.25217217,0.30999172,-0.022903169,-0.04860265
1747672371.7309928,-0.047652178,1.12547,0.25217217,0.30999172,-0.022903169,-0.04860265
1747672371.7320442,-0.047652178,1.12547,0.25217217,0.30999172,-0.022903169,-0.04860265
1747672371.7329552,-0.047652178,1.12547,0.25217217,0.30999172,-0.022903169,-0.04860265
1747672371.7339666,-0.047652178,1.12547,0.25217217,0.30999172,-0.022903169,-0.04860265
1747672371.7367566,-0.03935423,1.1030167,0.11061895,0.39627808,0.04101265,-0.11038794
1747672371.7377565,-0.03935423,1.1030167,0.11061895,0.39627808,0.04101265,-0.11038794
1747672371.738544,-0.03935423,1.1030167,0.11061895,0.39627808,0.04101265,-0.11038794
1747672371.739355,-0.03935423,1.1030167,0.11061895,0.39627808,0.04101265,-0.11038794
1747672371.7401469,-0.03935423,1.1030167,0.11061895,0.39627808,0.04101265,-0.11038794
1747672371.740975,-0.03935423,1.1030167,0.11061895,0.39627808,0.04101265,-0.11038794
1747672371.7417402,-0.03935423,1.1030167,0.11061895,0.39627808,0.04101265,-0.11038794
1747672371.7425094,-0.03935423,1.1030167,0.11061895,0.39627808,0.04101265,-0.11038794
1747672371.7432292,-0.03935423,1.1030167,0.11061895,0.39627808,0.04101265,-0.11038794
1747672371.743934,-0.03935423,1.1030167,0.11061895,0.39627808,0.04101265,-0.11038794
1747672371.744677,-0.03935423,1.1030167,0.11061895,0.39627808,0.04101265,-0.11038794
1747672371.7454038,-0.03935423,1.1030167,0.11061895,0.39627808,0.04101265,-0.11038794
1747672371.7461343,-0.03935423,1.1030167,0.11061895,0.3483412,0.12197269,-0.1966743
1747672371.7468731,-0.14722754,1.1161958,-0.08999611,0.3483412,0.12197269,-0.1966743
1747672371.7475882,-0.14722754,1.1161958,-0.08999611,0.3483412,0.12197269,-0.1966743
1747672371.7483306,-0.14722754,1.1161958,-0.08999611,0.3483412,0.12197269,-0.1966743
1747672371.7490656,-0.14722754,1.1161958,-0.08999611,0.3483412,0.12197269,-0.1966743
1747672371.7497668,-0.14722754,1.1161958,-0.08999611,0.3483412,0.12197269,-0.1966743
1747672371.750526,-0.14722754,1.1161958,-0.08999611,0.3483412,0.12197269,-0.1966743
1747672371.7512445,-0.14722754,1.1161958,-0.08999611,0.3483412,0.12197269,-0.1966743
1747672371.7519975,-0.14722754,1.1161958,-0.08999611,0.3483412,0.12197269,-0.1966743
1747672371.7527452,-0.14722754,1.1161958,-0.08999611,0.3483412,0.12197269,-0.1966743
1747672371.754613,-0.14722754,1.1161958,-0.08999611,0.3483412,0.12197269,-0.1966743
1747672371.7558637,-0.14722754,1.1161958,-0.08999611,0.3483412,0.12197269,-0.1966743
1747672371.756651,-0.14722754,1.1161958,-0.08999611,0.3483412,0.12197269,-0.1966743
1747672371.7577548,-0.14722754,1.1161958,-0.08999611,0.3483412,0.12197269,-0.1966743
1747672371.7587392,-0.14722754,1.1161958,-0.08999611,0.3483412,0.12197269,-0.1966743
1747672371.7597942,-0.14722754,1.1161958,-0.08999611,0.3483412,0.12197269,-0.1966743
1747672371.7606802,-0.22874266,1.1196126,-0.20616737,0.21198747,0.14540848,-0.19880483
1747672371.7614853,-0.22874266,1.1196126,-0.20616737,0.21198747,0.14540848,-0.19880483
1747672371.7622964,-0.22874266,1.1196126,-0.20616737,0.21198747,0.14540848,-0.19880483
1747672371.763232,-0.22874266,1.1196126,-0.20616737,0.21198747,0.14540848,-0.19880483
1747672371.7644923,-0.22874266,1.1196126,-0.20616737,0.21198747,0.14540848,-0.19880483
1747672371.7656283,-0.22874266,1.1196126,-0.20616737,0.21198747,0.14540848,-0.19880483
1747672371.7671497,-0.22874266,1.1196126,-0.20616737,0.21198747,0.14540848,-0.19880483
1747672371.7700396,-0.22874266,1.1196126,-0.20616737,0.21198747,0.14540848,-0.19880483
1747672371.7708397,-0.24875534,1.1098503,-0.2715747,0.013848428,0.15286534,-0.17749955
1747672371.7716668,-0.24875534,1.1098503,-0.2715747,0.013848428,0.15286534,-0.17749955
1747672371.772473,-0.24875534,1.1098503,-0.2715747,0.013848428,0.15286534,-0.17749955
1747672371.7732654,-0.24875534,1.1098503,-0.2715747,0.013848428,0.15286534,-0.17749955
1747672371.7740655,-0.24875534,1.1098503,-0.2715747,0.013848428,0.15286534,-0.17749955
1747672371.7750626,-0.24875534,1.1098503,-0.2715747,0.013848428,0.15286534,-0.17749955
1747672371.7759907,-0.24875534,1.1098503,-0.2715747,0.013848428,0.15286534,-0.17749955
1747672371.7767677,-0.24875534,1.1098503,-0.2715747,0.013848428,0.15286534,-0.17749955
1747672371.7775545,-0.24875534,1.1098503,-0.2715747,0.013848428,0.15286534,-0.17749955
1747672371.7783437,-0.20824185,1.138161,-0.22910875,0.013848428,0.15286534,-0.17749955
1747672371.7791636,-0.20824185,1.138161,-0.22910875,0.013848428,0.15286534,-0.17749955
1747672371.7799678,-0.20824185,1.138161,-0.22910875,0.013848428,0.15286534,-0.17749955
1747672371.780751,-0.20824185,1.138161,-0.22910875,0.013848428,0.15286534,-0.17749955
1747672371.7816458,-0.20824185,1.138161,-0.22910875,0.013848428,0.15286534,-0.17749955
1747672371.7828066,-0.20824185,1.138161,-0.22910875,-0.31851384,0.04314318,-0.15832481
1747672371.7836845,-0.20824185,1.138161,-0.22910875,-0.31851384,0.04314318,-0.15832481
1747672371.7845118,-0.20824185,1.138161,-0.22910875,-0.31851384,0.04314318,-0.15832481
1747672371.7853327,-0.20824185,1.138161,-0.22910875,-0.31851384,0.04314318,-0.15832481
1747672371.7861483,-0.20824185,1.138161,-0.22910875,-0.31851384,0.04314318,-0.15832481
1747672371.786958,-0.20824185,1.138161,-0.22910875,-0.31851384,0.04314318,-0.15832481
1747672371.7877276,-0.20824185,1.138161,-0.22910875,-0.31851384,0.04314318,-0.15832481
1747672371.7885063,-0.20824185,1.138161,-0.22910875,-0.31851384,0.04314318,-0.15832481
1747672371.7892559,-0.20824185,1.138161,-0.22910875,-0.31851384,0.04314318,-0.15832481
1747672371.790024,-0.20824185,1.138161,-0.22910875,-0.31851384,0.04314318,-0.15832481
1747672371.7907822,-0.20824185,1.138161,-0.22910875,-0.31851384,0.04314318,-0.15832481
1747672371.7915082,-0.20824185,1.138161,-0.22910875,-0.31851384,0.04314318,-0.15832481
1747672371.7922585,-0.15845416,1.1406015,-0.07144776,-0.51771814,0.0037284228,-0.16258587
1747672371.79298,-0.15845416,1.1406015,-0.07144776,-0.51771814,0.0037284228,-0.16258587
1747672371.7936838,-0.15845416,1.1406015,-0.07144776,-0.51771814,0.0037284228,-0.16258587
1747672371.794197,-0.15845416,1.1406015,-0.07144776,-0.51771814,0.0037284228,-0.16258587
1747672371.7950065,-0.15845416,1.1406015,-0.07144776,-0.51771814,0.0037284228,-0.16258587
1747672371.7958124,-0.15845416,1.1406015,-0.07144776,-0.51771814,0.0037284228,-0.16258587
1747672371.7965686,-0.15845416,1.1406015,-0.07144776,-0.51771814,0.0037284228,-0.16258587
1747672371.7974293,-0.15845416,1.1406015,-0.07144776,-0.51771814,0.0037284228,-0.16258587
1747672371.7981846,-0.15845416,1.1406015,-0.07144776,-0.51771814,0.0037284228,-0.16258587
1747672371.7989807,-0.15845416,1.1406015,-0.07144776,-0.51771814,0.0037284228,-0.16258587
1747672371.7997909,-0.15845416,1.1406015,-0.07144776,-0.51771814,0.0037284228,-0.16258587
1747672371.8021839,-0.15845416,1.1406015,-0.07144776,-0.51771814,0.0037284228,-0.16258587
1747672371.8040273,-0.15845416,1.1406015,-0.07144776,-0.51771814,0.0037284228,-0.16258587
1747672371.8053765,-0.11305952,1.1049693,0.10524968,-0.57843816,0.05592634,-0.18069534
1747672371.8066869,-0.11305952,1.1049693,0.10524968,-0.57843816,0.05592634,-0.18069534
1747672371.8088377,-0.11305952,1.1049693,0.10524968,-0.57843816,0.05592634,-0.18069534
1747672371.8101983,-0.08084396,1.0883733,0.21995659,-0.49960864,0.19973694,-0.21052273
1747672371.8126817,-0.08084396,1.0883733,0.21995659,-0.49960864,0.19973694,-0.21052273
1747672371.8176858,-0.08084396,1.0883733,0.21995659,-0.49960864,0.19973694,-0.21052273
1747672371.8222075,-0.07352225,1.0898377,0.23460004,-0.33236226,0.45966128,-0.23608905
1747672371.8234978,-0.07352225,1.0898377,0.23460004,-0.33236226,0.45966128,-0.23608905
1747672371.8248363,-0.07352225,1.0898377,0.23460004,-0.33236226,0.45966128,-0.23608905
1747672371.8259907,-0.07352225,1.0898377,0.23460004,-0.33236226,0.45966128,-0.23608905
1747672371.8290155,-0.07352225,1.0898377,0.23460004,-0.13102743,0.71425927,-0.2786996
1747672371.8302305,-0.07352225,1.0898377,0.23460004,-0.13102743,0.71425927,-0.2786996
1747672371.8313541,-0.05887881,1.1108266,0.11550009,-0.13102743,0.71425927,-0.2786996
1747672371.8323188,-0.05887881,1.1108266,0.11550009,-0.13102743,0.71425927,-0.2786996
1747672371.8334517,-0.05887881,1.1108266,0.11550009,-0.13102743,0.71425927,-0.2786996
1747672371.8348284,-0.05887881,1.1108266,0.11550009,-0.03195791,0.7217161,-0.35007226
1747672371.8356218,-0.028615711,1.1454827,0.01641285,-0.03195791,0.7217161,-0.35007226
1747672371.8364544,-0.028615711,1.1454827,0.01641285,-0.03195791,0.7217161,-0.35007226
1747672371.8372512,-0.028615711,1.1454827,0.01641285,-0.03195791,0.7217161,-0.35007226
1747672371.838051,-0.028615711,1.1454827,0.01641285,-0.03195791,0.7217161,-0.35007226
1747672371.838866,-0.028615711,1.1454827,0.01641285,-0.03195791,0.7217161,-0.35007226
1747672371.8396401,-0.028615711,1.1454827,0.01641285,-0.03195791,0.7217161,-0.35007226
1747672371.8404236,-0.028615711,1.1454827,0.01641285,-0.03195791,0.7217161,-0.35007226
1747672371.8411572,-0.028615711,1.1454827,0.01641285,-0.03195791,0.7217161,-0.35007226
1747672371.8418803,-0.028615711,1.1454827,0.01641285,-0.03195791,0.7217161,-0.35007226
1747672371.8426187,-0.028615711,1.1454827,0.01641285,-0.03195791,0.7217161,-0.35007226
1747672371.8433664,-0.028615711,1.1454827,0.01641285,-0.03195791,0.7217161,-0.35007226
1747672371.844111,-0.028615711,1.1454827,0.01641285,-0.03195791,0.7217161,-0.35007226
1747672371.8449173,-0.028615711,1.1454827,0.01641285,-0.03195791,0.7217161,-0.35007226
1747672371.8456602,-0.06717676,1.1991754,-0.10659201,-0.03195791,0.7217161,-0.35007226
1747672371.8464062,-0.06717676,1.1991754,-0.10659201,-0.03195791,0.7217161,-0.35007226
1747672371.8471713,-0.06717676,1.1991754,-0.10659201,-0.03195791,0.7217161,-0.35007226
1747672371.8479314,-0.06717676,1.1991754,-0.10659201,-0.03195791,0.7217161,-0.35007226
1747672371.8494961,-0.06717676,1.1991754,-0.10659201,-0.03195791,0.7217161,-0.35007226
1747672371.8509831,-0.06717676,1.1991754,-0.10659201,0.07669898,0.49055392,-0.50773126
1747672371.852008,-0.06717676,1.1991754,-0.10659201,0.07669898,0.49055392,-0.50773126
1747672371.8528392,-0.06717676,1.1991754,-0.10659201,0.07669898,0.49055392,-0.50773126
1747672371.853792,-0.06717676,1.1991754,-0.10659201,0.07669898,0.49055392,-0.50773126
1747672371.8545914,-0.06717676,1.1991754,-0.10659201,0.07669898,0.49055392,-0.50773126
1747672371.8553762,-0.06717676,1.1991754,-0.10659201,0.07669898,0.49055392,-0.50773126
1747672371.856378,-0.18481235,1.2499392,-0.12806904,0.14807165,0.20080219,-0.5396892
1747672371.858883,-0.18481235,1.2499392,-0.12806904,0.14807165,0.20080219,-0.5396892
1747672371.86045,-0.18481235,1.2499392,-0.12806904,0.14807165,0.20080219,-0.5396892
1747672371.8615718,-0.18481235,1.2499392,-0.12806904,0.14807165,0.20080219,-0.5396892
1747672371.862728,-0.18481235,1.2499392,-0.12806904,0.14807165,0.20080219,-0.5396892
1747672371.8637998,-0.18481235,1.2499392,-0.12806904,0.14807165,0.20080219,-0.5396892
1747672371.864699,-0.18481235,1.2499392,-0.12806904,0.14807165,0.20080219,-0.5396892
1747672371.865623,-0.18481235,1.2499392,-0.12806904,0.14807165,0.20080219,-0.5396892
1747672371.8667831,-0.18481235,1.2499392,-0.12806904,0.26205486,-0.12836426,-0.49175233
1747672371.8680778,-0.2633988,1.2967982,-0.09146046,0.26205486,-0.12836426,-0.49175233
1747672371.8688955,-0.2633988,1.2967982,-0.09146046,0.26205486,-0.12836426,-0.49175233
1747672371.8701313,-0.2633988,1.2967982,-0.09146046,0.26205486,-0.12836426,-0.49175233
1747672371.872165,-0.2633988,1.2967982,-0.09146046,0.26205486,-0.12836426,-0.49175233
1747672371.8732007,-0.2633988,1.2967982,-0.09146046,0.26205486,-0.12836426,-0.49175233
1747672371.8742387,-0.2633988,1.2967982,-0.09146046,0.26205486,-0.12836426,-0.49175233
1747672371.8762946,-0.2633988,1.2967982,-0.09146046,0.26205486,-0.12836426,-0.49175233
1747672371.8770967,-0.2633988,1.2967982,-0.09146046,0.26205486,-0.12836426,-0.49175233
1747672371.8778908,-0.2633988,1.2967982,-0.09146046,0.26205486,-0.12836426,-0.49175233
1747672371.8787553,-0.2633988,1.2967982,-0.09146046,0.26205486,-0.12836426,-0.49175233
1747672371.8795602,-0.2633988,1.2967982,-0.09146046,0.26205486,-0.12836426,-0.49175233
1747672371.880653,-0.30635285,1.3099773,-0.030934256,0.49641284,-0.57790554,-0.36818174
1747672371.881473,-0.30635285,1.3099773,-0.030934256,0.49641284,-0.57790554,-0.36818174
1747672371.8822746,-0.30635285,1.3099773,-0.030934256,0.49641284,-0.57790554,-0.36818174
1747672371.88313,-0.30635285,1.3099773,-0.030934256,0.49641284,-0.57790554,-0.36818174
1747672371.8839138,-0.30635285,1.3099773,-0.030934256,0.49641284,-0.57790554,-0.36818174
1747672371.8846788,-0.30635285,1.3099773,-0.030934256,0.49641284,-0.57790554,-0.36818174
1747672371.8854506,-0.30635285,1.3099773,-0.030934256,0.49641284,-0.57790554,-0.36818174
1747672371.886202,-0.30635285,1.3099773,-0.030934256,0.49641284,-0.57790554,-0.36818174
1747672371.8869343,-0.30635285,1.3099773,-0.030934256,0.49641284,-0.57790554,-0.36818174
1747672371.8876672,-0.30635285,1.3099773,-0.030934256,0.49641284,-0.57790554,-0.36818174
1747672371.8884313,-0.30635285,1.3099773,-0.030934256,0.49641284,-0.57790554,-0.36818174
1747672371.8891773,-0.30635285,1.3099773,-0.030934256,0.49641284,-0.57790554,-0.36818174
1747672371.889921,-0.18725292,1.2806904,-0.036303516,0.8266446,-0.886832,-0.21797957
1747672371.890651,-0.18725292,1.2806904,-0.036303516,0.8266446,-0.886832,-0.21797957
1747672371.8913896,-0.18725292,1.2806904,-0.036303516,0.8266446,-0.886832,-0.21797957
1747672371.8921947,-0.18725292,1.2806904,-0.036303516,0.8266446,-0.886832,-0.21797957
1747672371.8929746,-0.18725292,1.2806904,-0.036303516,0.8266446,-0.886832,-0.21797957
1747672371.8937552,-0.18725292,1.2806904,-0.036303516,0.8266446,-0.886832,-0.21797957
1747672371.895273,-0.18725292,1.2806904,-0.036303516,0.8266446,-0.886832,-0.21797957
1747672371.8969965,-0.18725292,1.2806904,-0.036303516,0.8266446,-0.886832,-0.21797957
1747672371.8986633,-0.18725292,1.2806904,-0.036303516,0.8266446,-0.886832,-0.21797957
1747672371.8997982,-0.010555476,1.2206523,-0.16955878,1.0247836,-0.8602004,-0.2083922
1747672371.9005964,-0.010555476,1.2206523,-0.16955878,1.0247836,-0.8602004,-0.2083922
1747672371.9013853,-0.010555476,1.2206523,-0.16955878,1.0247836,-0.8602004,-0.2083922
1747672371.902854,-0.010555476,1.2206523,-0.16955878,1.0247836,-0.8602004,-0.2083922
1747672371.9037642,-0.010555476,1.2206523,-0.16955878,1.0247836,-0.8602004,-0.2083922
1747672371.9054213,-0.010555476,1.2206523,-0.16955878,1.0247836,-0.8602004,-0.2083922
1747672371.9065118,-0.010555476,1.2206523,-0.16955878,1.0247836,-0.8602004,-0.2083922
1747672371.9073384,-0.010555476,1.2206523,-0.16955878,1.0247836,-0.8602004,-0.2083922
1747672371.9087412,-0.010555476,1.2206523,-0.16955878,1.0247836,-0.8602004,-0.2083922
1747672371.9095328,-0.010555476,1.2206523,-0.16955878,1.0247836,-0.8602004,-0.2083922
1747672371.910524,-0.010555476,1.2206523,-0.16955878,1.0247836,-0.8602004,-0.2083922
1747672371.9113328,-0.010555476,1.2206523,-0.16955878,1.0247836,-0.8602004,-0.2083922
1747672371.91214,-0.010555476,1.2206523,-0.16955878,1.0247836,-0.8602004,-0.2083922
1747672371.9130368,0.09487725,1.198199,-0.40141317,1.0226531,-0.5789708,-0.36711648
1747672371.9140394,0.09487725,1.198199,-0.40141317,1.0226531,-0.5789708,-0.36711648
1747672371.9152977,0.09487725,1.198199,-0.40141317,1.0226531,-0.5789708,-0.36711648
1747672371.9162893,0.09487725,1.198199,-0.40141317,1.0226531,-0.5789708,-0.36711648
1747672371.9171238,0.09487725,1.198199,-0.40141317,0.8127962,-0.23489064,-0.5194492
1747672371.9180968,0.023612538,1.1933179,-0.5639553,0.8127962,-0.23489064,-0.5194492
1747672371.9188974,0.023612538,1.1933179,-0.5639553,0.8127962,-0.23489064,-0.5194492
1747672371.9199917,0.023612538,1.1933179,-0.5639553,0.8127962,-0.23489064,-0.5194492
1747672371.9207819,0.023612538,1.1933179,-0.5639553,0.8127962,-0.23489064,-0.5194492
1747672371.9216166,0.023612538,1.1933179,-0.5639553,0.8127962,-0.23489064,-0.5194492
1747672371.9232583,0.023612538,1.1933179,-0.5639553,0.8127962,-0.23489064,-0.5194492
1747672371.9244127,0.023612538,1.1933179,-0.5639553,0.8127962,-0.23489064,-0.5194492
1747672371.925469,0.023612538,1.1933179,-0.5639553,0.8127962,-0.23489064,-0.5194492
1747672371.926255,-0.07010544,1.1664716,-0.652304,0.8127962,-0.23489064,-0.5194492
1747672371.9270966,-0.07010544,1.1664716,-0.652304,0.8127962,-0.23489064,-0.5194492
1747672371.927889,-0.07010544,1.1664716,-0.652304,0.545415,0.08042741,-0.5865608
1747672371.9286501,-0.07010544,1.1664716,-0.652304,0.545415,0.08042741,-0.5865608
1747672371.929401,-0.07010544,1.1664716,-0.652304,0.545415,0.08042741,-0.5865608
1747672371.9301784,-0.07010544,1.1664716,-0.652304,0.545415,0.08042741,-0.5865608
1747672371.9309113,-0.07010544,1.1664716,-0.652304,0.545415,0.08042741,-0.5865608
1747672371.9316647,-0.07010544,1.1664716,-0.652304,0.545415,0.08042741,-0.5865608
1747672371.9324746,-0.07010544,1.1664716,-0.652304,0.545415,0.08042741,-0.5865608
1747672371.9332461,-0.07010544,1.1664716,-0.652304,0.545415,0.08042741,-0.5865608
1747672371.9340222,-0.07010544,1.1664716,-0.652304,0.545415,0.08042741,-0.5865608
1747672371.9354658,-0.07010544,1.1664716,-0.652304,0.17470324,0.38402754,-0.5950829
1747672371.936298,-0.18774104,1.1479232,-0.65474457,0.17470324,0.38402754,-0.5950829
1747672371.9371233,-0.18774104,1.1479232,-0.65474457,0.17470324,0.38402754,-0.5950829
1747672371.9378717,-0.18774104,1.1479232,-0.65474457,0.17470324,0.38402754,-0.5950829
1747672371.9386456,-0.18774104,1.1479232,-0.65474457,0.17470324,0.38402754,-0.5950829
1747672371.9394693,-0.18774104,1.1479232,-0.65474457,0.17470324,0.38402754,-0.5950829
1747672371.940282,-0.18774104,1.1479232,-0.65474457,0.17470324,0.38402754,-0.5950829
1747672371.9410815,-0.18774104,1.1479232,-0.65474457,0.17470324,0.38402754,-0.5950829
1747672371.9438255,-0.18774104,1.1479232,-0.65474457,0.17470324,0.38402754,-0.5950829
1747672371.9446404,-0.18774104,1.1479232,-0.65474457,0.17470324,0.38402754,-0.5950829
1747672371.9468782,-0.18774104,1.1479232,-0.65474457,0.17470324,0.38402754,-0.5950829
1747672371.9480605,-0.29707867,1.1474351,-0.52002496,-0.092677936,0.5203813,-0.5205144
1747672371.9493012,-0.29707867,1.1474351,-0.52002496,-0.092677936,0.5203813,-0.5205144
1747672371.950485,-0.29707867,1.1474351,-0.52002496,-0.092677936,0.5203813,-0.5205144
1747672371.9514537,-0.29707867,1.1474351,-0.52002496,-0.092677936,0.5203813,-0.5205144
1747672371.9524117,-0.29707867,1.1474351,-0.52002496,-0.092677936,0.5203813,-0.5205144
1747672371.9532523,-0.29707867,1.1474351,-0.52002496,-0.092677936,0.5203813,-0.5205144
1747672371.9540806,-0.29707867,1.1474351,-0.52002496,-0.092677936,0.5203813,-0.5205144
1747672371.957731,-0.29707867,1.1474351,-0.52002496,-0.092677936,0.5203813,-0.5205144
1747672371.9589283,-0.29707867,1.1474351,-0.52002496,-0.092677936,0.5203813,-0.5205144
1747672371.9598632,-0.29707867,1.1474351,-0.52002496,-0.092677936,0.5203813,-0.5205144
1747672371.9608185,-0.33368728,1.1030167,-0.31989804,-0.16618113,0.49481496,-0.34794173
1747672371.9616642,-0.33368728,1.1030167,-0.31989804,-0.16618113,0.49481496,-0.34794173
1747672371.9626465,-0.33368728,1.1030167,-0.31989804,-0.16618113,0.49481496,-0.34794173
1747672371.9646213,-0.33368728,1.1030167,-0.31989804,-0.16618113,0.49481496,-0.34794173
1747672371.9676356,-0.30976966,1.0844684,-0.20470302,-0.030892646,0.35526544,-0.20306589
1747672371.9691808,-0.30976966,1.0844684,-0.20470302,-0.030892646,0.35526544,-0.20306589
1747672371.9713993,-0.30976966,1.0844684,-0.20470302,-0.030892646,0.35526544,-0.20306589
1747672371.9722037,-0.30976966,1.0844684,-0.20470302,-0.030892646,0.35526544,-0.20306589
1747672371.9730735,-0.30976966,1.0844684,-0.20470302,-0.030892646,0.35526544,-0.20306589
1747672371.9740076,-0.30976966,1.0844684,-0.20470302,-0.030892646,0.35526544,-0.20306589
1747672371.9748116,-0.30976966,1.0844684,-0.20470302,-0.030892646,0.35526544,-0.20306589
1747672371.9756045,-0.30976966,1.0844684,-0.20470302,-0.030892646,0.35526544,-0.20306589
1747672371.9764452,-0.26632747,1.0708011,-0.12269978,-0.030892646,0.35526544,-0.20306589
1747672371.9772062,-0.26632747,1.0708011,-0.12269978,-0.030892646,0.35526544,-0.20306589
1747672371.9780352,-0.26632747,1.0708011,-0.12269978,0.11930953,0.24021696,-0.1380848
1747672371.978849,-0.26632747,1.0708011,-0.12269978,0.11930953,0.24021696,-0.1380848
1747672371.9796557,-0.26632747,1.0708011,-0.12269978,0.11930953,0.24021696,-0.1380848
1747672371.9804099,-0.26632747,1.0708011,-0.12269978,0.11930953,0.24021696,-0.1380848
1747672371.9811106,-0.26632747,1.0708011,-0.12269978,0.11930953,0.24021696,-0.1380848
1747672371.9818149,-0.26632747,1.0708011,-0.12269978,0.11930953,0.24021696,-0.1380848
1747672371.982632,-0.26632747,1.0708011,-0.12269978,0.11930953,0.24021696,-0.1380848
1747672371.9834,-0.26632747,1.0708011,-0.12269978,0.11930953,0.24021696,-0.1380848
1747672371.9841423,-0.26632747,1.0708011,-0.12269978,0.11930953,0.24021696,-0.1380848
1747672371.9849148,-0.26632747,1.0708011,-0.12269978,0.11930953,0.24021696,-0.1380848
1747672371.9856668,-0.26632747,1.0708011,-0.12269978,0.11930953,0.24021696,-0.1380848
1747672371.9864347,-0.26632747,1.0708011,-0.12269978,0.11930953,0.24021696,-0.1380848
1747672371.9871864,-0.26632747,1.0708011,-0.12269978,0.11930953,0.24021696,-0.1380848
1747672371.9879112,-0.26632747,1.0708011,-0.12269978,0.11930953,0.24021696,-0.1380848
1747672371.993412,-0.27511355,1.0459073,-0.14417683,0.4218444,0.016511586,-0.06564687
1747672371.997113,-0.27511355,1.0459073,-0.14417683,0.4218444,0.016511586,-0.06564687
1747672371.998427,-0.27511355,1.0459073,-0.14417683,0.4218444,0.016511586,-0.06564687
1747672371.9999459,-0.27511355,1.0459073,-0.14417683,0.4218444,0.016511586,-0.06564687
1747672372.0057375,-0.37029585,1.0356569,-0.23691857,0.7446193,-0.20825905,0.062184766
1747672372.021295,-0.43814376,1.0517647,-0.349673,0.9108004,-0.3382212,0.26458487
1747672372.0232015,-0.43814376,1.0517647,-0.349673,0.9108004,-0.3382212,0.26458487
1747672372.0240278,-0.4244766,1.0668962,-0.4302119,1.0056089,-0.4735097,0.49361655
1747672372.0248156,-0.4244766,1.0668962,-0.4302119,1.0056089,-0.4735097,0.49361655
1747672372.0256298,-0.4244766,1.0668962,-0.4302119,1.0056089,-0.4735097,0.49361655
1747672372.0264275,-0.4244766,1.0668962,-0.4302119,1.05035,-0.6077329,0.6704503
1747672372.0272186,-0.33271104,1.0854447,-0.46828485,1.05035,-0.6077329,0.6704503
1747672372.0280032,-0.33271104,1.0854447,-0.46828485,1.05035,-0.6077329,0.6704503
1747672372.0287545,-0.33271104,1.0854447,-0.46828485,1.05035,-0.6077329,0.6704503
1747672372.029519,-0.33271104,1.0854447,-0.46828485,1.05035,-0.6077329,0.6704503
1747672372.0303109,-0.33271104,1.0854447,-0.46828485,1.05035,-0.6077329,0.6704503
1747672372.031172,-0.33271104,1.0854447,-0.46828485,1.05035,-0.6077329,0.6704503
1747672372.031925,-0.33271104,1.0854447,-0.46828485,1.05035,-0.6077329,0.6704503
1747672372.0326748,-0.33271104,1.0854447,-0.46828485,1.05035,-0.6077329,0.6704503
1747672372.03349,-0.33271104,1.0854447,-0.46828485,1.05035,-0.6077329,0.6704503
1747672372.0343282,-0.33271104,1.0854447,-0.46828485,1.05035,-0.6077329,0.6704503
1747672372.0351627,-0.1696808,1.091302,-0.46437994,1.05035,-0.6077329,0.6704503
1747672372.036797,-0.1696808,1.091302,-0.46437994,1.0673941,-0.6886929,0.7364966
1747672372.0397882,-0.1696808,1.091302,-0.46437994,1.0673941,-0.6886929,0.7364966
1747672372.0412002,-0.1696808,1.091302,-0.46437994,1.0673941,-0.6886929,0.7364966
1747672372.0461283,-0.1696808,1.091302,-0.46437994,1.0673941,-0.6886929,0.7364966
1747672372.0481403,-0.1696808,1.091302,-0.46437994,1.0673941,-0.6886929,0.7364966
1747672372.0552926,-0.1696808,1.091302,-0.46437994,1.0673941,-0.6886929,0.7364966
1747672372.0565066,-0.1696808,1.091302,-0.46437994,1.0673941,-0.6886929,0.7364966
1747672372.057315,-0.1696808,1.091302,-0.46437994,1.0673941,-0.6886929,0.7364966
1747672372.0583863,-0.022270223,1.1010643,-0.43606925,1.0439584,-0.4820318,0.55220604
1747672372.0591726,-0.022270223,1.1010643,-0.43606925,1.0439584,-0.4820318,0.55220604
1747672372.0599954,-0.022270223,1.1010643,-0.43606925,1.0439584,-0.4820318,0.55220604
1747672372.060908,-0.022270223,1.1010643,-0.43606925,1.0439584,-0.4820318,0.55220604
1747672372.062679,-0.022270223,1.1010643,-0.43606925,1.0439584,-0.4820318,0.55220604
1747672372.0635724,-0.022270223,1.1010643,-0.43606925,1.0439584,-0.4820318,0.55220604
1747672372.0648634,-0.022270223,1.1010643,-0.43606925,1.0439584,-0.4820318,0.55220604
1747672372.0656557,-0.022270223,1.1010643,-0.43606925,1.0439584,-0.4820318,0.55220604
1747672372.0664482,-0.022270223,1.1010643,-0.43606925,1.0439584,-0.4820318,0.55220604
1747672372.0673761,-0.019829651,1.1054573,-0.4302119,1.0439584,-0.4820318,0.55220604
1747672372.068313,-0.019829651,1.1054573,-0.4302119,1.002413,-0.2828275,0.40626493
1747672372.0691025,-0.019829651,1.1054573,-0.4302119,1.002413,-0.2828275,0.40626493
1747672372.069898,-0.019829651,1.1054573,-0.4302119,1.002413,-0.2828275,0.40626493
1747672372.0706856,-0.019829651,1.1054573,-0.4302119,1.002413,-0.2828275,0.40626493
1747672372.0715744,-0.019829651,1.1054573,-0.4302119,1.002413,-0.2828275,0.40626493
1747672372.0723627,-0.019829651,1.1054573,-0.4302119,1.002413,-0.2828275,0.40626493
1747672372.0731225,-0.019829651,1.1054573,-0.4302119,1.002413,-0.2828275,0.40626493
1747672372.0739443,-0.019829651,1.1054573,-0.4302119,1.002413,-0.2828275,0.40626493
1747672372.0746956,-0.019829651,1.1054573,-0.4302119,1.002413,-0.2828275,0.40626493
1747672372.0752149,-0.019829651,1.1054573,-0.4302119,1.002413,-0.2828275,0.40626493
1747672372.0757492,-0.019829651,1.1054573,-0.4302119,1.002413,-0.2828275,0.40626493
1747672372.0762813,-0.019829651,1.1054573,-0.4302119,1.002413,-0.2828275,0.40626493
1747672372.0768292,-0.09402306,1.0888615,-0.42874756,1.002413,-0.2828275,0.40626493
1747672372.0773787,-0.09402306,1.0888615,-0.42874756,0.92784464,0.02609896,0.2635196
1747672372.077924,-0.09402306,1.0888615,-0.42874756,0.92784464,0.02609896,0.2635196
1747672372.0784829,-0.09402306,1.0888615,-0.42874756,0.92784464,0.02609896,0.2635196
1747672372.0790298,-0.09402306,1.0888615,-0.42874756,0.92784464,0.02609896,0.2635196
1747672372.079571,-0.09402306,1.0888615,-0.42874756,0.92784464,0.02609896,0.2635196
1747672372.0801327,-0.09402306,1.0888615,-0.42874756,0.92784464,0.02609896,0.2635196
1747672372.0806994,-0.09402306,1.0888615,-0.42874756,0.92784464,0.02609896,0.2635196
1747672372.0812569,-0.09402306,1.0888615,-0.42874756,0.92784464,0.02609896,0.2635196
1747672372.084316,-0.09402306,1.0888615,-0.42874756,0.92784464,0.02609896,0.2635196
1747672372.0851288,-0.09402306,1.0888615,-0.42874756,0.92784464,0.02609896,0.2635196
1747672372.0858238,-0.09402306,1.0888615,-0.42874756,0.92784464,0.02609896,0.2635196
1747672372.0864987,-0.09402306,1.0888615,-0.42874756,0.92784464,0.02609896,0.2635196
1747672372.0872016,-0.09402306,1.0888615,-0.42874756,0.92784464,0.02609896,0.2635196
1747672372.087824,-0.09402306,1.0888615,-0.42874756,0.92784464,0.02609896,0.2635196
1747672372.08858,-0.19213407,1.0742179,-0.44778404,0.8468846,0.26578328,0.19108167
1747672372.0894146,-0.19213407,1.0742179,-0.44778404,0.8468846,0.26578328,0.19108167
1747672372.0904267,-0.19213407,1.0742179,-0.44778404,0.8468846,0.26578328,0.19108167
1747672372.091007,-0.19213407,1.0742179,-0.44778404,0.8468846,0.26578328,0.19108167
1747672372.0916317,-0.19213407,1.0742179,-0.44778404,0.8468846,0.26578328,0.19108167
1747672372.0923257,-0.19213407,1.0742179,-0.44778404,0.8468846,0.26578328,0.19108167
1747672372.0929477,-0.19213407,1.0742179,-0.44778404,0.8468846,0.26578328,0.19108167
1747672372.093574,-0.19213407,1.0742179,-0.44778404,0.8468846,0.26578328,0.19108167
1747672372.0948098,-0.19213407,1.0742179,-0.44778404,0.8468846,0.26578328,0.19108167
1747672372.0958388,-0.19213407,1.0742179,-0.44778404,0.8468846,0.26578328,0.19108167
1747672372.0966592,-0.19213407,1.0742179,-0.44778404,0.8468846,0.26578328,0.19108167
1747672372.0975285,-0.19213407,1.0742179,-0.44778404,0.8468846,0.26578328,0.19108167
1747672372.0983202,-0.19213407,1.0742179,-0.44778404,0.8468846,0.26578328,0.19108167
1747672372.0991156,-0.19213407,1.0742179,-0.44778404,0.8468846,0.26578328,0.19108167
1747672372.0999148,-0.19213407,1.0742179,-0.44778404,0.8468846,0.26578328,0.19108167
1747672372.1005976,-0.19213407,1.0742179,-0.44778404,0.8468846,0.26578328,0.19108167
1747672372.1013985,-0.19213407,1.0742179,-0.44778404,0.8468846,0.26578328,0.19108167
1747672372.102254,-0.19213407,1.0742179,-0.44778404,0.8468846,0.26578328,0.19108167
1747672372.1075246,-0.30147174,1.0463954,-0.49366683,0.75207615,0.43729073,0.19960378
1747672372.1092365,-0.30147174,1.0463954,-0.49366683,0.75207615,0.43729073,0.19960378
1747672372.1108012,-0.30147174,1.0463954,-0.49366683,0.75207615,0.43729073,0.19960378
1747672372.1126866,-0.30147174,1.0463954,-0.49366683,0.75207615,0.43729073,0.19960378
1747672372.1135688,-0.3659028,1.0415143,-0.4677967,0.75207615,0.43729073,0.19960378
1747672372.1146529,-0.3659028,1.0415143,-0.4677967,0.6189182,0.5299687,0.26778066
1747672372.1153233,-0.3659028,1.0415143,-0.4677967,0.6189182,0.5299687,0.26778066
1747672372.1159635,-0.3659028,1.0415143,-0.4677967,0.6189182,0.5299687,0.26778066
1747672372.1164992,-0.3659028,1.0415143,-0.4677967,0.6189182,0.5299687,0.26778066
1747672372.1170478,-0.3659028,1.0415143,-0.4677967,0.6189182,0.5299687,0.26778066
1747672372.1176274,-0.3659028,1.0415143,-0.4677967,0.6189182,0.5299687,0.26778066
1747672372.11819,-0.3659028,1.0415143,-0.4677967,0.6189182,0.5299687,0.26778066
1747672372.118734,-0.3659028,1.0415143,-0.4677967,0.6189182,0.5299687,0.26778066
1747672372.1192908,-0.3659028,1.0415143,-0.4677967,0.6189182,0.5299687,0.26778066
1747672372.1198902,-0.3659028,1.0415143,-0.4677967,0.6189182,0.5299687,0.26778066
1747672372.1204383,-0.3659028,1.0415143,-0.4677967,0.6189182,0.5299687,0.26778066
1747672372.1209927,-0.38982043,1.031752,-0.43606925,0.6189182,0.5299687,0.26778066
1747672372.1215348,-0.38982043,1.031752,-0.43606925,0.6189182,0.5299687,0.26778066
1747672372.1220734,-0.38982043,1.031752,-0.43606925,0.5677855,0.43302968,0.33489224
1747672372.1226168,-0.38982043,1.031752,-0.43606925,0.5677855,0.43302968,0.33489224
1747672372.1231635,-0.38982043,1.031752,-0.43606925,0.5677855,0.43302968,0.33489224
1747672372.1237063,-0.38982043,1.031752,-0.43606925,0.5677855,0.43302968,0.33489224
1747672372.1242642,-0.38982043,1.031752,-0.43606925,0.5677855,0.43302968,0.33489224
1747672372.124833,-0.38982043,1.031752,-0.43606925,0.5677855,0.43302968,0.33489224
1747672372.1253743,-0.38982043,1.031752,-0.43606925,0.5677855,0.43302968,0.33489224
1747672372.125925,-0.41324997,1.0058819,-0.4267951,0.545415,0.29774117,0.43609232
1747672372.1264794,-0.41324997,1.0058819,-0.4267951,0.545415,0.29774117,0.43609232
1747672372.1270332,-0.41324997,1.0058819,-0.4267951,0.545415,0.29774117,0.43609232
1747672372.1275833,-0.41324997,1.0058819,-0.4267951,0.545415,0.29774117,0.43609232
1747672372.1281188,-0.41324997,1.0058819,-0.4267951,0.545415,0.29774117,0.43609232
1747672372.1286802,-0.41324997,1.0058819,-0.4267951,0.545415,0.29774117,0.43609232
1747672372.12923,-0.41324997,1.0058819,-0.4267951,0.545415,0.29774117,0.43609232
1747672372.1486115,-0.41324997,1.0058819,-0.4267951,0.545415,0.29774117,0.43609232
1747672372.1516044,-0.22239716,0.9936791,-0.3086714,0.5241097,0.095341094,0.6406229
1747672372.1523912,-0.22239716,0.9936791,-0.3086714,0.5241097,0.095341094,0.6406229
1747672372.1530514,-0.22239716,0.9936791,-0.3086714,0.5241097,0.095341094,0.6406229
1747672372.1536863,-0.22239716,0.9936791,-0.3086714,0.5241097,0.095341094,0.6406229
1747672372.1543188,-0.22239716,0.9936791,-0.3086714,0.5241097,0.095341094,0.6406229
1747672372.1561337,-0.22239716,0.9936791,-0.3086714,0.5241097,0.095341094,0.6406229
1747672372.15783,-0.22239716,0.9936791,-0.3086714,0.5241097,0.095341094,0.6406229
1747672372.1586156,-0.22239716,0.9936791,-0.3086714,0.5241097,0.095341094,0.6406229
1747672372.1600196,-0.13453656,0.97366637,-0.24863331,0.56032866,0.10279794,0.63742715
1747672372.1606438,-0.13453656,0.97366637,-0.24863331,0.56032866,0.10279794,0.63742715
1747672372.1612775,-0.13453656,0.97366637,-0.24863331,0.56032866,0.10279794,0.63742715
1747672372.1619666,-0.13453656,0.97366637,-0.24863331,0.56032866,0.10279794,0.63742715
1747672372.1625514,-0.13453656,0.97366637,-0.24863331,0.56032866,0.10279794,0.63742715
1747672372.163121,-0.13453656,0.97366637,-0.24863331,0.56032866,0.10279794,0.63742715
1747672372.1637993,-0.13453656,0.97366637,-0.24863331,0.56032866,0.10279794,0.63742715
1747672372.1643999,-0.13453656,0.97366637,-0.24863331,0.56032866,0.10279794,0.63742715
1747672372.1649544,-0.13453656,0.97366637,-0.24863331,0.56032866,0.10279794,0.63742715
1747672372.1655178,-0.13453656,0.97366637,-0.24863331,0.56032866,0.10279794,0.63742715
1747672372.166083,-0.13453656,0.97366637,-0.24863331,0.56032866,0.10279794,0.63742715
1747672372.1666071,-0.071569785,0.93901026,-0.2105604,0.606135,0.23702116,0.5958818
1747672372.1671517,-0.071569785,0.93901026,-0.2105604,0.606135,0.23702116,0.5958818
1747672372.1677146,-0.071569785,0.93901026,-0.2105604,0.606135,0.23702116,0.5958818
1747672372.1682591,-0.071569785,0.93901026,-0.2105604,0.606135,0.23702116,0.5958818
1747672372.1688082,-0.071569785,0.93901026,-0.2105604,0.606135,0.23702116,0.5958818
1747672372.1693614,-0.071569785,0.93901026,-0.2105604,0.606135,0.23702116,0.5958818
1747672372.1698723,-0.071569785,0.93901026,-0.2105604,0.606135,0.23702116,0.5958818
1747672372.170416,-0.071569785,0.93901026,-0.2105604,0.606135,0.23702116,0.5958818
1747672372.1709638,-0.071569785,0.93901026,-0.2105604,0.606135,0.23702116,0.5958818
1747672372.1714897,-0.071569785,0.93901026,-0.2105604,0.606135,0.23702116,0.5958818
1747672372.1720243,-0.071569785,0.93901026,-0.2105604,0.606135,0.23702116,0.5958818
1747672372.172559,-0.071569785,0.93901026,-0.2105604,0.606135,0.23702116,0.5958818
1747672372.17309,-0.071569785,0.93901026,-0.2105604,0.606135,0.23702116,0.5958818
1747672372.1736243,-0.071569785,0.93901026,-0.2105604,0.606135,0.23702116,0.5958818
1747672372.1741815,-0.071569785,0.93901026,-0.2105604,0.606135,0.23702116,0.5958818
1747672372.1747286,-0.071569785,0.93901026,-0.2105604,0.606135,0.23702116,0.5958818
1747672372.175276,-0.071569785,0.93901026,-0.2105604,0.606135,0.23702116,0.5958818
1747672372.1758206,-0.071569785,0.93901026,-0.2105604,0.606135,0.23702116,0.5958818
1747672372.1775942,-0.071569785,0.93901026,-0.2105604,0.606135,0.23702116,0.5958818
1747672372.178158,-0.06083127,0.9238787,-0.22862063,0.6274403,0.4490086,0.5596629
1747672372.1802962,-0.06083127,0.9238787,-0.22862063,0.6274403,0.4490086,0.5596629
1747672372.181514,-0.06083127,0.9238787,-0.22862063,0.6274403,0.4490086,0.5596629
1747672372.1821806,-0.06083127,0.9238787,-0.22862063,0.6274403,0.4490086,0.5596629
1747672372.1829498,-0.06083127,0.9238787,-0.22862063,0.6274403,0.4490086,0.5596629
1747672372.1842916,-0.06083127,0.9238787,-0.22862063,0.6274403,0.4490086,0.5596629
1747672372.185614,-0.06083127,0.9238787,-0.22862063,0.6274403,0.4490086,0.5596629
1747672372.186166,-0.06083127,0.9238787,-0.22862063,0.6274403,0.4490086,0.5596629
1747672372.1868324,-0.06083127,0.9238787,-0.22862063,0.6274403,0.4490086,0.5596629
1747672372.1880562,-0.074010365,0.92339057,-0.28036076,0.59548235,0.6215813,0.5468797
1747672372.1930742,-0.074010365,0.92339057,-0.28036076,0.59548235,0.6215813,0.5468797
1747672372.1940713,-0.074010365,0.92339057,-0.28036076,0.59548235,0.6215813,0.5468797
1747672372.195072,-0.074010365,0.92339057,-0.28036076,0.59548235,0.6215813,0.5468797
1747672372.1960669,-0.074010365,0.92339057,-0.28036076,0.59548235,0.6215813,0.5468797
1747672372.1970613,-0.074010365,0.92339057,-0.28036076,0.59548235,0.6215813,0.5468797
1747672372.1980627,-0.074010365,0.92339057,-0.28036076,0.59548235,0.6215813,0.5468797
1747672372.1990793,-0.074010365,0.92339057,-0.28036076,0.59548235,0.6215813,0.5468797
1747672372.2000628,-0.074010365,0.92339057,-0.28036076,0.59548235,0.6215813,0.5468797
1747672372.2010643,-0.074010365,0.92339057,-0.28036076,0.59548235,0.6215813,0.5468797
1747672372.2020648,-0.12135747,0.9263193,-0.3389345,0.47830337,0.7153245,0.56392395
1747672372.2035818,-0.12135747,0.9263193,-0.3389345,0.47830337,0.7153245,0.56392395
1747672372.2044752,-0.12135747,0.9263193,-0.3389345,0.47830337,0.7153245,0.56392395
1747672372.2059698,-0.12135747,0.9263193,-0.3389345,0.47830337,0.7153245,0.56392395
1747672372.206847,-0.12135747,0.9263193,-0.3389345,0.47830337,0.7153245,0.56392395
1747672372.2078,-0.12135747,0.9263193,-0.3389345,0.47830337,0.7153245,0.56392395
1747672372.2086086,-0.12135747,0.9263193,-0.3389345,0.47830337,0.7153245,0.56392395
1747672372.2094595,-0.12135747,0.9263193,-0.3389345,0.47830337,0.7153245,0.56392395
1747672372.2102225,-0.14771566,0.93315285,-0.37456685,0.33129698,0.5949497,0.6139913
1747672372.2110546,-0.14771566,0.93315285,-0.37456685,0.33129698,0.5949497,0.6139913
1747672372.211854,-0.14771566,0.93315285,-0.37456685,0.33129698,0.5949497,0.6139913
1747672372.2126276,-0.14771566,0.93315285,-0.37456685,0.33129698,0.5949497,0.6139913
1747672372.213386,-0.14771566,0.93315285,-0.37456685,0.33129698,0.5949497,0.6139913
1747672372.2141335,-0.14771566,0.93315285,-0.37456685,0.33129698,0.5949497,0.6139913
1747672372.2148669,-0.14771566,0.93315285,-0.37456685,0.33129698,0.5949497,0.6139913
1747672372.2155979,-0.14771566,0.93315285,-0.37456685,0.33129698,0.5949497,0.6139913
1747672372.216299,-0.14771566,0.93315285,-0.37456685,0.33129698,0.5949497,0.6139913
1747672372.2169893,-0.14771566,0.93315285,-0.37456685,0.33129698,0.5949497,0.6139913
1747672372.2176883,-0.14771566,0.93315285,-0.37456685,0.33129698,0.5949497,0.6139913
1747672372.2184258,-0.14771566,0.93315285,-0.37456685,0.33129698,0.5949497,0.6139913
1747672372.219161,-0.14771566,0.93315285,-0.37456685,0.33129698,0.5949497,0.6139913
1747672372.2198794,-0.028615711,0.93266475,-0.29061118,0.16831166,0.37763596,0.6608629
1747672372.2206316,-0.028615711,0.93266475,-0.29061118,0.16831166,0.37763596,0.6608629
1747672372.2213898,-0.028615711,0.93266475,-0.29061118,0.16831166,0.37763596,0.6608629
1747672372.223083,-0.028615711,0.93266475,-0.29061118,0.16831166,0.37763596,0.6608629
1747672372.2244165,-0.028615711,0.93266475,-0.29061118,0.16831166,0.37763596,0.6608629
1747672372.2252378,-0.028615711,0.93266475,-0.29061118,0.16831166,0.37763596,0.6608629
1747672372.2261078,-0.028615711,0.93266475,-0.29061118,0.16831166,0.37763596,0.6608629
1747672372.226902,-0.028615711,0.93266475,-0.29061118,0.16831166,0.37763596,0.6608629
1747672372.2277136,-0.028615711,0.93266475,-0.29061118,0.16831166,0.37763596,0.6608629
1747672372.2285192,-0.028615711,0.93266475,-0.29061118,0.16831166,0.37763596,0.6608629
1747672372.229368,-0.028615711,0.93266475,-0.29061118,0.16831166,0.37763596,0.6608629
1747672372.23018,-0.028615711,0.93266475,-0.29061118,0.16831166,0.37763596,0.6608629
1747672372.2309706,-0.028615711,0.93266475,-0.29061118,0.16831166,0.37763596,0.6608629
1747672372.231756,-0.028615711,0.93266475,-0.29061118,0.16831166,0.37763596,0.6608629
1747672372.2325923,0.22373948,0.93168855,-0.08999611,0.12037479,0.054861076,0.55753237
1747672372.2333863,0.22373948,0.93168855,-0.08999611,0.12037479,0.054861076,0.55753237
1747672372.2341914,0.22373948,0.93168855,-0.08999611,0.12037479,0.054861076,0.55753237
1747672372.2392025,0.22373948,0.93168855,-0.08999611,0.12037479,0.054861076,0.55753237
1747672372.2404375,0.30623084,0.94047457,0.00030507156,0.20666115,-0.38935387,0.27630275
1747672372.2431772,0.30623084,0.94047457,0.00030507156,0.20666115,-0.38935387,0.27630275
1747672372.24416,0.30623084,0.94047457,0.00030507156,0.20666115,-0.38935387,0.27630275
1747672372.2452223,0.23301366,0.94047457,-0.0040879585,0.20666115,-0.38935387,0.27630275
1747672372.246304,0.23301366,0.94047457,-0.0040879585,0.20666115,-0.38935387,0.27630275
1747672372.2472348,0.23301366,0.94047457,-0.0040879585,0.30146962,-0.7771098,-0.018775271
1747672372.248153,0.23301366,0.94047457,-0.0040879585,0.30146962,-0.7771098,-0.018775271
1747672372.2489395,0.23301366,0.94047457,-0.0040879585,0.30146962,-0.7771098,-0.018775271
1747672372.249759,0.23301366,0.94047457,-0.0040879585,0.30146962,-0.7771098,-0.018775271
1747672372.2510273,0.23301366,0.94047457,-0.0040879585,0.30146962,-0.7771098,-0.018775271
1747672372.2518172,0.23301366,0.94047457,-0.0040879585,0.30146962,-0.7771098,-0.018775271
1747672372.2526693,0.23301366,0.94047457,-0.0040879585,0.30146962,-0.7771098,-0.018775271
1747672372.253473,0.23301366,0.94047457,-0.0040879585,0.30146962,-0.7771098,-0.018775271
1747672372.2543457,0.23301366,0.94047457,-0.0040879585,0.30146962,-0.7771098,-0.018775271
1747672372.2552338,0.23301366,0.94047457,-0.0040879585,0.30146962,-0.7771098,-0.018775271
1747672372.2561269,0.23301366,0.94047457,-0.0040879585,0.30146962,-0.7771098,-0.018775271
1747672372.2569003,0.23301366,0.94047457,-0.0040879585,0.30146962,-0.7771098,-0.018775271
1747672372.2577004,0.23301366,0.94047457,-0.0040879585,0.30146962,-0.7771098,-0.018775271
1747672372.2584693,0.044601463,0.91362834,-0.07681701,0.27909908,-0.90600675,-0.15832481
1747672372.2592459,0.044601463,0.91362834,-0.07681701,0.27909908,-0.90600675,-0.15832481
1747672372.2600138,0.044601463,0.91362834,-0.07681701,0.27909908,-0.90600675,-0.15832481
1747672372.2607276,0.044601463,0.91362834,-0.07681701,0.27909908,-0.90600675,-0.15832481
1747672372.2614746,0.044601463,0.91362834,-0.07681701,0.27909908,-0.90600675,-0.15832481
1747672372.2621698,0.044601463,0.91362834,-0.07681701,0.27909908,-0.90600675,-0.15832481
1747672372.2628677,0.044601463,0.91362834,-0.07681701,0.27909908,-0.90600675,-0.15832481
1747672372.263585,0.044601463,0.91362834,-0.07681701,0.27909908,-0.90600675,-0.15832481
1747672372.264293,0.044601463,0.91362834,-0.07681701,0.27909908,-0.90600675,-0.15832481
1747672372.2650394,0.044601463,0.91362834,-0.07681701,0.27909908,-0.90600675,-0.15832481
1747672372.265764,0.044601463,0.91362834,-0.07681701,0.27909908,-0.90600675,-0.15832481
1747672372.2665124,0.044601463,0.91362834,-0.07681701,0.27909908,-0.90600675,-0.15832481
1747672372.2672367,-0.10769027,0.88629395,-0.12367601,0.27909908,-0.90600675,-0.15832481
1747672372.2679644,-0.10769027,0.88629395,-0.12367601,0.27909908,-0.90600675,-0.15832481
1747672372.2687094,-0.10769027,0.88629395,-0.12367601,0.27909908,-0.90600675,-0.15832481
1747672372.2695563,-0.10769027,0.88629395,-0.12367601,0.1054611,-0.6844319,-0.10825742
1747672372.2709217,-0.10769027,0.88629395,-0.12367601,0.1054611,-0.6844319,-0.10825742
1747672372.272273,-0.10769027,0.88629395,-0.12367601,0.1054611,-0.6844319,-0.10825742
1747672372.2730956,-0.10769027,0.88629395,-0.12367601,0.1054611,-0.6844319,-0.10825742
1747672372.2739427,-0.10769027,0.88629395,-0.12367601,0.1054611,-0.6844319,-0.10825742
1747672372.2747505,-0.10769027,0.88629395,-0.12367601,0.1054611,-0.6844319,-0.10825742
1747672372.2756112,-0.10769027,0.88629395,-0.12367601,0.1054611,-0.6844319,-0.10825742
1747672372.2764535,-0.10769027,0.88629395,-0.12367601,0.1054611,-0.6844319,-0.10825742
1747672372.2773342,-0.10769027,0.88629395,-0.12367601,0.1054611,-0.6844319,-0.10825742
1747672372.2781572,-0.10769027,0.88629395,-0.12367601,0.1054611,-0.6844319,-0.10825742
1747672372.2789893,-0.10769027,0.88629395,-0.12367601,0.1054611,-0.6844319,-0.10825742
1747672372.2798235,-0.20824185,0.8404111,-0.11244938,-0.15020217,-0.17097482,0.080294244
1747672372.2806149,-0.20824185,0.8404111,-0.11244938,-0.15020217,-0.17097482,0.080294244
1747672372.2814217,-0.20824185,0.8404111,-0.11244938,-0.15020217,-0.17097482,0.080294244
1747672372.2830608,-0.20824185,0.8404111,-0.11244938,-0.15020217,-0.17097482,0.080294244
1747672372.283846,-0.20824185,0.8404111,-0.11244938,-0.15020217,-0.17097482,0.080294244
1747672372.2848582,-0.20824185,0.8404111,-0.11244938,-0.15020217,-0.17097482,0.080294244
1747672372.2859764,-0.20824185,0.8404111,-0.11244938,-0.15020217,-0.17097482,0.080294244
1747672372.287016,-0.2682799,0.7818374,-0.059733015,-0.4101265,0.5502087,0.3487407
1747672372.2878067,-0.2682799,0.7818374,-0.059733015,-0.4101265,0.5502087,0.3487407
1747672372.288587,-0.2682799,0.7818374,-0.059733015,-0.4101265,0.5502087,0.3487407
1747672372.289409,-0.2682799,0.7818374,-0.059733015,-0.4101265,0.5502087,0.3487407
1747672372.2902522,-0.2682799,0.7818374,-0.059733015,-0.4101265,0.5502087,0.3487407
1747672372.2910411,-0.2682799,0.7818374,-0.059733015,-0.4101265,0.5502087,0.3487407
1747672372.2918236,-0.2682799,0.7818374,-0.059733015,-0.4101265,0.5502087,0.3487407
1747672372.292621,-0.2682799,0.7818374,-0.059733015,-0.4101265,0.5502087,0.3487407
1747672372.2934403,-0.2682799,0.7818374,-0.059733015,-0.4101265,0.5502087,0.3487407
1747672372.2942188,-0.2682799,0.7818374,-0.059733015,-0.4101265,0.5502087,0.3487407
1747672372.295219,-0.2682799,0.7818374,-0.059733015,-0.4101265,0.5502087,0.3487407
1747672372.296223,-0.2682799,0.7818374,-0.059733015,-0.4101265,0.5502087,0.3487407
1747672372.2972233,-0.2682799,0.7818374,-0.059733015,-0.4101265,0.5502087,0.3487407
1747672372.2982273,-0.2682799,0.7818374,-0.059733015,-0.4101265,0.5502087,0.3487407
1747672372.2992225,-0.2682799,0.7818374,-0.059733015,-0.4101265,0.5502087,0.3487407
1747672372.300219,-0.2682799,0.7818374,-0.059733015,-0.4101265,0.5502087,0.3487407
1747672372.3012838,-0.29122132,0.72619236,-0.013362135,-0.60187393,1.1371689,0.61292607
1747672372.3022242,-0.29122132,0.72619236,-0.013362135,-0.60187393,1.1371689,0.61292607
1747672372.3032978,-0.29122132,0.72619236,-0.013362135,-0.60187393,1.1371689,0.61292607
1747672372.3042321,-0.29122132,0.72619236,-0.013362135,-0.60187393,1.1371689,0.61292607
1747672372.305245,-0.29122132,0.72619236,-0.013362135,-0.60187393,1.1371689,0.61292607
1747672372.3060045,-0.29122132,0.72619236,-0.013362135,-0.60187393,1.1371689,0.61292607
1747672372.306762,-0.29122132,0.72619236,-0.013362135,-0.60187393,1.1371689,0.61292607
1747672372.3075027,-0.079867736,0.7115489,0.21507545,-0.74568456,1.6048197,0.9580715
1747672372.308246,-0.079867736,0.7115489,0.21507545,-0.74568456,1.6048197,0.9580715
1747672372.3089948,-0.079867736,0.7115489,0.21507545,-0.74568456,1.6048197,0.9580715
1747672372.3097553,-0.079867736,0.7115489,0.21507545,-0.74568456,1.6048197,0.9580715
1747672372.3104603,-0.079867736,0.7115489,0.21507545,-0.74568456,1.6048197,0.9580715
1747672372.3111563,-0.079867736,0.7115489,0.21507545,-0.74568456,1.6048197,0.9580715
1747672372.3118513,-0.079867736,0.7115489,0.21507545,-0.74568456,1.6048197,0.9580715
1747672372.31255,-0.079867736,0.7115489,0.21507545,-0.74568456,1.6048197,0.9580715
1747672372.3132935,-0.079867736,0.7115489,0.21507545,-0.74568456,1.6048197,0.9580715
1747672372.3140373,-0.079867736,0.7115489,0.21507545,-0.74568456,1.6048197,0.9580715
1747672372.3147852,-0.079867736,0.7115489,0.21507545,-0.74568456,1.6048197,0.9580715
1747672372.316295,-0.079867736,0.7115489,0.21507545,-0.74568456,1.6048197,0.9580715
1747672372.3175995,-0.079867736,0.7115489,0.21507545,-0.74568456,1.6048197,0.9580715
1747672372.3185804,0.3047665,0.85505456,0.4098331,-0.74568456,1.6048197,0.9580715
1747672372.3195596,0.3047665,0.85505456,0.4098331,-0.42717072,1.0317079,1.0070736
1747672372.320357,0.3047665,0.85505456,0.4098331,-0.42717072,1.0317079,1.0070736
1747672372.3211455,0.3047665,0.85505456,0.4098331,-0.42717072,1.0317079,1.0070736
1747672372.32205,0.3047665,0.85505456,0.4098331,-0.42717072,1.0317079,1.0070736
1747672372.3228855,0.3047665,0.85505456,0.4098331,-0.42717072,1.0317079,1.0070736
1747672372.3236787,0.3047665,0.85505456,0.4098331,-0.42717072,1.0317079,1.0070736
1747672372.3244853,0.3047665,0.85505456,0.4098331,-0.42717072,1.0317079,1.0070736
1747672372.3253057,0.3047665,0.85505456,0.4098331,-0.42717072,1.0317079,1.0070736
1747672372.3261127,0.3047665,0.85505456,0.4098331,-0.42717072,1.0317079,1.0070736
1747672372.3269432,0.3047665,0.85505456,0.4098331,-0.42717072,1.0317079,1.0070736
1747672372.3277407,0.3047665,0.85505456,0.4098331,-0.42717072,1.0317079,1.0070736
1747672372.328569,0.3047665,0.85505456,0.4098331,-0.42717072,1.0317079,1.0070736
1747672372.3293815,0.37749556,0.88678205,0.26974428,0.060720026,-0.20399798,0.6161219
1747672372.3322716,0.37749556,0.88678205,0.26974428,0.060720026,-0.20399798,0.6161219
1747672372.3337557,0.37749556,0.88678205,0.26974428,0.060720026,-0.20399798,0.6161219
1747672372.335414,0.37749556,0.88678205,0.26974428,0.060720026,-0.20399798,0.6161219
1747672372.336377,0.2583956,0.9556061,-0.07925759,0.24714117,-1.3544828,0.2869554
1747672372.3374274,0.2583956,0.9556061,-0.07925759,0.24714117,-1.3544828,0.2869554
1747672372.3382597,0.2583956,0.9556061,-0.07925759,0.24714117,-1.3544828,0.2869554
1747672372.339048,0.2583956,0.9556061,-0.07925759,0.24714117,-1.3544828,0.2869554
1747672372.3398552,0.2583956,0.9556061,-0.07925759,0.24714117,-1.3544828,0.2869554
1747672372.3406515,0.2583956,0.9556061,-0.07925759,0.24714117,-1.3544828,0.2869554
1747672372.3414361,0.2583956,0.9556061,-0.07925759,0.24714117,-1.3544828,0.2869554
1747672372.3422215,0.2583956,0.9556061,-0.07925759,0.24714117,-1.3544828,0.2869554
1747672372.3431573,0.2583956,0.9556061,-0.07925759,0.24714117,-1.3544828,0.2869554
1747672372.3439977,0.2583956,0.9556061,-0.07925759,0.24714117,-1.3544828,0.2869554
1747672372.3449118,0.17346369,1.0029533,-0.37163818,-0.047936864,-1.8636787,0.11864374
1747672372.345991,0.17346369,1.0029533,-0.37163818,-0.047936864,-1.8636787,0.11864374
1747672372.3467934,0.17346369,1.0029533,-0.37163818,-0.047936864,-1.8636787,0.11864374
1747672372.3478038,0.17346369,1.0029533,-0.37163818,-0.047936864,-1.8636787,0.11864374
1747672372.348986,0.17346369,1.0029533,-0.37163818,-0.047936864,-1.8636787,0.11864374
1747672372.3497748,0.17346369,1.0029533,-0.37163818,-0.047936864,-1.8636787,0.11864374
1747672372.3505545,0.17346369,1.0029533,-0.37163818,-0.047936864,-1.8636787,0.11864374
1747672372.3513315,0.17346369,1.0029533,-0.37163818,-0.047936864,-1.8636787,0.11864374
1747672372.3521404,0.17346369,1.0029533,-0.37163818,-0.047936864,-1.8636787,0.11864374
1747672372.352914,0.17346369,1.0029533,-0.37163818,-0.047936864,-1.8636787,0.11864374
1747672372.3536592,0.17346369,1.0029533,-0.37163818,-0.047936864,-1.8636787,0.11864374
1747672372.3543935,0.17346369,1.0029533,-0.37163818,-0.047936864,-1.8636787,0.11864374
1747672372.3551269,0.17346369,1.0029533,-0.37163818,-0.047936864,-1.8636787,0.11864374
1747672372.3558657,0.17980917,0.929248,-0.4267951,-0.047936864,-1.8636787,0.11864374
1747672372.3566186,0.17980917,0.929248,-0.4267951,-0.047936864,-1.8636787,0.11864374
1747672372.3573608,0.17980917,0.929248,-0.4267951,-0.7126614,-1.5654049,0.06538056
1747672372.3580823,0.17980917,0.929248,-0.4267951,-0.7126614,-1.5654049,0.06538056
1747672372.358818,0.17980917,0.929248,-0.4267951,-0.7126614,-1.5654049,0.06538056
1747672372.3595235,0.17980917,0.929248,-0.4267951,-0.7126614,-1.5654049,0.06538056
1747672372.3602245,0.17980917,0.929248,-0.4267951,-0.7126614,-1.5654049,0.06538056
1747672372.3609521,0.17980917,0.929248,-0.4267951,-0.7126614,-1.5654049,0.06538056
1747672372.3616827,0.17980917,0.929248,-0.4267951,-0.7126614,-1.5654049,0.06538056
1747672372.3625107,0.17980917,0.929248,-0.4267951,-0.7126614,-1.5654049,0.06538056
1747672372.3685868,0.17980917,0.929248,-0.4267951,-0.7126614,-1.5654049,0.06538056
1747672372.3694694,0.20958416,0.8189341,-0.24960954,-1.466868,-0.5438171,0.055793185
1747672372.3705246,0.20958416,0.8189341,-0.24960954,-1.466868,-0.5438171,0.055793185
1747672372.3714402,0.20958416,0.8189341,-0.24960954,-1.466868,-0.5438171,0.055793185
1747672372.3725135,0.20958416,0.8189341,-0.24960954,-1.466868,-0.5438171,0.055793185
1747672372.373739,0.20958416,0.8189341,-0.24960954,-1.466868,-0.5438171,0.055793185
1747672372.37578,0.20958416,0.8189341,-0.24960954,-1.466868,-0.5438171,0.055793185
1747672372.379646,0.109520696,0.7554792,0.1057378,-2.0154788,0.59175396,0.041944757
1747672372.3807154,0.109520696,0.7554792,0.1057378,-2.0154788,0.59175396,0.041944757
1747672372.3819847,0.109520696,0.7554792,0.1057378,-2.0154788,0.59175396,0.041944757
1747672372.3829787,0.109520696,0.7554792,0.1057378,-2.0154788,0.59175396,0.041944757
1747672372.3839638,0.109520696,0.7554792,0.1057378,-2.0154788,0.59175396,0.041944757
1747672372.386827,0.109520696,0.7554792,0.1057378,-2.0154788,0.59175396,0.041944757
1747672372.3878348,-0.12721483,0.74669313,0.53820723,-2.1507673,1.508946,0.11651321
1747672372.3889227,-0.12721483,0.74669313,0.53820723,-2.1507673,1.508946,0.11651321
1747672372.3907971,-0.12721483,0.74669313,0.53820723,-2.1507673,1.508946,0.11651321
1747672372.3918636,-0.12721483,0.74669313,0.53820723,-2.1507673,1.508946,0.11651321
1747672372.3929152,-0.12721483,0.74669313,0.53820723,-2.1507673,1.508946,0.11651321
1747672372.3942778,-0.12721483,0.74669313,0.53820723,-2.1507673,1.508946,0.11651321
1747672372.3962715,-0.12721483,0.74669313,0.53820723,-2.1507673,1.508946,0.11651321
1747672372.3973036,-0.20970619,0.7393714,0.65340227,-2.0698073,1.6612786,0.18362482
1747672372.3980887,-0.20970619,0.7393714,0.65340227,-2.0698073,1.6612786,0.18362482
1747672372.398857,-0.20970619,0.7393714,0.65340227,-2.0698073,1.6612786,0.18362482
1747672372.399671,-0.20970619,0.7393714,0.65340227,-2.0698073,1.6612786,0.18362482
1747672372.400434,-0.20970619,0.7393714,0.65340227,-2.0698073,1.6612786,0.18362482
1747672372.4011874,-0.20970619,0.7393714,0.65340227,-2.0698073,1.6612786,0.18362482
1747672372.4018943,-0.20970619,0.7393714,0.65340227,-2.0698073,1.6612786,0.18362482
1747672372.4025967,-0.20970619,0.7393714,0.65340227,-2.0698073,1.6612786,0.18362482
1747672372.4033043,-0.20970619,0.7393714,0.65340227,-2.0698073,1.6612786,0.18362482
1747672372.4040427,-0.20970619,0.7393714,0.65340227,-2.0698073,1.6612786,0.18362482
1747672372.4047866,-0.20970619,0.7393714,0.65340227,-2.0698073,1.6612786,0.18362482
1747672372.4055302,-0.20970619,0.7393714,0.65340227,-2.0698073,1.6612786,0.18362482
1747672372.406291,-0.20970619,0.7393714,0.65340227,-2.0698073,1.6612786,0.18362482
1747672372.4070067,-0.20970619,0.7393714,0.65340227,-2.0698073,1.6612786,0.18362482
1747672372.4077513,-0.2809709,0.7344903,0.9365086,-1.4998912,1.4993585,0.5298355
1747672372.4084764,-0.2809709,0.7344903,0.9365086,-1.4998912,1.4993585,0.5298355
1747672372.409253,-0.2809709,0.7344903,0.9365086,-1.4998912,1.4993585,0.5298355
1747672372.411474,-0.2809709,0.7344903,0.9365086,-1.4998912,1.4993585,0.5298355
1747672372.413013,-0.2809709,0.7344903,0.9365086,-1.4998912,1.4993585,0.5298355
1747672372.4141564,-0.2809709,0.7344903,0.9365086,-1.4998912,1.4993585,0.5298355
1747672372.4151943,-0.2809709,0.7344903,0.9365086,-1.4998912,1.4993585,0.5298355
1747672372.4162753,-0.2809709,0.7344903,0.9365086,-1.4998912,1.4993585,0.5298355
1747672372.4174433,-0.2809709,0.7344903,0.9365086,-1.4998912,1.4993585,0.5298355
1747672372.4188278,-0.2809709,0.7344903,0.9365086,-1.4998912,1.4993585,0.5298355
1747672372.4196908,-0.2809709,0.7344903,0.9365086,-1.4998912,1.4993585,0.5298355
1747672372.420484,-0.2809709,0.7344903,0.9365086,-1.4998912,1.4993585,0.5298355
1747672372.4212832,-0.2809709,0.7344903,0.9365086,-1.4998912,1.4993585,0.5298355
1747672372.4220777,-0.2809709,0.7344903,0.9365086,-1.4998912,1.4993585,0.5298355
1747672372.4267154,-0.14722754,0.84187543,1.0565848,-0.6167877,0.3147854,0.76206297
1747672372.4286213,-0.14722754,0.84187543,1.0565848,-0.6167877,0.3147854,0.76206297
1747672372.4294324,-0.14722754,0.84187543,1.0565848,-0.6167877,0.3147854,0.76206297
1747672372.4302983,-0.14722754,0.84187543,1.0565848,-0.6167877,0.3147854,0.76206297
1747672372.4310882,-0.14722754,0.84187543,1.0565848,-0.6167877,0.3147854,0.76206297
1747672372.4319787,-0.1057378,0.93949836,0.8335165,0.5837645,-1.8072197,0.8877641
1747672372.4327936,-0.1057378,0.93949836,0.8335165,0.5837645,-1.8072197,0.8877641
1747672372.433817,-0.1057378,0.93949836,0.8335165,0.5837645,-1.8072197,0.8877641
1747672372.4347613,-0.1057378,0.93949836,0.8335165,0.5837645,-1.8072197,0.8877641
1747672372.4355683,-0.1057378,0.93949836,0.8335165,0.5837645,-1.8072197,0.8877641
1747672372.4364662,-0.1057378,0.93949836,0.8335165,0.5837645,-1.8072197,0.8877641
1747672372.438398,-0.1057378,0.93949836,0.8335165,0.5837645,-1.8072197,0.8877641
1747672372.439282,0.011409677,0.9580467,0.42350036,1.1877689,-2.9023108,0.99748623
1747672372.4401858,0.011409677,0.9580467,0.42350036,1.1877689,-2.9023108,0.99748623
1747672372.4410582,0.011409677,0.9580467,0.42350036,1.1877689,-2.9023108,0.99748623
1747672372.4418397,0.011409677,0.9580467,0.42350036,1.1877689,-2.9023108,0.99748623
1747672372.4428015,0.011409677,0.9580467,0.42350036,1.1877689,-2.9023108,0.99748623
1747672372.4435968,0.011409677,0.9580467,0.42350036,1.1877689,-2.9023108,0.99748623
1747672372.4443643,0.011409677,0.9580467,0.42350036,1.1877689,-2.9023108,0.99748623
1747672372.445089,0.011409677,0.9580467,0.42350036,1.1877689,-2.9023108,0.99748623
1747672372.445885,0.2754796,0.9268074,-0.024100652,1.2090743,-2.9236162,1.0422273
1747672372.4466314,0.2754796,0.9268074,-0.024100652,1.2090743,-2.9236162,1.0422273
1747672372.4473398,0.2754796,0.9268074,-0.024100652,1.2090743,-2.9236162,1.0422273
1747672372.448119,0.2754796,0.9268074,-0.024100652,1.2090743,-2.9236162,1.0422273
1747672372.4488978,0.2754796,0.9268074,-0.024100652,1.2090743,-2.9236162,1.0422273
1747672372.4496067,0.2754796,0.9268074,-0.024100652,1.2090743,-2.9236162,1.0422273
1747672372.4503016,0.2754796,0.9268074,-0.024100652,1.2090743,-2.9236162,1.0422273
1747672372.450993,0.2754796,0.9268074,-0.024100652,1.2090743,-2.9236162,1.0422273
1747672372.45169,0.2754796,0.9268074,-0.024100652,1.2090743,-2.9236162,1.0422273
1747672372.4524322,0.2754796,0.9268074,-0.024100652,1.2090743,-2.9236162,1.0422273
1747672372.4532943,0.2754796,0.9268074,-0.024100652,1.2090743,-2.9236162,1.0422273
1747672372.454028,0.2754796,0.9268074,-0.024100652,1.2090743,-2.9236162,1.0422273
1747672372.4547288,0.2754796,0.9268074,-0.024100652,1.2090743,-2.9236162,1.0422273
1747672372.4555154,0.5473594,0.92143816,-0.33258903,1.2090743,-2.9236162,1.0422273
1747672372.456337,0.5473594,0.92143816,-0.33258903,0.71372664,-2.0394473,0.8962862
1747672372.4582882,0.5473594,0.92143816,-0.33258903,0.71372664,-2.0394473,0.8962862
1747672372.4604685,0.5473594,0.92143816,-0.33258903,0.71372664,-2.0394473,0.8962862
1747672372.4612637,0.5473594,0.92143816,-0.33258903,0.71372664,-2.0394473,0.8962862
1747672372.4620953,0.5473594,0.92143816,-0.33258903,0.71372664,-2.0394473,0.8962862
1747672372.4629307,0.5473594,0.92143816,-0.33258903,0.71372664,-2.0394473,0.8962862
1747672372.4637227,0.5473594,0.92143816,-0.33258903,0.71372664,-2.0394473,0.8962862
1747672372.4645317,0.5473594,0.92143816,-0.33258903,0.71372664,-2.0394473,0.8962862
1747672372.4653392,0.5473594,0.92143816,-0.33258903,0.71372664,-2.0394473,0.8962862
1747672372.4661517,0.5473594,0.92143816,-0.33258903,0.71372664,-2.0394473,0.8962862
1747672372.4669404,0.5473594,0.92143816,-0.33258903,0.71372664,-2.0394473,0.8962862
1747672372.4677327,0.5473594,0.92143816,-0.33258903,0.71372664,-2.0394473,0.8962862
1747672372.4685397,0.6288745,0.929248,-0.49464303,-0.08948214,-0.74515194,0.604404
1747672372.469437,0.6288745,0.929248,-0.49464303,-0.08948214,-0.74515194,0.604404
1747672372.4706442,0.6288745,0.929248,-0.49464303,-0.08948214,-0.74515194,0.604404
1747672372.4725895,0.6288745,0.929248,-0.49464303,-0.08948214,-0.74515194,0.604404
1747672372.4737465,0.6288745,0.929248,-0.49464303,-0.08948214,-0.74515194,0.604404
1747672372.4747007,0.6288745,0.929248,-0.49464303,-0.08948214,-0.74515194,0.604404
1747672372.4754896,0.6288745,0.929248,-0.49464303,-0.08948214,-0.74515194,0.604404
1747672372.4764392,0.6288745,0.929248,-0.49464303,-0.08948214,-0.74515194,0.604404
1747672372.4772341,0.6288745,0.929248,-0.49464303,-0.08948214,-0.74515194,0.604404
1747672372.478265,0.6288745,0.929248,-0.49464303,-0.08948214,-0.74515194,0.604404
1747672372.4790738,0.6288745,0.929248,-0.49464303,-0.08948214,-0.74515194,0.604404
1747672372.4800203,0.6288745,0.929248,-0.49464303,-0.08948214,-0.74515194,0.604404
1747672372.4810593,0.47072542,0.92436683,-0.46535614,-0.93210566,0.36272228,0.31571752
1747672372.4821606,0.47072542,0.92436683,-0.46535614,-0.93210566,0.36272228,0.31571752
1747672372.482978,0.47072542,0.92436683,-0.46535614,-0.93210566,0.36272228,0.31571752
1747672372.4843814,0.47072542,0.92436683,-0.46535614,-0.93210566,0.36272228,0.31571752
1747672372.4856472,0.47072542,0.92436683,-0.46535614,-0.93210566,0.36272228,0.31571752
1747672372.4867506,0.18029729,0.8999611,-0.28426567,-1.608548,0.9976194,0.18255955
1747672372.4876225,0.18029729,0.8999611,-0.28426567,-1.608548,0.9976194,0.18255955
1747672372.4885116,0.18029729,0.8999611,-0.28426567,-1.608548,0.9976194,0.18255955
1747672372.4893348,0.18029729,0.8999611,-0.28426567,-1.608548,0.9976194,0.18255955
1747672372.4901605,0.18029729,0.8999611,-0.28426567,-1.608548,0.9976194,0.18255955
1747672372.4909487,0.18029729,0.8999611,-0.28426567,-1.608548,0.9976194,0.18255955
1747672372.491741,0.18029729,0.8999611,-0.28426567,-1.608548,0.9976194,0.18255955
1747672372.4924896,0.18029729,0.8999611,-0.28426567,-1.608548,0.9976194,0.18255955
1747672372.493247,0.18029729,0.8999611,-0.28426567,-1.608548,0.9976194,0.18255955
1747672372.4940073,0.18029729,0.8999611,-0.28426567,-1.608548,0.9976194,0.18255955
1747672372.4948835,-0.04374726,0.8360181,0.06717676,-1.9813904,1.1701921,0.2752375
1747672372.4953654,-0.04374726,0.8360181,0.06717676,-1.9813904,1.1701921,0.2752375
1747672372.4964008,-0.04374726,0.8360181,0.06717676,-1.9813904,1.1701921,0.2752375
1747672372.4975584,-0.04374726,0.8360181,0.06717676,-1.9813904,1.1701921,0.2752375
1747672372.4993777,-0.04374726,0.8360181,0.06717676,-1.9813904,1.1701921,0.2752375
1747672372.5001936,-0.04374726,0.8360181,0.06717676,-1.9813904,1.1701921,0.2752375
1747672372.5011272,-0.04374726,0.8360181,0.06717676,-1.9813904,1.1701921,0.2752375
1747672372.5019467,-0.04374726,0.8360181,0.06717676,-1.9813904,1.1701921,0.2752375
1747672372.5027707,-0.04374726,0.8360181,0.06717676,-1.9813904,1.1701921,0.2752375
1747672372.5035524,-0.04374726,0.8360181,0.06717676,-1.9813904,1.1701921,0.2752375
1747672372.5044215,-0.04374726,0.8360181,0.06717676,-1.9813904,1.1701921,0.2752375
1747672372.5368092,-0.07937962,0.8369943,0.7798239,-1.5915039,0.08788425,0.66405874
1747672372.537895,-0.07937962,0.8369943,0.7798239,-1.5915039,0.08788425,0.66405874
1747672372.5387092,-0.0037218733,0.8745791,1.001916,-0.79255617,-1.068992,0.9229178
1747672372.5395103,0.17053501,0.8369943,0.9077099,-0.19281273,-1.5504912,1.0795115
1747672372.540422,0.17053501,0.8369943,0.9077099,-0.19281273,-1.5504912,1.0795115
1747672372.5412621,0.17053501,0.8369943,0.9077099,-0.19281273,-1.5504912,1.0795115
1747672372.5420706,0.17053501,0.8369943,0.9077099,-0.19281273,-1.5504912,1.0795115
1747672372.5428274,0.17053501,0.8369943,0.9077099,-0.19281273,-1.5504912,1.0795115
1747672372.5435855,0.17053501,0.8369943,0.9077099,-0.19281273,-1.5504912,1.0795115
1747672372.5443313,0.17053501,0.8369943,0.9077099,-0.19281273,-1.5504912,1.0795115
1747672372.5450814,0.17053501,0.8369943,0.9077099,-0.19281273,-1.5504912,1.0795115
1747672372.5460048,0.34869677,0.8428517,0.64705676,0.10972215,-1.4993585,1.1167958
1747672372.5469184,0.34869677,0.8428517,0.64705676,0.10972215,-1.4993585,1.1167958
1747672372.5477822,0.34869677,0.8428517,0.64705676,0.10972215,-1.4993585,1.1167958
1747672372.5488722,0.34869677,0.8428517,0.64705676,0.10972215,-1.4993585,1.1167958
1747672372.549667,0.34869677,0.8428517,0.64705676,0.10972215,-1.4993585,1.1167958
1747672372.5504653,0.34869677,0.8428517,0.64705676,0.10972215,-1.4993585,1.1167958
1747672372.5512156,0.34869677,0.8428517,0.64705676,0.10972215,-1.4993585,1.1167958
1747672372.5590909,0.34869677,0.8428517,0.64705676,0.10972215,-1.4993585,1.1167958
1747672372.5603642,0.34869677,0.8428517,0.64705676,0.10972215,-1.4993585,1.1167958
1747672372.5615108,0.40141317,0.8955681,0.35662866,0.040480018,-1.1020153,1.0784463
1747672372.562711,0.40141317,0.8955681,0.35662866,0.040480018,-1.1020153,1.0784463
1747672372.5636916,0.40141317,0.8955681,0.35662866,0.040480018,-1.1020153,1.0784463
1747672372.565131,0.40141317,0.8955681,0.35662866,0.040480018,-1.1020153,1.0784463
1747672372.566082,0.40141317,0.8955681,0.35662866,0.040480018,-1.1020153,1.0784463
1747672372.5669568,0.40141317,0.8955681,0.35662866,0.040480018,-1.1020153,1.0784463
1747672372.567801,0.40141317,0.8955681,0.35662866,0.040480018,-1.1020153,1.0784463
1747672372.5687883,0.40141317,0.8955681,0.35662866,0.040480018,-1.1020153,1.0784463
1747672372.5697198,0.40141317,0.8955681,0.35662866,0.040480018,-1.1020153,1.0784463
1747672372.5707493,0.40141317,0.8955681,0.35662866,0.040480018,-1.1020153,1.0784463
1747672372.5716813,0.44485536,0.9458438,0.19555087,-0.29507804,-0.5278381,1.0262483
1747672372.5726426,0.44485536,0.9458438,0.19555087,-0.29507804,-0.5278381,1.0262483
1747672372.5736554,0.5151438,0.94193894,0.18432423,-0.7201182,0.047404233,0.9207873
1747672372.574449,0.5151438,0.94193894,0.18432423,-0.7201182,0.047404233,0.9207873
1747672372.575257,0.5151438,0.94193894,0.18432423,-0.7201182,0.047404233,0.9207873
1747672372.5764213,0.5151438,0.94193894,0.18432423,-0.7201182,0.047404233,0.9207873
1747672372.578218,0.5151438,0.94193894,0.18432423,-0.7201182,0.047404233,0.9207873
1747672372.579181,0.5151438,0.94193894,0.18432423,-0.7201182,0.047404233,0.9207873
1747672372.579977,0.5151438,0.94193894,0.18432423,-0.7201182,0.047404233,0.9207873
1747672372.5811298,0.5151438,0.94193894,0.18432423,-0.7201182,0.047404233,0.9207873
1747672372.582123,0.5151438,0.94193894,0.18432423,-0.7201182,0.047404233,0.9207873
1747672372.583065,0.5151438,0.94193894,0.18432423,-0.7201182,0.047404233,0.9207873
1747672372.583926,0.53027534,0.92095006,0.29219753,-1.0833731,0.5075981,0.7695198
1747672372.5847666,0.53027534,0.92095006,0.29219753,-1.0833731,0.5075981,0.7695198
1747672372.58566,0.53027534,0.92095006,0.29219753,-1.0833731,0.5075981,0.7695198
1747672372.5865216,0.53027534,0.92095006,0.29219753,-1.0833731,0.5075981,0.7695198
1747672372.5872922,0.53027534,0.92095006,0.29219753,-1.0833731,0.5075981,0.7695198
1747672372.5880196,0.53027534,0.92095006,0.29219753,-1.0833731,0.5075981,0.7695198
1747672372.5887644,0.53027534,0.92095006,0.29219753,-1.0833731,0.5075981,0.7695198
1747672372.5895221,0.53027534,0.92095006,0.29219753,-1.0833731,0.5075981,0.7695198
1747672372.5902781,0.53027534,0.92095006,0.29219753,-1.0833731,0.5075981,0.7695198
1747672372.591062,0.53027534,0.92095006,0.29219753,-1.0833731,0.5075981,0.7695198
1747672372.5917969,0.53027534,0.92095006,0.29219753,-1.0833731,0.5075981,0.7695198
1747672372.5926256,0.53027534,0.92095006,0.29219753,-1.0833731,0.5075981,0.7695198
1747672372.5934443,0.53027534,0.92095006,0.29219753,-1.0833731,0.5075981,0.7695198
1747672372.5942245,0.53027534,0.92095006,0.29219753,-1.0833731,0.5075981,0.7695198
1747672372.5949981,0.53027534,0.92095006,0.29219753,-1.0833731,0.5075981,0.7695198
1747672372.5955346,0.53027534,0.92095006,0.29219753,-1.0833731,0.5075981,0.7695198
1747672372.5963402,0.53027534,0.92095006,0.29219753,-1.0833731,0.5075981,0.7695198
1747672372.5971427,0.5273467,0.9756189,0.5206351,-1.2112048,0.48629284,0.6267745
1747672372.597896,0.5273467,0.9756189,0.5206351,-1.2112048,0.48629284,0.6267745
1747672372.5987165,0.5273467,0.9756189,0.5206351,-1.2112048,0.48629284,0.6267745
1747672372.5994859,0.5273467,0.9756189,0.5206351,-1.2112048,0.48629284,0.6267745
1747672372.6002657,0.5273467,0.9756189,0.5206351,-1.2112048,0.48629284,0.6267745
1747672372.6010528,0.5273467,0.9756189,0.5206351,-1.2112048,0.48629284,0.6267745
1747672372.6018326,0.5273467,0.9756189,0.5206351,-1.2112048,0.48629284,0.6267745
1747672372.6026547,0.5273467,0.9756189,0.5206351,-1.2112048,0.48629284,0.6267745
1747672372.6034486,0.5273467,0.9756189,0.5206351,-1.2112048,0.48629284,0.6267745
1747672372.60428,0.5273467,0.9756189,0.5206351,-1.2112048,0.48629284,0.6267745
1747672372.6051338,0.5273467,0.9756189,0.5206351,-1.2112048,0.48629284,0.6267745
1747672372.6059444,0.5273467,0.9756189,0.5206351,-1.2112048,0.48629284,0.6267745
1747672372.61553,0.43948612,1.0063701,0.71929777,-1.042893,-0.11345058,0.46485442
1747672372.6166236,0.43948612,1.0063701,0.71929777,-1.042893,-0.11345058,0.46485442
1747672372.617666,0.43948612,1.0063701,0.71929777,-1.042893,-0.11345058,0.46485442
1747672372.6186814,0.43948612,1.0063701,0.71929777,-1.042893,-0.11345058,0.46485442
1747672372.6197844,0.43948612,1.0063701,0.71929777,-1.042893,-0.11345058,0.46485442
1747672372.6208396,0.43753365,1.0097868,0.8164325,-0.79894775,-0.6588656,0.40946072
1747672372.6217892,0.43753365,1.0097868,0.8164325,-0.79894775,-0.6588656,0.40946072
1747672372.6226368,0.43753365,1.0097868,0.8164325,-0.79894775,-0.6588656,0.40946072
1747672372.6234896,0.43753365,1.0097868,0.8164325,-0.79894775,-0.6588656,0.40946072
1747672372.6242929,0.43753365,1.0097868,0.8164325,-0.79894775,-0.6588656,0.40946072
1747672372.6265311,0.43753365,1.0097868,0.8164325,-0.79894775,-0.6588656,0.40946072
1747672372.6273844,0.43753365,1.0097868,0.8164325,-0.79894775,-0.6588656,0.40946072
1747672372.6282113,0.43753365,1.0097868,0.8164325,-0.79894775,-0.6588656,0.40946072
1747672372.629017,0.43753365,1.0097868,0.8164325,-0.79894775,-0.6588656,0.40946072
1747672372.6301794,0.43753365,1.0097868,0.8164325,-0.79894775,-0.6588656,0.40946072
1747672372.6313372,0.51075083,0.96829706,0.82765913,-0.4857602,-1.0977542,0.3242396
1747672372.6329436,0.51075083,0.96829706,0.82765913,-0.4857602,-1.0977542,0.3242396
1747672372.6339467,0.51075083,0.96829706,0.82765913,-0.4857602,-1.0977542,0.3242396
1747672372.6347702,0.51075083,0.96829706,0.82765913,-0.4857602,-1.0977542,0.3242396
1747672372.6357293,0.51075083,0.96829706,0.82765913,-0.4857602,-1.0977542,0.3242396
1747672372.63654,0.51075083,0.96829706,0.82765913,-0.4857602,-1.0977542,0.3242396
1747672372.6377199,0.51075083,0.96829706,0.82765913,-0.4857602,-1.0977542,0.3242396
1747672372.639336,0.51075083,0.96829706,0.82765913,-0.4857602,-1.0977542,0.3242396
1747672372.6401663,0.51075083,0.96829706,0.82765913,-0.27377275,-1.145691,0.20599535
1747672372.640922,0.5317397,0.9512131,0.724667,-0.27377275,-1.145691,0.20599535
1747672372.6417332,0.5317397,0.9512131,0.724667,-0.27377275,-1.145691,0.20599535
1747672372.642511,0.5317397,0.9512131,0.724667,-0.27377275,-1.145691,0.20599535
1747672372.643295,0.5317397,0.9512131,0.724667,-0.27377275,-1.145691,0.20599535
1747672372.6440918,0.5317397,0.9512131,0.724667,-0.27377275,-1.145691,0.20599535
1747672372.6448562,0.5317397,0.9512131,0.724667,-0.27377275,-1.145691,0.20599535
1747672372.6456103,0.5317397,0.9512131,0.724667,-0.27377275,-1.145691,0.20599535
1747672372.6463826,0.5317397,0.9512131,0.724667,-0.27377275,-1.145691,0.20599535
1747672372.647175,0.5317397,0.9512131,0.724667,-0.27377275,-1.145691,0.20599535
1747672372.647919,0.5317397,0.9512131,0.724667,-0.27377275,-1.145691,0.20599535
1747672372.648677,0.5317397,0.9512131,0.724667,-0.27377275,-1.145691,0.20599535
1747672372.6494853,0.5317397,0.9512131,0.724667,-0.27377275,-1.145691,0.20599535
1747672372.6502635,0.5068459,0.9438914,0.6143531,-0.29188225,-0.8335688,0.1580585
1747672372.6510293,0.5068459,0.9438914,0.6143531,-0.29188225,-0.8335688,0.1580585
1747672372.6517918,0.5068459,0.9438914,0.6143531,-0.29188225,-0.8335688,0.1580585
1747672372.652578,0.5068459,0.9438914,0.6143531,-0.29188225,-0.8335688,0.1580585
1747672372.6533425,0.5068459,0.9438914,0.6143531,-0.29188225,-0.8335688,0.1580585
1747672372.654094,0.5068459,0.9438914,0.6143531,-0.29188225,-0.8335688,0.1580585
1747672372.654822,0.5068459,0.9438914,0.6143531,-0.29188225,-0.8335688,0.1580585
1747672372.6555588,0.48878568,0.93949836,0.5611486,-0.29188225,-0.8335688,0.1580585
1747672372.656307,0.48878568,0.93949836,0.5611486,-0.4165181,-0.4671181,0.12929638
1747672372.6570768,0.48878568,0.93949836,0.5611486,-0.4165181,-0.4671181,0.12929638
1747672372.6578832,0.48878568,0.93949836,0.5611486,-0.4165181,-0.4671181,0.12929638
1747672372.6586418,0.48878568,0.93949836,0.5611486,-0.4165181,-0.4671181,0.12929638
1747672372.6604657,0.48878568,0.93949836,0.5611486,-0.4165181,-0.4671181,0.12929638
1747672372.6614747,0.48878568,0.93949836,0.5611486,-0.4165181,-0.4671181,0.12929638
1747672372.6622808,0.48878568,0.93949836,0.5611486,-0.4165181,-0.4671181,0.12929638
1747672372.6630726,0.48878568,0.93949836,0.5611486,-0.4165181,-0.4671181,0.12929638
1747672372.6640615,0.48878568,0.93949836,0.5611486,-0.4165181,-0.4671181,0.12929638
1747672372.6650243,0.4594988,0.9341291,0.592388,-0.4165181,-0.4671181,0.12929638
1747672372.6659572,0.4594988,0.9341291,0.592388,-0.4165181,-0.4671181,0.12929638
1747672372.6669345,0.4594988,0.9341291,0.592388,-0.4165181,-0.4671181,0.12929638
1747672372.6678493,0.4594988,0.9341291,0.592388,-0.5368929,-0.20825905,0.10905637
1747672372.6697793,0.4594988,0.9341291,0.592388,-0.5368929,-0.20825905,0.10905637
1747672372.670849,0.4594988,0.9341291,0.592388,-0.5368929,-0.20825905,0.10905637
1747672372.6716504,0.4594988,0.9341291,0.592388,-0.5368929,-0.20825905,0.10905637
1747672372.6727962,0.4594988,0.9341291,0.592388,-0.5368929,-0.20825905,0.10905637
1747672372.673639,0.4594988,0.9341291,0.592388,-0.5368929,-0.20825905,0.10905637
1747672372.6751695,0.4594988,0.9341291,0.592388,-0.5368929,-0.20825905,0.10905637
1747672372.675989,0.4594988,0.9341291,0.592388,-0.5368929,-0.20825905,0.10905637
1747672372.6767712,0.4594988,0.9341291,0.592388,-0.5368929,-0.20825905,0.10905637
1747672372.6777213,0.4594988,0.9341291,0.592388,-0.5368929,-0.20825905,0.10905637
1747672372.6787226,0.4594988,0.9341291,0.592388,-0.5368929,-0.20825905,0.10905637
1747672372.679679,0.4463197,0.912164,0.6758555,-0.5709813,-0.065513715,0.09840373
1747672372.6804826,0.4463197,0.912164,0.6758555,-0.5709813,-0.065513715,0.09840373
1747672372.6813629,0.4463197,0.912164,0.6758555,-0.5709813,-0.065513715,0.09840373
1747672372.682302,0.4463197,0.912164,0.6758555,-0.5709813,-0.065513715,0.09840373
1747672372.683306,0.4463197,0.912164,0.6758555,-0.5709813,-0.065513715,0.09840373
1747672372.6847007,0.5044053,0.93168855,0.76469237,-0.5709813,-0.065513715,0.09840373
1747672372.6856549,0.5044053,0.93168855,0.76469237,-0.5709813,-0.065513715,0.09840373
1747672372.6867888,0.5044053,0.93168855,0.76469237,-0.49108654,-0.120907426,0.07709846
1747672372.688159,0.5044053,0.93168855,0.76469237,-0.49108654,-0.120907426,0.07709846
1747672372.689291,0.5044053,0.93168855,0.76469237,-0.49108654,-0.120907426,0.07709846
1747672372.6900864,0.5044053,0.93168855,0.76469237,-0.49108654,-0.120907426,0.07709846
1747672372.6910517,0.5044053,0.93168855,0.76469237,-0.49108654,-0.120907426,0.07709846
1747672372.6918383,0.5044053,0.93168855,0.76469237,-0.49108654,-0.120907426,0.07709846
1747672372.6926486,0.5044053,0.93168855,0.76469237,-0.49108654,-0.120907426,0.07709846
1747672372.6934254,0.5044053,0.93168855,0.76469237,-0.49108654,-0.120907426,0.07709846
1747672372.6942358,0.5044053,0.93168855,0.76469237,-0.49108654,-0.120907426,0.07709846
1747672372.6949975,0.5044053,0.93168855,0.76469237,-0.49108654,-0.120907426,0.07709846
1747672372.695533,0.49513116,0.95951104,0.78128827,-0.32170963,-0.39254966,-0.016644744
1747672372.6962953,0.49513116,0.95951104,0.78128827,-0.32170963,-0.39254966,-0.016644744
1747672372.6970205,0.49513116,0.95951104,0.78128827,-0.32170963,-0.39254966,-0.016644744
1747672372.6977508,0.49513116,0.95951104,0.78128827,-0.32170963,-0.39254966,-0.016644744
1747672372.698537,0.49513116,0.95951104,0.78128827,-0.32170963,-0.39254966,-0.016644744
1747672372.6992965,0.49513116,0.95951104,0.78128827,-0.32170963,-0.39254966,-0.016644744
1747672372.7000453,0.49513116,0.95951104,0.78128827,-0.32170963,-0.39254966,-0.016644744
1747672372.7009423,0.49513116,0.95951104,0.78128827,-0.32170963,-0.39254966,-0.016644744
1747672372.7017028,0.49513116,0.95951104,0.78128827,-0.32170963,-0.39254966,-0.016644744
1747672372.7024634,0.49513116,0.95951104,0.78128827,-0.32170963,-0.39254966,-0.016644744
1747672372.7032375,0.49513116,0.95951104,0.78128827,-0.32170963,-0.39254966,-0.016644744
1747672372.7039998,0.49513116,0.95951104,0.78128827,-0.32170963,-0.39254966,-0.016644744
1747672372.7047691,0.48341638,0.95072496,0.7720141,-0.18855166,-0.57790554,-0.058190025
1747672372.7055802,0.48341638,0.95072496,0.7720141,-0.18855166,-0.57790554,-0.058190025
1747672372.7064095,0.48341638,0.95072496,0.7720141,-0.18855166,-0.57790554,-0.058190025
1747672372.707179,0.48341638,0.95072496,0.7720141,-0.18855166,-0.57790554,-0.058190025
1747672372.7091658,0.48341638,0.95072496,0.7720141,-0.18855166,-0.57790554,-0.058190025
1747672372.7101336,0.48341638,0.95072496,0.7720141,-0.18855166,-0.57790554,-0.058190025
1747672372.7109349,0.48341638,0.95072496,0.7720141,-0.18855166,-0.57790554,-0.058190025
1747672372.7117834,0.48341638,0.95072496,0.7720141,-0.18855166,-0.57790554,-0.058190025
1747672372.7125823,0.48341638,0.95072496,0.7720141,-0.18855166,-0.57790554,-0.058190025
1747672372.713391,0.48341638,0.95072496,0.7720141,-0.18855166,-0.57790554,-0.058190025
1747672372.7145422,0.48341638,0.95072496,0.7720141,-0.09480847,-0.55979604,-0.090147935
1747672372.7154427,0.50928646,0.92095006,0.7764071,-0.09480847,-0.55979604,-0.090147935
1747672372.7162728,0.50928646,0.92095006,0.7764071,-0.09480847,-0.55979604,-0.090147935
1747672372.71716,0.50928646,0.92095006,0.7764071,-0.09480847,-0.55979604,-0.090147935
1747672372.7182674,0.50928646,0.92095006,0.7764071,-0.09480847,-0.55979604,-0.090147935
1747672372.7246969,0.50928646,0.92095006,0.7764071,-0.09480847,-0.55979604,-0.090147935
1747672372.7263885,0.50928646,0.92095006,0.7764071,-0.09480847,-0.55979604,-0.090147935
1747672372.7272105,0.50928646,0.92095006,0.7764071,-0.09480847,-0.55979604,-0.090147935
1747672372.7286782,0.50928646,0.92095006,0.7764071,-0.036218964,-0.4490086,-0.11997532
1747672372.7306151,0.50928646,0.92095006,0.7764071,-0.036218964,-0.4490086,-0.11997532
1747672372.7320628,0.50928646,0.92095006,0.7764071,-0.036218964,-0.4490086,-0.11997532
1747672372.7330716,0.50928646,0.92095006,0.7764071,-0.036218964,-0.4490086,-0.11997532
1747672372.7345421,0.50928646,0.92095006,0.7764071,-0.036218964,-0.4490086,-0.11997532
1747672372.735838,0.50928646,0.92095006,0.7764071,-0.036218964,-0.4490086,-0.11997532
1747672372.7366493,0.50928646,0.92095006,0.7764071,-0.036218964,-0.4490086,-0.11997532
1747672372.7374701,0.49366683,0.8887345,0.73150057,0.022370536,-0.27856645,-0.15086797
1747672372.7388358,0.49366683,0.8887345,0.73150057,0.022370536,-0.27856645,-0.15086797
1747672372.7397032,0.49366683,0.8887345,0.73150057,0.022370536,-0.27856645,-0.15086797
1747672372.7405114,0.49366683,0.8887345,0.73150057,0.022370536,-0.27856645,-0.15086797
1747672372.7413273,0.49366683,0.8887345,0.73150057,0.022370536,-0.27856645,-0.15086797
1747672372.7423375,0.49366683,0.8887345,0.73150057,0.022370536,-0.27856645,-0.15086797
1747672372.7431335,0.49366683,0.8887345,0.73150057,0.022370536,-0.27856645,-0.15086797
1747672372.743903,0.49366683,0.8887345,0.73150057,0.022370536,-0.27856645,-0.15086797
1747672372.744757,0.49366683,0.8887345,0.73150057,0.022370536,-0.27856645,-0.15086797
1747672372.745524,0.49366683,0.8887345,0.73150057,0.022370536,-0.27856645,-0.15086797
1747672372.746291,0.49366683,0.8887345,0.73150057,0.022370536,-0.27856645,-0.15086797
1747672372.747072,0.49366683,0.8887345,0.73150057,0.022370536,-0.27856645,-0.15086797
1747672372.7478309,0.49366683,0.8887345,0.73150057,0.022370536,-0.27856645,-0.15086797
1747672372.7485776,0.49366683,0.8887345,0.73150057,0.022370536,-0.27856645,-0.15086797
1747672372.7493296,0.49366683,0.8887345,0.73150057,0.022370536,-0.27856645,-0.15086797
1747672372.7500746,0.51075083,0.8989849,0.648033,0.015978955,-0.14327796,-0.1732385
1747672372.750826,0.51075083,0.8989849,0.648033,0.015978955,-0.14327796,-0.1732385
1747672372.7515936,0.51075083,0.8989849,0.648033,0.015978955,-0.14327796,-0.1732385
1747672372.7523499,0.51075083,0.8989849,0.648033,0.015978955,-0.14327796,-0.1732385
