timestamp,acc_x,acc_y,acc_z,gyro_x,gyro_y,gyro_z
1747679442.3459175,0.09780595,0.19268319,0.94431853,-0.17457008,-0.2549975,-0.028495802
1747679442.3464656,0.09780595,0.19268319,0.94431853,-0.17457008,-0.2549975,-0.028495802
1747679442.3469918,0.09780595,0.19268319,0.94431853,-0.17457008,-0.2549975,-0.028495802
1747679442.347511,0.09780595,0.19268319,0.94431853,-0.17457008,-0.2549975,-0.028495802
1747679442.3480575,0.09780595,0.19268319,0.94431853,-0.17457008,-0.2549975,-0.028495802
1747679442.3486092,0.09780595,0.19268319,0.94431853,-0.17457008,-0.2549975,-0.028495802
1747679442.3491478,0.09780595,0.19268319,0.94431853,-0.17457008,-0.2549975,-0.028495802
1747679442.3496802,0.09780595,0.19268319,0.94431853,-0.17457008,-0.2549975,-0.028495802
1747679442.3502176,0.09780595,0.19268319,0.94431853,-0.17457008,-0.2549975,-0.028495802
1747679442.3507507,0.09780595,0.19268319,0.94431853,-0.17457008,-0.2549975,-0.028495802
1747679442.3512704,0.09780595,0.19268319,0.94431853,-0.17457008,-0.2549975,-0.028495802
1747679442.3517897,0.09780595,0.19268319,0.94431853,-0.17457008,-0.2549975,-0.028495802
1747679442.3523083,0.09780595,0.19268319,0.94431853,-0.17457008,-0.2549975,-0.028495802
1747679442.3528268,0.18761902,0.18487337,1.057561,-0.17457008,-0.2549975,-0.028495802
1747679442.3533633,0.18761902,0.18487337,1.057561,-0.17457008,-0.2549975,-0.028495802
1747679442.353899,0.18761902,0.18487337,1.057561,-0.17457008,-0.2549975,-0.028495802
1747679442.3544192,0.18761902,0.18487337,1.057561,-0.17457008,-0.2549975,-0.028495802
1747679442.3549395,0.18761902,0.18487337,1.057561,-0.20013641,-0.23475747,0.022636853
1747679442.3554578,0.18761902,0.18487337,1.057561,-0.20013641,-0.23475747,0.022636853
1747679442.355976,0.18761902,0.18487337,1.057561,-0.20013641,-0.23475747,0.022636853
1747679442.3564942,0.18761902,0.18487337,1.057561,-0.20013641,-0.23475747,0.022636853
1747679442.3570125,0.18761902,0.18487337,1.057561,-0.20013641,-0.23475747,0.022636853
1747679442.3575306,0.18761902,0.18487337,1.057561,-0.20013641,-0.23475747,0.022636853
1747679442.3580487,0.18761902,0.18487337,1.057561,-0.20013641,-0.23475747,0.022636853
1747679442.358567,0.18761902,0.18487337,1.057561,-0.20013641,-0.23475747,0.022636853
1747679442.3590863,0.18761902,0.18487337,1.057561,-0.20013641,-0.23475747,0.022636853
1747679442.359607,0.18761902,0.18487337,1.057561,-0.20013641,-0.23475747,0.022636853
1747679442.3601453,0.18761902,0.18487337,1.057561,-0.20013641,-0.23475747,0.022636853
1747679442.3606925,0.18761902,0.18487337,1.057561,-0.20013641,-0.23475747,0.022636853
1747679442.3612254,0.18761902,0.18487337,1.057561,-0.20013641,-0.23475747,0.022636853
1747679442.361745,0.18761902,0.18487337,1.057561,-0.20013641,-0.23475747,0.022636853
1747679442.3622642,0.18761902,0.18487337,1.057561,-0.20013641,-0.23475747,0.022636853
1747679442.3627822,0.18761902,0.18487337,1.057561,-0.20013641,-0.23475747,0.022636853
1747679442.3633456,0.18761902,0.18487337,1.057561,-0.1447427,-0.021704746,-0.0071905297
1747679442.3639271,0.18761902,0.18487337,1.057561,-0.1447427,-0.021704746,-0.0071905297
1747679442.3644738,0.2647411,0.16193199,1.1615294,-0.1447427,-0.021704746,-0.0071905297
1747679442.3650064,0.2647411,0.16193199,1.1615294,-0.1447427,-0.021704746,-0.0071905297
1747679442.365526,0.2647411,0.16193199,1.1615294,-0.1447427,-0.021704746,-0.0071905297
1747679442.366044,0.2647411,0.16193199,1.1615294,-0.1447427,-0.021704746,-0.0071905297
1747679442.3665624,0.2647411,0.16193199,1.1615294,-0.1447427,-0.021704746,-0.0071905297
1747679442.367081,0.2647411,0.16193199,1.1615294,-0.1447427,-0.021704746,-0.0071905297
1747679442.3676007,0.2647411,0.16193199,1.1615294,-0.1447427,-0.021704746,-0.0071905297
1747679442.3681185,0.2647411,0.16193199,1.1615294,-0.1447427,-0.021704746,-0.0071905297
1747679442.3686366,0.2647411,0.16193199,1.1615294,-0.1447427,-0.021704746,-0.0071905297
1747679442.3691666,0.2647411,0.16193199,1.1615294,-0.1447427,-0.021704746,-0.0071905297
1747679442.3697016,0.2647411,0.16193199,1.1615294,-0.1447427,-0.021704746,-0.0071905297
1747679442.3702388,0.2647411,0.16193199,1.1615294,-0.1447427,-0.021704746,-0.0071905297
1747679442.3708074,0.27694398,0.16437255,1.189352,-0.1447427,-0.021704746,-0.0071905297
1747679442.371344,0.27694398,0.16437255,1.189352,-0.05526055,0.2850912,-0.052996866
1747679442.3718674,0.27694398,0.16437255,1.189352,-0.05526055,0.2850912,-0.052996866
1747679442.3723862,0.27694398,0.16437255,1.189352,-0.05526055,0.2850912,-0.052996866
1747679442.372905,0.27694398,0.16437255,1.189352,-0.05526055,0.2850912,-0.052996866
1747679442.373435,0.27694398,0.16437255,1.189352,-0.05526055,0.2850912,-0.052996866
1747679442.3739703,0.27694398,0.16437255,1.189352,-0.05526055,0.2850912,-0.052996866
1747679442.3745012,0.27694398,0.16437255,1.189352,-0.05526055,0.2850912,-0.052996866
1747679442.3750215,0.27694398,0.16437255,1.189352,-0.05526055,0.2850912,-0.052996866
1747679442.3755398,0.27694398,0.16437255,1.189352,-0.05526055,0.2850912,-0.052996866
1747679442.3760602,0.27694398,0.16437255,1.189352,-0.05526055,0.2850912,-0.052996866
1747679442.376602,0.27694398,0.16437255,1.189352,-0.05526055,0.2850912,-0.052996866
1747679442.3771412,0.27694398,0.16437255,1.189352,-0.05526055,0.2850912,-0.052996866
1747679442.3776724,0.27694398,0.16437255,1.189352,-0.05526055,0.2850912,-0.052996866
1747679442.378232,0.27694398,0.16437255,1.189352,-0.05526055,0.2850912,-0.052996866
1747679442.3787932,0.27694398,0.16437255,1.189352,-0.05526055,0.2850912,-0.052996866
1747679442.3793385,0.27694398,0.16437255,1.189352,-0.05526055,0.2850912,-0.052996866
1747679442.379883,0.27694398,0.16437255,1.189352,-0.05526055,0.2850912,-0.052996866
1747679442.3804352,0.27694398,0.16437255,1.189352,-0.05526055,0.2850912,-0.052996866
1747679442.3809922,0.27694398,0.16437255,1.189352,-0.05526055,0.2850912,-0.052996866
1747679442.381535,0.27694398,0.16437255,1.189352,-0.05526055,0.2850912,-0.052996866
1747679442.3820677,0.27694398,0.16437255,1.189352,-0.05526055,0.2850912,-0.052996866
1747679442.382616,0.2613243,0.16827747,1.1581126,0.044874232,0.57271236,-0.11371689
1747679442.3831735,0.2613243,0.16827747,1.1581126,0.044874232,0.57271236,-0.11371689
1747679442.3921607,0.2613243,0.16827747,1.1581126,0.044874232,0.57271236,-0.11371689
1747679442.3927212,0.2613243,0.16827747,1.1581126,0.044874232,0.57271236,-0.11371689
1747679442.3932805,0.2613243,0.16827747,1.1581126,0.044874232,0.57271236,-0.11371689
1747679442.3942587,0.2613243,0.16827747,1.1581126,0.044874232,0.57271236,-0.11371689
1747679442.394817,0.16565385,0.19024262,1.0517037,0.06511424,0.7143924,-0.122239
1747679442.3953621,0.16565385,0.19024262,1.0517037,0.06511424,0.7143924,-0.122239
1747679442.395912,0.16565385,0.19024262,1.0517037,0.06511424,0.7143924,-0.122239
1747679442.3964446,0.16565385,0.19024262,1.0517037,0.06511424,0.7143924,-0.122239
1747679442.396991,0.16565385,0.19024262,1.0517037,0.06511424,0.7143924,-0.122239
1747679442.3975413,0.16565385,0.19024262,1.0517037,0.06511424,0.7143924,-0.122239
1747679442.3980742,0.16565385,0.19024262,1.0517037,0.06511424,0.7143924,-0.122239
1747679442.3985946,0.16565385,0.19024262,1.0517037,0.06511424,0.7143924,-0.122239
1747679442.3991132,0.16565385,0.19024262,1.0517037,0.06511424,0.7143924,-0.122239
1747679442.3996313,0.16565385,0.19024262,1.0517037,0.06511424,0.7143924,-0.122239
1747679442.4001503,0.16565385,0.19024262,1.0517037,0.003328949,0.6717819,-0.05725792
1747679442.400669,0.113425605,0.20342171,0.97897464,0.003328949,0.6717819,-0.05725792
1747679442.4011877,0.113425605,0.20342171,0.97897464,0.003328949,0.6717819,-0.05725792
1747679442.401706,0.113425605,0.20342171,0.97897464,0.003328949,0.6717819,-0.05725792
1747679442.402224,0.113425605,0.20342171,0.97897464,0.003328949,0.6717819,-0.05725792
1747679442.4027426,0.113425605,0.20342171,0.97897464,0.003328949,0.6717819,-0.05725792
1747679442.4032605,0.113425605,0.20342171,0.97897464,0.003328949,0.6717819,-0.05725792
1747679442.4037938,0.113425605,0.20342171,0.97897464,0.003328949,0.6717819,-0.05725792
1747679442.404337,0.113425605,0.20342171,0.97897464,0.003328949,0.6717819,-0.05725792
1747679442.404857,0.113425605,0.20342171,0.97897464,0.003328949,0.6717819,-0.05725792
1747679442.4053752,0.113425605,0.20342171,0.97897464,0.003328949,0.6717819,-0.05725792
1747679442.405893,0.113425605,0.20342171,0.97897464,0.003328949,0.6717819,-0.05725792
1747679442.4064133,0.113425605,0.20342171,0.97897464,0.003328949,0.6717819,-0.05725792
1747679442.4069338,0.113425605,0.20342171,0.97897464,0.003328949,0.6717819,-0.05725792
1747679442.4074545,0.113425605,0.20342171,0.97897464,0.003328949,0.6717819,-0.05725792
1747679442.4079995,0.113425605,0.20342171,0.97897464,0.003328949,0.6717819,-0.05725792
1747679442.408573,0.113425605,0.20342171,0.97897464,0.003328949,0.6717819,-0.05725792
1747679442.4091277,0.113425605,0.20342171,0.97897464,0.003328949,0.6717819,-0.05725792
1747679442.409665,0.113425605,0.20342171,0.97897464,0.003328949,0.6717819,-0.05725792
1747679442.4101892,0.113425605,0.20342171,0.97897464,0.003328949,0.6717819,-0.05725792
1747679442.4107413,0.113425605,0.20342171,0.97897464,0.003328949,0.6717819,-0.05725792
1747679442.4112992,0.11196126,0.2195295,0.93699676,0.003328949,0.6717819,-0.05725792
1747679442.4118533,0.11196126,0.2195295,0.93699676,-0.09147952,0.37031227,0.005592634
1747679442.4123886,0.11196126,0.2195295,0.93699676,-0.09147952,0.37031227,0.005592634
1747679442.412927,0.11196126,0.2195295,0.93699676,-0.09147952,0.37031227,0.005592634
1747679442.4134583,0.11196126,0.2195295,0.93699676,-0.09147952,0.37031227,0.005592634
1747679442.4139931,0.11196126,0.2195295,0.93699676,-0.09147952,0.37031227,0.005592634
1747679442.414527,0.11196126,0.2195295,0.93699676,-0.09147952,0.37031227,0.005592634
1747679442.4150598,0.11196126,0.2195295,0.93699676,-0.09147952,0.37031227,0.005592634
1747679442.4155908,0.11196126,0.2195295,0.93699676,-0.09147952,0.37031227,0.005592634
1747679442.4161222,0.11196126,0.2195295,0.93699676,-0.09147952,0.37031227,0.005592634
1747679442.416655,0.11196126,0.2195295,0.93699676,-0.09147952,0.37031227,0.005592634
1747679442.417205,0.11196126,0.2195295,0.93699676,-0.09147952,0.37031227,0.005592634
1747679442.417764,0.11196126,0.2195295,0.93699676,-0.09147952,0.37031227,0.005592634
1747679442.4183114,0.11196126,0.2195295,0.93699676,-0.09147952,0.37031227,0.005592634
1747679442.4188442,0.11196126,0.2195295,0.93699676,-0.09147952,0.37031227,0.005592634
1747679442.4193637,0.11196126,0.2195295,0.93699676,-0.09147952,0.37031227,0.005592634
1747679442.4198823,0.11196126,0.2195295,0.93699676,-0.09147952,0.37031227,0.005592634
1747679442.4204013,0.11196126,0.2195295,0.93699676,-0.09147952,0.37031227,0.005592634
1747679442.4209192,0.11196126,0.2195295,0.93699676,-0.09147952,0.37031227,0.005592634
1747679442.4214396,0.11196126,0.2195295,0.93699676,-0.09147952,0.37031227,0.005592634
1747679442.4219596,0.09194857,0.21367213,0.90966237,-0.17243955,0.1029311,0.029028434
1747679442.4224813,0.09194857,0.21367213,0.90966237,-0.17243955,0.1029311,0.029028434
1747679442.4230201,0.09194857,0.21367213,0.90966237,-0.17243955,0.1029311,0.029028434
1747679442.4235828,0.09194857,0.21367213,0.90966237,-0.17243955,0.1029311,0.029028434
1747679442.4241517,0.09194857,0.21367213,0.90966237,-0.17243955,0.1029311,0.029028434
1747679442.4247165,0.09194857,0.21367213,0.90966237,-0.17243955,0.1029311,0.029028434
1747679442.4252791,0.09194857,0.21367213,0.90966237,-0.17243955,0.1029311,0.029028434
1747679442.4258518,0.09194857,0.21367213,0.90966237,-0.17243955,0.1029311,0.029028434
1747679442.4263933,0.09194857,0.21367213,0.90966237,-0.17243955,0.1029311,0.029028434
1747679442.4269204,0.09194857,0.21367213,0.90966237,-0.17243955,0.1029311,0.029028434
1747679442.4274397,0.09194857,0.21367213,0.90966237,-0.17243955,0.1029311,0.029028434
1747679442.4279575,0.09194857,0.21367213,0.90966237,-0.17243955,0.1029311,0.029028434
1747679442.4284754,0.09194857,0.21367213,0.90966237,-0.17243955,0.1029311,0.029028434
1747679442.4289935,0.09194857,0.21367213,0.90966237,-0.17243955,0.1029311,0.029028434
1747679442.4295113,0.09194857,0.21367213,0.90966237,-0.17243955,0.1029311,0.029028434
1747679442.4300296,0.09194857,0.21367213,0.90966237,-0.17243955,0.1029311,0.029028434
1747679442.4305475,0.09194857,0.21367213,0.90966237,-0.17243955,0.1029311,0.029028434
1747679442.4310658,0.09194857,0.21367213,0.90966237,-0.25659537,-0.11757848,0.07483477
1747679442.4315848,0.06363793,0.21318401,0.97848654,-0.25659537,-0.11757848,0.07483477
1747679442.4321032,0.06363793,0.21318401,0.97848654,-0.25659537,-0.11757848,0.07483477
1747679442.4326217,0.06363793,0.21318401,0.97848654,-0.25659537,-0.11757848,0.07483477
1747679442.4331403,0.06363793,0.21318401,0.97848654,-0.25659537,-0.11757848,0.07483477
1747679442.4336762,0.06363793,0.21318401,0.97848654,-0.25659537,-0.11757848,0.07483477
1747679442.434218,0.06363793,0.21318401,0.97848654,-0.25659537,-0.11757848,0.07483477
1747679442.434738,0.06363793,0.21318401,0.97848654,-0.25659537,-0.11757848,0.07483477
1747679442.4352565,0.06363793,0.21318401,0.97848654,-0.25659537,-0.11757848,0.07483477
1747679442.4357746,0.06363793,0.21318401,0.97848654,-0.25659537,-0.11757848,0.07483477
1747679442.4362924,0.06363793,0.21318401,0.97848654,-0.25659537,-0.11757848,0.07483477
1747679442.4368103,0.06363793,0.21318401,0.97848654,-0.25659537,-0.11757848,0.07483477
1747679442.4375272,0.06363793,0.21318401,0.97848654,-0.25659537,-0.11757848,0.07483477
1747679442.438051,0.06363793,0.21318401,0.97848654,-0.25659537,-0.11757848,0.07483477
1747679442.438596,0.06363793,0.21318401,0.97848654,-0.25659537,-0.11757848,0.07483477
1747679442.439164,0.06363793,0.21318401,0.97848654,-0.25659537,-0.11757848,0.07483477
1747679442.4397166,0.06363793,0.21318401,0.97848654,-0.25659537,-0.11757848,0.07483477
1747679442.4402454,0.06363793,0.21318401,0.97848654,-0.25659537,-0.11757848,0.07483477
1747679442.440768,0.06363793,0.21318401,0.97848654,-0.25659537,-0.11757848,0.07483477
1747679442.4419534,0.06363793,0.21318401,0.97848654,-0.25659537,-0.11757848,0.07483477
1747679442.4425113,0.06363793,0.21318401,0.97848654,-0.25659537,-0.11757848,0.07483477
1747679442.443045,0.06363793,0.21318401,0.97848654,-0.25659537,-0.11757848,0.07483477
1747679442.4435651,0.06363793,0.21318401,0.97848654,-0.25659537,-0.11757848,0.07483477
1747679442.4441016,0.06363793,0.21318401,0.97848654,-0.27150908,-0.15699323,0.11851058
1747679442.4446378,0.06363793,0.21318401,0.97848654,-0.27150908,-0.15699323,0.11851058
1747679442.4451585,0.06363793,0.21318401,0.97848654,-0.27150908,-0.15699323,0.11851058
1747679442.4456775,0.09194857,0.20537417,1.057073,-0.27150908,-0.15699323,0.11851058
1747679442.4461966,0.09194857,0.20537417,1.057073,-0.27150908,-0.15699323,0.11851058
1747679442.4467149,0.09194857,0.20537417,1.057073,-0.27150908,-0.15699323,0.11851058
1747679442.4472337,0.09194857,0.20537417,1.057073,-0.27150908,-0.15699323,0.11851058
1747679442.4477599,0.09194857,0.20537417,1.057073,-0.27150908,-0.15699323,0.11851058
1747679442.4482784,0.09194857,0.20537417,1.057073,-0.27150908,-0.15699323,0.11851058
1747679442.4487967,0.09194857,0.20537417,1.057073,-0.27150908,-0.15699323,0.11851058
1747679442.4493148,0.09194857,0.20537417,1.057073,-0.27150908,-0.15699323,0.11851058
1747679442.4498327,0.09194857,0.20537417,1.057073,-0.27150908,-0.15699323,0.11851058
1747679442.4503508,0.09194857,0.20537417,1.057073,-0.27150908,-0.15699323,0.11851058
1747679442.45087,0.09194857,0.20537417,1.057073,-0.27150908,-0.15699323,0.11851058
1747679442.4513884,0.09194857,0.20537417,1.057073,-0.27150908,-0.15699323,0.11851058
1747679442.4519062,0.09194857,0.20537417,1.057073,-0.27150908,-0.15699323,0.11851058
1747679442.4524243,0.09194857,0.20537417,1.057073,-0.27150908,-0.15699323,0.11851058
1747679442.4529424,0.09194857,0.20537417,1.057073,-0.27150908,-0.15699323,0.11851058
1747679442.4534602,0.09194857,0.20537417,1.057073,-0.27150908,-0.15699323,0.11851058
1747679442.4539785,0.09194857,0.20537417,1.057073,-0.27150908,-0.15699323,0.11851058
1747679442.4545388,0.09194857,0.20537417,1.057073,-0.27150908,-0.15699323,0.11851058
1747679442.455107,0.09194857,0.20537417,1.057073,-0.27150908,-0.15699323,0.11851058
1747679442.4556556,0.09194857,0.20537417,1.057073,-0.27150908,-0.15699323,0.11851058
1747679442.456199,0.14271247,0.18048033,1.1566484,-0.21611536,-0.036618438,0.13768533
1747679442.4567313,0.14271247,0.18048033,1.1566484,-0.21611536,-0.036618438,0.13768533
1747679442.4572518,0.14271247,0.18048033,1.1566484,-0.21611536,-0.036618438,0.13768533
1747679442.4577708,0.14271247,0.18048033,1.1566484,-0.21611536,-0.036618438,0.13768533
1747679442.4582891,0.14271247,0.18048033,1.1566484,-0.21611536,-0.036618438,0.13768533
1747679442.4588075,0.14271247,0.18048033,1.1566484,-0.21611536,-0.036618438,0.13768533
1747679442.4593258,0.14271247,0.18048033,1.1566484,-0.21611536,-0.036618438,0.13768533
1747679442.459844,0.14271247,0.18048033,1.1566484,-0.21611536,-0.036618438,0.13768533
1747679442.4603622,0.14271247,0.18048033,1.1566484,-0.21611536,-0.036618438,0.13768533
1747679442.46088,0.14271247,0.18048033,1.1566484,-0.21611536,-0.036618438,0.13768533
1747679442.4613984,0.14271247,0.18048033,1.1566484,-0.21611536,-0.036618438,0.13768533
1747679442.4619164,0.14271247,0.18048033,1.1566484,-0.21611536,-0.036618438,0.13768533
1747679442.4624403,0.14271247,0.18048033,1.1566484,-0.21611536,-0.036618438,0.13768533
1747679442.4629583,0.14271247,0.18048033,1.1566484,-0.21611536,-0.036618438,0.13768533
1747679442.4634764,0.14271247,0.18048033,1.1566484,-0.21611536,-0.036618438,0.13768533
1747679442.4640281,0.14271247,0.18048033,1.1566484,-0.21611536,-0.036618438,0.13768533
1747679442.4645905,0.14271247,0.18048033,1.1566484,-0.21611536,-0.036618438,0.13768533
1747679442.4651113,0.14271247,0.18048033,1.1566484,-0.21611536,-0.036618438,0.13768533
1747679442.4656303,0.17492804,0.16974182,1.2044835,-0.077631086,0.11784479,0.120641105
1747679442.4661496,0.17492804,0.16974182,1.2044835,-0.077631086,0.11784479,0.120641105
1747679442.4666684,0.17492804,0.16974182,1.2044835,-0.077631086,0.11784479,0.120641105
1747679442.4671867,0.17492804,0.16974182,1.2044835,-0.077631086,0.11784479,0.120641105
1747679442.4677055,0.17492804,0.16974182,1.2044835,-0.077631086,0.11784479,0.120641105
1747679442.468224,0.17492804,0.16974182,1.2044835,-0.077631086,0.11784479,0.120641105
1747679442.4687421,0.17492804,0.16974182,1.2044835,-0.077631086,0.11784479,0.120641105
1747679442.4692993,0.17492804,0.16974182,1.2044835,-0.077631086,0.11784479,0.120641105
1747679442.469874,0.17492804,0.16974182,1.2044835,-0.077631086,0.11784479,0.120641105
1747679442.470426,0.17492804,0.16974182,1.2044835,-0.077631086,0.11784479,0.120641105
1747679442.470975,0.17492804,0.16974182,1.2044835,-0.077631086,0.11784479,0.120641105
1747679442.4715044,0.17492804,0.16974182,1.2044835,-0.077631086,0.11784479,0.120641105
1747679442.4720285,0.17492804,0.16974182,1.2044835,-0.077631086,0.11784479,0.120641105
1747679442.472571,0.17492804,0.16974182,1.2044835,-0.077631086,0.11784479,0.120641105
1747679442.4731135,0.17492804,0.16974182,1.2044835,-0.077631086,0.11784479,0.120641105
1747679442.4736478,0.17492804,0.16974182,1.2044835,-0.077631086,0.11784479,0.120641105
1747679442.4741998,0.17492804,0.16974182,1.2044835,-0.077631086,0.11784479,0.120641105
1747679442.474756,0.17492804,0.16974182,1.2044835,-0.077631086,0.11784479,0.120641105
1747679442.4752848,0.17492804,0.16974182,1.2044835,-0.077631086,0.11784479,0.120641105
1747679442.4758043,0.15979649,0.18438525,1.1781254,0.04700476,0.19241324,0.09507478
1747679442.4763236,0.15979649,0.18438525,1.1781254,0.04700476,0.19241324,0.09507478
1747679442.476842,0.15979649,0.18438525,1.1781254,0.04700476,0.19241324,0.09507478
1747679442.4773605,0.15979649,0.18438525,1.1781254,0.04700476,0.19241324,0.09507478
1747679442.4778788,0.15979649,0.18438525,1.1781254,0.04700476,0.19241324,0.09507478
1747679442.4783998,0.15979649,0.18438525,1.1781254,0.04700476,0.19241324,0.09507478
1747679442.478921,0.15979649,0.18438525,1.1781254,0.04700476,0.19241324,0.09507478
1747679442.4794958,0.15979649,0.18438525,1.1781254,0.04700476,0.19241324,0.09507478
1747679442.480017,0.15979649,0.18438525,1.1781254,0.04700476,0.19241324,0.09507478
1747679442.480538,0.15979649,0.18438525,1.1781254,0.04700476,0.19241324,0.09507478
1747679442.481059,0.15979649,0.18438525,1.1781254,0.04700476,0.19241324,0.09507478
1747679442.4815798,0.15979649,0.18438525,1.1781254,0.04700476,0.19241324,0.09507478
1747679442.482105,0.14612928,0.20000492,1.108325,0.13755217,0.26485118,0.09507478
1747679442.4826257,0.14612928,0.20000492,1.108325,0.13755217,0.26485118,0.09507478
1747679442.4831464,0.14612928,0.20000492,1.108325,0.13755217,0.26485118,0.09507478
1747679442.4836767,0.14612928,0.20000492,1.108325,0.13755217,0.26485118,0.09507478
1747679442.484244,0.14612928,0.20000492,1.108325,0.13755217,0.26485118,0.09507478
1747679442.4848025,0.14612928,0.20000492,1.108325,0.13755217,0.26485118,0.09507478
1747679442.4853559,0.14612928,0.20000492,1.108325,0.13755217,0.26485118,0.09507478
1747679442.4859076,0.14612928,0.20000492,1.108325,0.13755217,0.26485118,0.09507478
1747679442.4864504,0.14612928,0.20000492,1.108325,0.13755217,0.26485118,0.09507478
1747679442.4869857,0.14612928,0.20000492,1.108325,0.13755217,0.26485118,0.09507478
1747679442.487508,0.14612928,0.20000492,1.108325,0.13755217,0.26485118,0.09507478
1747679442.488029,0.14612928,0.20000492,1.108325,0.13755217,0.26485118,0.09507478
1747679442.4885497,0.14612928,0.20000492,1.108325,0.13755217,0.26485118,0.09507478
1747679442.4890716,0.14612928,0.20000492,1.108325,0.15353112,0.29254803,0.090813726
1747679442.4895928,0.14612928,0.20000492,1.108325,0.15353112,0.29254803,0.090813726
1747679442.4901142,0.15442722,0.21318401,1.074157,0.15353112,0.29254803,0.090813726
1747679442.4906352,0.15442722,0.21318401,1.074157,0.15353112,0.29254803,0.090813726
1747679442.4911566,0.15442722,0.21318401,1.074157,0.15353112,0.29254803,0.090813726
1747679442.4916778,0.15442722,0.21318401,1.074157,0.15353112,0.29254803,0.090813726
1747679442.4921985,0.15442722,0.21318401,1.074157,0.15353112,0.29254803,0.090813726
1747679442.4927194,0.15442722,0.21318401,1.074157,0.15353112,0.29254803,0.090813726
1747679442.4932427,0.15442722,0.21318401,1.074157,0.15353112,0.29254803,0.090813726
1747679442.4937649,0.15442722,0.21318401,1.074157,0.15353112,0.29254803,0.090813726
1747679442.4942958,0.15442722,0.21318401,1.074157,0.15353112,0.29254803,0.090813726
1747679442.494816,0.15442722,0.21318401,1.074157,0.15353112,0.29254803,0.090813726
1747679442.495334,0.15442722,0.21318401,1.074157,0.15353112,0.29254803,0.090813726
1747679442.4958522,0.15442722,0.21318401,1.074157,0.15353112,0.29254803,0.090813726
1747679442.4963703,0.15442722,0.21318401,1.074157,0.15353112,0.29254803,0.090813726
1747679442.4968886,0.15442722,0.21318401,1.074157,0.15353112,0.29254803,0.090813726
1747679442.4974065,0.15442722,0.21318401,1.074157,0.15353112,0.29254803,0.090813726
1747679442.4979248,0.15442722,0.21318401,1.074157,0.15353112,0.29254803,0.090813726
1747679442.4984512,0.15442722,0.21318401,1.074157,0.15353112,0.29254803,0.090813726
1747679442.4990056,0.15442722,0.21318401,1.074157,0.15353112,0.29254803,0.090813726
1747679442.4995587,0.15442722,0.21318401,1.074157,0.15353112,0.29254803,0.090813726
1747679442.500116,0.17297557,0.22489876,1.0556086,0.15353112,0.29254803,0.090813726
1747679442.5006793,0.17297557,0.22489876,1.0556086,0.15353112,0.29254803,0.090813726
1747679442.5012543,0.17297557,0.22489876,1.0556086,0.15353112,0.29254803,0.090813726
1747679442.501808,0.17297557,0.22489876,1.0556086,0.15353112,0.29254803,0.090813726
1747679442.502349,0.17297557,0.22489876,1.0556086,0.15353112,0.29254803,0.090813726
1747679442.5028946,0.17297557,0.22489876,1.0556086,0.15779218,0.25100276,0.07483477
1747679442.503439,0.17297557,0.22489876,1.0556086,0.15779218,0.25100276,0.07483477
1747679442.5039804,0.17297557,0.22489876,1.0556086,0.15779218,0.25100276,0.07483477
1747679442.5045156,0.17297557,0.22489876,1.0556086,0.15779218,0.25100276,0.07483477
1747679442.5050466,0.17297557,0.22489876,1.0556086,0.15779218,0.25100276,0.07483477
1747679442.5055726,0.17297557,0.22489876,1.0556086,0.15779218,0.25100276,0.07483477
1747679442.506099,0.17297557,0.22489876,1.0556086,0.15779218,0.25100276,0.07483477
1747679442.506628,0.17297557,0.22489876,1.0556086,0.15779218,0.25100276,0.07483477
1747679442.507162,0.17297557,0.22489876,1.0556086,0.15779218,0.25100276,0.07483477
1747679442.5077114,0.17297557,0.22489876,1.0556086,0.15779218,0.25100276,0.07483477
1747679442.508266,0.17297557,0.22489876,1.0556086,0.15779218,0.25100276,0.07483477
1747679442.50882,0.17297557,0.22489876,1.0556086,0.15779218,0.25100276,0.07483477
1747679442.5093613,0.17297557,0.22489876,1.0556086,0.15779218,0.25100276,0.07483477
1747679442.5098948,0.17297557,0.22489876,1.0556086,0.15779218,0.25100276,0.07483477
1747679442.5104163,0.17297557,0.22489876,1.0556086,0.15779218,0.25100276,0.07483477
1747679442.5109377,0.16663007,0.22831555,1.0521919,0.1631185,0.12956269,0.043942124
1747679442.5114567,0.16663007,0.22831555,1.0521919,0.1631185,0.12956269,0.043942124
1747679442.5119755,0.16663007,0.22831555,1.0521919,0.1631185,0.12956269,0.043942124
1747679442.5125043,0.16663007,0.22831555,1.0521919,0.1631185,0.12956269,0.043942124
1747679442.5130432,0.16663007,0.22831555,1.0521919,0.1631185,0.12956269,0.043942124
1747679442.5135763,0.16663007,0.22831555,1.0521919,0.1631185,0.12956269,0.043942124
1747679442.5141156,0.16663007,0.22831555,1.0521919,0.1631185,0.12956269,0.043942124
1747679442.5146573,0.16663007,0.22831555,1.0521919,0.1631185,0.12956269,0.043942124
1747679442.515181,0.16663007,0.22831555,1.0521919,0.1631185,0.12956269,0.043942124
1747679442.5156994,0.16663007,0.22831555,1.0521919,0.1631185,0.12956269,0.043942124
1747679442.5162206,0.16663007,0.22831555,1.0521919,0.1631185,0.12956269,0.043942124
1747679442.5167682,0.16663007,0.22831555,1.0521919,0.1631185,0.12956269,0.043942124
1747679442.5173123,0.16663007,0.22831555,1.0521919,0.1631185,0.12956269,0.043942124
1747679442.517856,0.16663007,0.22831555,1.0521919,0.1631185,0.12956269,0.043942124
1747679442.5184019,0.16663007,0.22831555,1.0521919,0.1631185,0.12956269,0.043942124
1747679442.518933,0.16663007,0.22831555,1.0521919,0.1631185,0.12956269,0.043942124
1747679442.5194612,0.16663007,0.22831555,1.0521919,0.1631185,0.12956269,0.043942124
1747679442.5199995,0.16663007,0.22831555,1.0521919,0.1631185,0.12956269,0.043942124
1747679442.5205314,0.16663007,0.22831555,1.0521919,0.1631185,0.12956269,0.043942124
1747679442.5210738,0.16663007,0.22831555,1.0521919,0.1631185,0.12956269,0.043942124
1747679442.521623,0.16663007,0.22831555,1.0521919,0.1631185,0.12956269,0.043942124
1747679442.5221758,0.1300215,0.23417293,1.0497513,0.16524902,-0.0259658,0.037550543
1747679442.5227191,0.1300215,0.23417293,1.0497513,0.16524902,-0.0259658,0.037550543
1747679442.5232515,0.1300215,0.23417293,1.0497513,0.16524902,-0.0259658,0.037550543
1747679442.523783,0.1300215,0.23417293,1.0497513,0.16524902,-0.0259658,0.037550543
1747679442.5243182,0.1300215,0.23417293,1.0497513,0.16524902,-0.0259658,0.037550543
1747679442.5248578,0.1300215,0.23417293,1.0497513,0.16524902,-0.0259658,0.037550543
1747679442.5254023,0.1300215,0.23417293,1.0497513,0.16524902,-0.0259658,0.037550543
1747679442.525935,0.1300215,0.23417293,1.0497513,0.16524902,-0.0259658,0.037550543
1747679442.526454,0.1300215,0.23417293,1.0497513,0.16524902,-0.0259658,0.037550543
1747679442.5269728,0.1300215,0.23417293,1.0497513,0.16524902,-0.0259658,0.037550543
1747679442.527491,0.1300215,0.23417293,1.0497513,0.16524902,-0.0259658,0.037550543
1747679442.5280092,0.1300215,0.23417293,1.0497513,0.16524902,-0.0259658,0.037550543
1747679442.528527,0.1300215,0.23417293,1.0497513,0.16524902,-0.0259658,0.037550543
1747679442.529045,0.1300215,0.23417293,1.0497513,0.16524902,-0.0259658,0.037550543
1747679442.5295973,0.1300215,0.23417293,1.0497513,0.16524902,-0.0259658,0.037550543
1747679442.530151,0.1300215,0.23417293,1.0497513,0.16524902,-0.0259658,0.037550543
1747679442.5306816,0.1300215,0.23417293,1.0497513,0.16524902,-0.0259658,0.037550543
1747679442.531204,0.1300215,0.23417293,1.0497513,0.16524902,-0.0259658,0.037550543
1747679442.5323377,0.1300215,0.23417293,1.0497513,0.16524902,-0.0259658,0.037550543
1747679442.532904,0.1300215,0.23417293,1.0497513,0.15566164,-0.10905637,0.06311687
1747679442.5334494,0.107080124,0.23563726,1.0429177,0.15566164,-0.10905637,0.06311687
1747679442.5339932,0.107080124,0.23563726,1.0429177,0.15566164,-0.10905637,0.06311687
1747679442.534518,0.107080124,0.23563726,1.0429177,0.15566164,-0.10905637,0.06311687
1747679442.535037,0.107080124,0.23563726,1.0429177,0.15566164,-0.10905637,0.06311687
1747679442.5355556,0.107080124,0.23563726,1.0429177,0.15566164,-0.10905637,0.06311687
1747679442.536075,0.107080124,0.23563726,1.0429177,0.15566164,-0.10905637,0.06311687
1747679442.5365932,0.107080124,0.23563726,1.0429177,0.15566164,-0.10905637,0.06311687
1747679442.5371113,0.107080124,0.23563726,1.0429177,0.15566164,-0.10905637,0.06311687
1747679442.5376291,0.107080124,0.23563726,1.0429177,0.15566164,-0.10905637,0.06311687
1747679442.5381472,0.107080124,0.23563726,1.0429177,0.15566164,-0.10905637,0.06311687
1747679442.5386655,0.107080124,0.23563726,1.0429177,0.15566164,-0.10905637,0.06311687
1747679442.5391834,0.107080124,0.23563726,1.0429177,0.15566164,-0.10905637,0.06311687
1747679442.5397015,0.107080124,0.23563726,1.0429177,0.15566164,-0.10905637,0.06311687
1747679442.5402195,0.107080124,0.23563726,1.0429177,0.15566164,-0.10905637,0.06311687
1747679442.5407374,0.107080124,0.23563726,1.0429177,0.15566164,-0.10905637,0.06311687
1747679442.5412555,0.107080124,0.23563726,1.0429177,0.15566164,-0.10905637,0.06311687
1747679442.5417743,0.107080124,0.23563726,1.0429177,0.15566164,-0.10905637,0.06311687
1747679442.5422928,0.107080124,0.23563726,1.0429177,0.15566164,-0.10905637,0.06311687
1747679442.5428119,0.10463954,0.23368481,1.0580492,0.15566164,-0.10905637,0.06311687
1747679442.543331,0.10463954,0.23368481,1.0580492,0.14500901,-0.12503532,0.08229162
1747679442.543876,0.10463954,0.23368481,1.0580492,0.14500901,-0.12503532,0.08229162
1747679442.5444076,0.10463954,0.23368481,1.0580492,0.14500901,-0.12503532,0.08229162
1747679442.5449612,0.10463954,0.23368481,1.0580492,0.14500901,-0.12503532,0.08229162
1747679442.5455062,0.10463954,0.23368481,1.0580492,0.14500901,-0.12503532,0.08229162
1747679442.54603,0.10463954,0.23368481,1.0580492,0.14500901,-0.12503532,0.08229162
1747679442.5465484,0.10463954,0.23368481,1.0580492,0.14500901,-0.12503532,0.08229162
1747679442.547067,0.10463954,0.23368481,1.0580492,0.14500901,-0.12503532,0.08229162
1747679442.5475879,0.10463954,0.23368481,1.0580492,0.14500901,-0.12503532,0.08229162
1747679442.5481412,0.10463954,0.23368481,1.0580492,0.14500901,-0.12503532,0.08229162
1747679442.5486877,0.10463954,0.23368481,1.0580492,0.14500901,-0.12503532,0.08229162
1747679442.54922,0.10463954,0.23368481,1.0580492,0.14500901,-0.12503532,0.08229162
1747679442.5497396,0.10463954,0.23368481,1.0580492,0.14500901,-0.12503532,0.08229162
1747679442.5502574,0.10463954,0.23368481,1.0580492,0.14500901,-0.12503532,0.08229162
1747679442.5507755,0.10463954,0.23368481,1.0580492,0.14500901,-0.12503532,0.08229162
1747679442.5512934,0.10463954,0.23368481,1.0580492,0.14500901,-0.12503532,0.08229162
1747679442.5518117,0.10463954,0.23368481,1.0580492,0.14500901,-0.12503532,0.08229162
1747679442.5523298,0.10463954,0.23368481,1.0580492,0.14500901,-0.12503532,0.08229162
1747679442.5528483,0.10463954,0.23368481,1.0580492,0.14500901,-0.12503532,0.08229162
1747679442.5533674,0.10463954,0.23368481,1.0580492,0.14500901,-0.12503532,0.08229162
1747679442.5538857,0.10463954,0.23368481,1.0580492,0.14500901,-0.12503532,0.08229162
1747679442.554418,0.10463954,0.23368481,1.0580492,0.14500901,-0.12503532,0.08229162
1747679442.5549474,0.10463954,0.23368481,1.0580492,0.14500901,-0.12503532,0.08229162
1747679442.5554674,0.10463954,0.23368481,1.0580492,0.14500901,-0.12503532,0.08229162
1747679442.555986,0.116842404,0.22441064,1.07855,0.1364869,-0.09520794,0.10998847
1747679442.5565042,0.116842404,0.22441064,1.07855,0.1364869,-0.09520794,0.10998847
1747679442.5570226,0.116842404,0.22441064,1.07855,0.1364869,-0.09520794,0.10998847
1747679442.5575402,0.116842404,0.22441064,1.07855,0.1364869,-0.09520794,0.10998847
1747679442.5580583,0.116842404,0.22441064,1.07855,0.1364869,-0.09520794,0.10998847
1747679442.558576,0.116842404,0.22441064,1.07855,0.1364869,-0.09520794,0.10998847
1747679442.559094,0.116842404,0.22441064,1.07855,0.1364869,-0.09520794,0.10998847
1747679442.5596123,0.116842404,0.22441064,1.07855,0.1364869,-0.09520794,0.10998847
1747679442.5601459,0.116842404,0.22441064,1.07855,0.1364869,-0.09520794,0.10998847
1747679442.5606842,0.116842404,0.22441064,1.07855,0.1364869,-0.09520794,0.10998847
1747679442.5612319,0.116842404,0.22441064,1.07855,0.1364869,-0.09520794,0.10998847
1747679442.561768,0.116842404,0.22441064,1.07855,0.1364869,-0.09520794,0.10998847
1747679442.562291,0.116842404,0.22441064,1.07855,0.1364869,-0.09520794,0.10998847
1747679442.562813,0.116842404,0.22441064,1.07855,0.1364869,-0.09520794,0.10998847
1747679442.5633557,0.116842404,0.22441064,1.07855,0.1364869,-0.09520794,0.10998847
1747679442.5639231,0.116842404,0.22441064,1.07855,0.1364869,-0.09520794,0.10998847
1747679442.5644765,0.13831945,0.22831555,1.0858717,0.12263848,-0.0067910557,0.11638005
1747679442.5650227,0.13831945,0.22831555,1.0858717,0.12263848,-0.0067910557,0.11638005
1747679442.5655556,0.13831945,0.22831555,1.0858717,0.12263848,-0.0067910557,0.11638005
1747679442.5660753,0.13831945,0.22831555,1.0858717,0.12263848,-0.0067910557,0.11638005
1747679442.5665941,0.13831945,0.22831555,1.0858717,0.12263848,-0.0067910557,0.11638005
1747679442.5671124,0.13831945,0.22831555,1.0858717,0.12263848,-0.0067910557,0.11638005
1747679442.5676305,0.13831945,0.22831555,1.0858717,0.12263848,-0.0067910557,0.11638005
1747679442.5681484,0.13831945,0.22831555,1.0858717,0.12263848,-0.0067910557,0.11638005
1747679442.5686667,0.13831945,0.22831555,1.0858717,0.12263848,-0.0067910557,0.11638005
1747679442.5691974,0.13831945,0.22831555,1.0858717,0.12263848,-0.0067910557,0.11638005
1747679442.5697153,0.13831945,0.22831555,1.0858717,0.12263848,-0.0067910557,0.11638005
1747679442.5702329,0.13831945,0.22831555,1.0858717,0.12263848,-0.0067910557,0.11638005
1747679442.570751,0.13831945,0.22831555,1.0858717,0.12263848,-0.0067910557,0.11638005
1747679442.5712688,0.13831945,0.22831555,1.0858717,0.12263848,-0.0067910557,0.11638005
1747679442.5717866,0.13831945,0.22831555,1.0858717,0.12263848,-0.0067910557,0.11638005
1747679442.5723047,0.13831945,0.22831555,1.0858717,0.12263848,-0.0067910557,0.11638005
1747679442.5728223,0.13831945,0.22831555,1.0858717,0.12263848,-0.0067910557,0.11638005
1747679442.5733414,0.14954607,0.23514915,1.1039319,0.107724786,0.037950017,0.10572742
1747679442.5738604,0.14954607,0.23514915,1.1039319,0.107724786,0.037950017,0.10572742
1747679442.5743914,0.14954607,0.23514915,1.1039319,0.107724786,0.037950017,0.10572742
1747679442.5749207,0.14954607,0.23514915,1.1039319,0.107724786,0.037950017,0.10572742
1747679442.5754747,0.14954607,0.23514915,1.1039319,0.107724786,0.037950017,0.10572742
1747679442.5760229,0.14954607,0.23514915,1.1039319,0.107724786,0.037950017,0.10572742
1747679442.5765505,0.14954607,0.23514915,1.1039319,0.107724786,0.037950017,0.10572742
1747679442.5770698,0.14954607,0.23514915,1.1039319,0.107724786,0.037950017,0.10572742
1747679442.5775883,0.14954607,0.23514915,1.1039319,0.107724786,0.037950017,0.10572742
1747679442.578114,0.14954607,0.23514915,1.1039319,0.107724786,0.037950017,0.10572742
1747679442.5786355,0.14954607,0.23514915,1.1039319,0.107724786,0.037950017,0.10572742
1747679442.5791602,0.14954607,0.23514915,1.1039319,0.107724786,0.037950017,0.10572742
1747679442.5797114,0.14954607,0.23514915,1.1039319,0.107724786,0.037950017,0.10572742
1747679442.5802636,0.14954607,0.23514915,1.1039319,0.107724786,0.037950017,0.10572742
1747679442.5807989,0.14954607,0.23514915,1.1039319,0.107724786,0.037950017,0.10572742
1747679442.5813208,0.14954607,0.23514915,1.1039319,0.107724786,0.037950017,0.10572742
1747679442.581842,0.14954607,0.23514915,1.1039319,0.107724786,0.037950017,0.10572742
1747679442.5823627,0.14954607,0.23514915,1.1039319,0.107724786,0.037950017,0.10572742
1747679442.5828834,0.14954607,0.23514915,1.1039319,0.107724786,0.037950017,0.10572742
1747679442.5834048,0.14954607,0.23514915,1.1039319,0.107724786,0.037950017,0.10572742
1747679442.5839415,0.14954607,0.23514915,1.1039319,0.107724786,0.037950017,0.10572742
1747679442.584475,0.14954607,0.23514915,1.1039319,0.107724786,0.037950017,0.10572742
1747679442.5849977,0.14954607,0.23514915,1.1039319,0.107724786,0.037950017,0.10572742
1747679442.5855188,0.14954607,0.23514915,1.1039319,0.107724786,0.037950017,0.10572742
1747679442.58604,0.14954607,0.23514915,1.1039319,0.107724786,0.037950017,0.10572742
1747679442.586561,0.14954607,0.23514915,1.1039319,0.107724786,0.037950017,0.10572742
1747679442.5870817,0.14954607,0.23514915,1.1039319,0.107724786,0.037950017,0.10572742
1747679442.5876029,0.14954607,0.23514915,1.1039319,0.096006885,0.034754228,0.089748465
1747679442.5881245,0.14954607,0.23514915,1.1039319,0.096006885,0.034754228,0.089748465
1747679442.5886452,0.14954607,0.23514915,1.1039319,0.096006885,0.034754228,0.089748465
1747679442.5891662,0.14954607,0.23514915,1.1039319,0.096006885,0.034754228,0.089748465
1747679442.5896869,0.14954607,0.23514915,1.1039319,0.096006885,0.034754228,0.089748465
1747679442.5902078,0.14954607,0.23514915,1.1039319,0.096006885,0.034754228,0.089748465
1747679442.5907698,0.14954607,0.23514915,1.1039319,0.096006885,0.034754228,0.089748465
1747679442.591327,0.14954607,0.23514915,1.1039319,0.096006885,0.034754228,0.089748465
1747679442.5918598,0.14954607,0.23514915,1.1039319,0.096006885,0.034754228,0.089748465
1747679442.592386,0.14954607,0.23514915,1.1039319,0.096006885,0.034754228,0.089748465
1747679442.5929182,0.14954607,0.23514915,1.1039319,0.096006885,0.034754228,0.089748465
1747679442.5934494,0.1436887,0.24930447,1.2166864,0.116246894,0.017710008,0.08016109
1747679442.5939548,0.1436887,0.24930447,1.2166864,0.116246894,0.017710008,0.08016109
1747679442.5944912,0.1436887,0.24930447,1.2166864,0.116246894,0.017710008,0.08016109
1747679442.595025,0.1436887,0.24930447,1.2166864,0.116246894,0.017710008,0.08016109
1747679442.5955734,0.1436887,0.24930447,1.2166864,0.116246894,0.017710008,0.08016109
1747679442.5961196,0.1436887,0.24930447,1.2166864,0.116246894,0.017710008,0.08016109
1747679442.5966523,0.1436887,0.24930447,1.2166864,0.116246894,0.017710008,0.08016109
1747679442.5971718,0.1436887,0.24930447,1.2166864,0.116246894,0.017710008,0.08016109
1747679442.59769,0.1436887,0.24930447,1.2166864,0.116246894,0.017710008,0.08016109
1747679442.5982084,0.1436887,0.24930447,1.2166864,0.116246894,0.017710008,0.08016109
1747679442.5987353,0.1436887,0.24930447,1.2166864,0.116246894,0.017710008,0.08016109
1747679442.5992537,0.1436887,0.24930447,1.2166864,0.116246894,0.017710008,0.08016109
1747679442.599821,0.1436887,0.24930447,1.2166864,0.116246894,0.017710008,0.08016109
1747679442.6003542,0.1436887,0.24930447,1.2166864,0.116246894,0.017710008,0.08016109
1747679442.600874,0.14612928,0.24344711,1.2796532,0.116246894,0.017710008,0.08016109
1747679442.6013935,0.14612928,0.24344711,1.2796532,0.116246894,0.017710008,0.08016109
1747679442.6019115,0.14612928,0.24344711,1.2796532,0.116246894,0.017710008,0.08016109
1747679442.60243,0.14612928,0.24344711,1.2796532,0.116246894,0.017710008,0.08016109
1747679442.602949,0.14612928,0.24344711,1.2796532,0.116246894,0.017710008,0.08016109
1747679442.6034672,0.14612928,0.24344711,1.2796532,0.116246894,0.017710008,0.08016109
1747679442.6039977,0.14612928,0.24344711,1.2796532,0.116246894,0.017710008,0.08016109
1747679442.6045258,0.14612928,0.24344711,1.2796532,0.116246894,0.017710008,0.08016109
1747679442.605046,0.14612928,0.24344711,1.2796532,0.116246894,0.017710008,0.08016109
1747679442.6056006,0.14612928,0.24344711,1.2796532,0.116246894,0.017710008,0.08016109
1747679442.6061456,0.14612928,0.24344711,1.2796532,0.116246894,0.017710008,0.08016109
1747679442.6066706,0.14612928,0.24344711,1.2796532,0.116246894,0.017710008,0.08016109
1747679442.607189,0.14612928,0.24344711,1.2796532,0.116246894,0.017710008,0.08016109
1747679442.6077075,0.14612928,0.24344711,1.2796532,0.116246894,0.017710008,0.08016109
1747679442.6082253,0.14612928,0.24344711,1.2796532,0.116246894,0.017710008,0.08016109
1747679442.608744,0.14612928,0.24344711,1.2796532,0.116246894,0.017710008,0.08016109
1747679442.609262,0.14612928,0.24344711,1.2796532,0.116246894,0.017710008,0.08016109
1747679442.6097836,0.15198664,0.24051842,1.3270003,0.116246894,0.017710008,0.08016109
1747679442.6103227,0.15198664,0.24051842,1.3270003,0.116246894,0.017710008,0.08016109
1747679442.6108556,0.15198664,0.24051842,1.3270003,0.24620906,-0.009986847,0.079095826
1747679442.6113758,0.15198664,0.24051842,1.3270003,0.24620906,-0.009986847,0.079095826
1747679442.6118948,0.15198664,0.24051842,1.3270003,0.24620906,-0.009986847,0.079095826
1747679442.612413,0.15198664,0.24051842,1.3270003,0.24620906,-0.009986847,0.079095826
1747679442.612931,0.15198664,0.24051842,1.3270003,0.24620906,-0.009986847,0.079095826
1747679442.6134489,0.15198664,0.24051842,1.3270003,0.24620906,-0.009986847,0.079095826
1747679442.6139674,0.15198664,0.24051842,1.3270003,0.24620906,-0.009986847,0.079095826
1747679442.6145034,0.15198664,0.24051842,1.3270003,0.24620906,-0.009986847,0.079095826
1747679442.6150353,0.15198664,0.24051842,1.3270003,0.24620906,-0.009986847,0.079095826
1747679442.615555,0.15198664,0.24051842,1.3270003,0.24620906,-0.009986847,0.079095826
1747679442.6160731,0.15198664,0.24051842,1.3270003,0.24620906,-0.009986847,0.079095826
1747679442.6165912,0.15198664,0.24051842,1.3270003,0.24620906,-0.009986847,0.079095826
1747679442.6171086,0.15198664,0.24051842,1.3270003,0.24620906,-0.009986847,0.079095826
1747679442.6176264,0.15198664,0.24051842,1.3270003,0.24620906,-0.009986847,0.079095826
1747679442.6181445,0.15198664,0.24051842,1.3270003,0.24620906,-0.009986847,0.079095826
1747679442.6186624,0.15198664,0.24051842,1.3270003,0.24620906,-0.009986847,0.079095826
1747679442.61918,0.15198664,0.24051842,1.3270003,0.24620906,-0.009986847,0.079095826
1747679442.6196988,0.15198664,0.24051842,1.3270003,0.24620906,-0.009986847,0.079095826
1747679442.6202176,0.15198664,0.24051842,1.3270003,0.24620906,-0.009986847,0.079095826
1747679442.6207597,0.14954607,0.24393523,1.3680019,0.32929963,0.049667917,0.07483477
1747679442.6213162,0.14954607,0.24393523,1.3680019,0.32929963,0.049667917,0.07483477
1747679442.6218529,0.14954607,0.24393523,1.3680019,0.32929963,0.049667917,0.07483477
1747679442.6223853,0.14954607,0.24393523,1.3680019,0.32929963,0.049667917,0.07483477
1747679442.6229174,0.14954607,0.24393523,1.3680019,0.32929963,0.049667917,0.07483477
1747679442.6234372,0.14954607,0.24393523,1.3680019,0.32929963,0.049667917,0.07483477
1747679442.6239731,0.14954607,0.24393523,1.3680019,0.32929963,0.049667917,0.07483477
1747679442.624505,0.14954607,0.24393523,1.3680019,0.32929963,0.049667917,0.07483477
1747679442.6250253,0.14954607,0.24393523,1.3680019,0.32929963,0.049667917,0.07483477
1747679442.6255453,0.14954607,0.24393523,1.3680019,0.32929963,0.049667917,0.07483477
1747679442.6260984,0.14954607,0.24393523,1.3680019,0.32929963,0.049667917,0.07483477
1747679442.626645,0.14954607,0.24393523,1.3680019,0.32929963,0.049667917,0.07483477
1747679442.6271775,0.14954607,0.24393523,1.3680019,0.32929963,0.049667917,0.07483477
1747679442.627697,0.14954607,0.24393523,1.3680019,0.32929963,0.049667917,0.07483477
1747679442.6282156,0.14954607,0.24393523,1.3680019,0.32929963,0.049667917,0.07483477
1747679442.6287336,0.14954607,0.24393523,1.3680019,0.32929963,0.049667917,0.07483477
1747679442.629252,0.14954607,0.24393523,1.3680019,0.32929963,0.049667917,0.07483477
1747679442.6297703,0.14954607,0.24393523,1.3680019,0.32929963,0.049667917,0.07483477
1747679442.630293,0.14954607,0.24393523,1.3680019,0.32929963,0.049667917,0.07483477
1747679442.6308115,0.14954607,0.24393523,1.3680019,0.32929963,0.049667917,0.07483477
1747679442.6313298,0.14954607,0.24393523,1.3680019,0.32929963,0.049667917,0.07483477
1747679442.631848,0.14954607,0.24393523,1.3680019,0.32929963,0.049667917,0.07483477
1747679442.6323893,0.153451,0.2463758,1.3841096,0.41984704,0.19028272,0.076965295
1747679442.632908,0.153451,0.2463758,1.3841096,0.41984704,0.19028272,0.076965295
1747679442.633426,0.153451,0.2463758,1.3841096,0.41984704,0.19028272,0.076965295
1747679442.6339438,0.153451,0.2463758,1.3841096,0.41984704,0.19028272,0.076965295
1747679442.634477,0.153451,0.2463758,1.3841096,0.41984704,0.19028272,0.076965295
1747679442.6350055,0.153451,0.2463758,1.3841096,0.41984704,0.19028272,0.076965295
1747679442.6355257,0.153451,0.2463758,1.3841096,0.41984704,0.19028272,0.076965295
1747679442.6360655,0.153451,0.2463758,1.3841096,0.41984704,0.19028272,0.076965295
1747679442.6366208,0.153451,0.2463758,1.3841096,0.41984704,0.19028272,0.076965295
1747679442.6371882,0.153451,0.2463758,1.3841096,0.41984704,0.19028272,0.076965295
1747679442.6377113,0.153451,0.2463758,1.3841096,0.41984704,0.19028272,0.076965295
1747679442.6382303,0.153451,0.2463758,1.3841096,0.41984704,0.19028272,0.076965295
1747679442.6387482,0.153451,0.2463758,1.3841096,0.41984704,0.19028272,0.076965295
1747679442.639266,0.153451,0.2463758,1.3841096,0.41984704,0.19028272,0.076965295
1747679442.6397839,0.153451,0.2463758,1.3841096,0.41984704,0.19028272,0.076965295
1747679442.6403015,0.153451,0.2463758,1.3841096,0.41984704,0.19028272,0.076965295
1747679442.6408195,0.153451,0.2463758,1.3841096,0.41984704,0.19028272,0.076965295
1747679442.6413403,0.153451,0.2463758,1.3841096,0.41984704,0.19028272,0.076965295
1747679442.6418936,0.153451,0.2463758,1.3841096,0.41984704,0.19028272,0.076965295
1747679442.6424437,0.153451,0.2463758,1.3841096,0.41984704,0.19028272,0.076965295
1747679442.6429758,0.153451,0.2463758,1.3841096,0.51678604,0.42890176,0.0652474
1747679442.643496,0.16565385,0.2468639,1.3738593,0.51678604,0.42890176,0.0652474
1747679442.6440248,0.16565385,0.2468639,1.3738593,0.51678604,0.42890176,0.0652474
1747679442.6445596,0.16565385,0.2468639,1.3738593,0.51678604,0.42890176,0.0652474
1747679442.64508,0.16565385,0.2468639,1.3738593,0.51678604,0.42890176,0.0652474
1747679442.6455986,0.16565385,0.2468639,1.3738593,0.51678604,0.42890176,0.0652474
1747679442.6461165,0.16565385,0.2468639,1.3738593,0.51678604,0.42890176,0.0652474
1747679442.646635,0.16565385,0.2468639,1.3738593,0.51678604,0.42890176,0.0652474
1747679442.647153,0.16565385,0.2468639,1.3738593,0.51678604,0.42890176,0.0652474
1747679442.647671,0.16565385,0.2468639,1.3738593,0.51678604,0.42890176,0.0652474
1747679442.648189,0.16565385,0.2468639,1.3738593,0.51678604,0.42890176,0.0652474
1747679442.6487074,0.16565385,0.2468639,1.3738593,0.51678604,0.42890176,0.0652474
1747679442.6492255,0.16565385,0.2468639,1.3738593,0.51678604,0.42890176,0.0652474
1747679442.6497433,0.16565385,0.2468639,1.3738593,0.51678604,0.42890176,0.0652474
1747679442.6502614,0.16565385,0.2468639,1.3738593,0.51678604,0.42890176,0.0652474
1747679442.6507795,0.16565385,0.2468639,1.3738593,0.51678604,0.42890176,0.0652474
1747679442.6514015,0.16565385,0.2468639,1.3738593,0.51678604,0.42890176,0.0652474
1747679442.6519604,0.16565385,0.2468639,1.3738593,0.51678604,0.42890176,0.0652474
1747679442.6525056,0.17053501,0.24930447,1.3616564,0.51678604,0.42890176,0.0652474
1747679442.653028,0.17053501,0.24930447,1.3616564,0.51678604,0.42890176,0.0652474
1747679442.653547,0.17053501,0.24930447,1.3616564,0.51678604,0.42890176,0.0652474
1747679442.654076,0.17053501,0.24930447,1.3616564,0.51678604,0.42890176,0.0652474
1747679442.6546054,0.17053501,0.24930447,1.3616564,0.54128706,0.50773126,0.05672529
1747679442.655126,0.17053501,0.24930447,1.3616564,0.54128706,0.50773126,0.05672529
1747679442.6556444,0.17053501,0.24930447,1.3616564,0.54128706,0.50773126,0.05672529
1747679442.6561625,0.17053501,0.24930447,1.3616564,0.54128706,0.50773126,0.05672529
1747679442.6566808,0.17053501,0.24930447,1.3616564,0.54128706,0.50773126,0.05672529
1747679442.657201,0.17053501,0.24930447,1.3616564,0.54128706,0.50773126,0.05672529
1747679442.6577504,0.17053501,0.24930447,1.3616564,0.54128706,0.50773126,0.05672529
1747679442.6582997,0.17053501,0.24930447,1.3616564,0.54128706,0.50773126,0.05672529
1747679442.6588326,0.17053501,0.24930447,1.3616564,0.54128706,0.50773126,0.05672529
1747679442.6593523,0.17053501,0.24930447,1.3616564,0.54128706,0.50773126,0.05672529
1747679442.6598706,0.17053501,0.24930447,1.3616564,0.54128706,0.50773126,0.05672529
1747679442.6603892,0.17053501,0.24930447,1.3616564,0.54128706,0.50773126,0.05672529
1747679442.6609077,0.17053501,0.24930447,1.3616564,0.54128706,0.50773126,0.05672529
1747679442.6614258,0.17053501,0.24930447,1.3616564,0.54128706,0.50773126,0.05672529
1747679442.6619442,0.17053501,0.24930447,1.3616564,0.54128706,0.50773126,0.05672529
1747679442.6624618,0.17053501,0.24930447,1.3616564,0.54128706,0.50773126,0.05672529
1747679442.6629794,0.17053501,0.24930447,1.3616564,0.54128706,0.50773126,0.05672529
1747679442.6634974,0.17053501,0.24930447,1.3616564,0.54128706,0.50773126,0.05672529
1747679442.6640234,0.17053501,0.24930447,1.3616564,0.54128706,0.50773126,0.05672529
1747679442.664595,0.15101042,0.26150733,1.3372507,0.60626817,0.68776083,0.02796317
1747679442.6651428,0.15101042,0.26150733,1.3372507,0.60626817,0.68776083,0.02796317
1747679442.6656694,0.15101042,0.26150733,1.3372507,0.60626817,0.68776083,0.02796317
1747679442.666188,0.15101042,0.26150733,1.3372507,0.60626817,0.68776083,0.02796317
1747679442.6667285,0.15101042,0.26150733,1.3372507,0.60626817,0.68776083,0.02796317
1747679442.6672578,0.15101042,0.26150733,1.3372507,0.60626817,0.68776083,0.02796317
1747679442.6677783,0.15101042,0.26150733,1.3372507,0.60626817,0.68776083,0.02796317
1747679442.6682968,0.15101042,0.26150733,1.3372507,0.60626817,0.68776083,0.02796317
1747679442.6688147,0.15101042,0.26150733,1.3372507,0.60626817,0.68776083,0.02796317
1747679442.6693327,0.15101042,0.26150733,1.3372507,0.60626817,0.68776083,0.02796317
1747679442.6698506,0.15101042,0.26150733,1.3372507,0.60626817,0.68776083,0.02796317
1747679442.6703775,0.15101042,0.26150733,1.3372507,0.60626817,0.68776083,0.02796317
1747679442.6708958,0.15101042,0.26150733,1.3372507,0.60626817,0.68776083,0.02796317
1747679442.671414,0.15101042,0.26150733,1.3372507,0.60626817,0.68776083,0.02796317
1747679442.6719322,0.15101042,0.26150733,1.3372507,0.60626817,0.68776083,0.02796317
1747679442.6724503,0.15101042,0.26150733,1.3372507,0.60626817,0.68776083,0.02796317
1747679442.6729715,0.15101042,0.26150733,1.3372507,0.60626817,0.68776083,0.02796317
1747679442.673522,0.15101042,0.26150733,1.3372507,0.60626817,0.68776083,0.02796317
1747679442.6740694,0.15101042,0.26150733,1.3372507,0.60626817,0.68776083,0.02796317
1747679442.6746016,0.15101042,0.26150733,1.3372507,0.60626817,0.68776083,0.02796317
1747679442.6751275,0.15101042,0.26150733,1.3372507,0.60626817,0.68776083,0.02796317
1747679442.6756468,0.15101042,0.26150733,1.3372507,0.60626817,0.68776083,0.02796317
1747679442.676165,0.1334383,0.27078152,1.321631,0.60626817,0.68776083,0.02796317
1747679442.676686,0.1334383,0.27078152,1.321631,0.60626817,0.68776083,0.02796317
1747679442.677207,0.1334383,0.27078152,1.321631,0.65953135,0.8006788,0.011984216
1747679442.6777258,0.1334383,0.27078152,1.321631,0.65953135,0.8006788,0.011984216
1747679442.6782467,0.1334383,0.27078152,1.321631,0.65953135,0.8006788,0.011984216
1747679442.6787674,0.1334383,0.27078152,1.321631,0.65953135,0.8006788,0.011984216
1747679442.6792881,0.1334383,0.27078152,1.321631,0.65953135,0.8006788,0.011984216
1747679442.679809,0.1334383,0.27078152,1.321631,0.65953135,0.8006788,0.011984216
1747679442.6803298,0.1334383,0.27078152,1.321631,0.65953135,0.8006788,0.011984216
1747679442.68085,0.1334383,0.27078152,1.321631,0.65953135,0.8006788,0.011984216
1747679442.681371,0.1334383,0.27078152,1.321631,0.65953135,0.8006788,0.011984216
1747679442.6819453,0.1334383,0.27078152,1.321631,0.65953135,0.8006788,0.011984216
1747679442.6825123,0.1334383,0.27078152,1.321631,0.65953135,0.8006788,0.011984216
1747679442.6830626,0.1334383,0.27078152,1.321631,0.65953135,0.8006788,0.011984216
1747679442.6836975,0.1334383,0.27078152,1.321631,0.65953135,0.8006788,0.011984216
1747679442.6842518,0.12514035,0.26199543,1.317238,0.65953135,0.8006788,0.011984216
1747679442.6847908,0.12514035,0.26199543,1.317238,0.65953135,0.8006788,0.011984216
1747679442.6853185,0.12514035,0.26199543,1.317238,0.690424,0.853942,0.0002663159
1747679442.6858404,0.12514035,0.26199543,1.317238,0.690424,0.853942,0.0002663159
1747679442.6863616,0.12514035,0.26199543,1.317238,0.690424,0.853942,0.0002663159
1747679442.6868827,0.12514035,0.26199543,1.317238,0.690424,0.853942,0.0002663159
1747679442.687404,0.12514035,0.26199543,1.317238,0.690424,0.853942,0.0002663159
1747679442.6879246,0.12514035,0.26199543,1.317238,0.690424,0.853942,0.0002663159
1747679442.6884453,0.12514035,0.26199543,1.317238,0.690424,0.853942,0.0002663159
1747679442.6889691,0.12514035,0.26199543,1.317238,0.690424,0.853942,0.0002663159
1747679442.689515,0.12514035,0.26199543,1.317238,0.690424,0.853942,0.0002663159
1747679442.6900654,0.12514035,0.26199543,1.317238,0.690424,0.853942,0.0002663159
1747679442.6906004,0.12514035,0.26199543,1.317238,0.690424,0.853942,0.0002663159
1747679442.6911223,0.12514035,0.26199543,1.317238,0.690424,0.853942,0.0002663159
1747679442.6916435,0.12514035,0.26199543,1.317238,0.690424,0.853942,0.0002663159
1747679442.692165,0.12514035,0.26199543,1.317238,0.690424,0.853942,0.0002663159
1747679442.6926858,0.12514035,0.26199543,1.317238,0.690424,0.853942,0.0002663159
1747679442.6932068,0.12514035,0.26199543,1.317238,0.690424,0.853942,0.0002663159
1747679442.6942344,0.12514035,0.26199543,1.317238,0.690424,0.853942,0.0002663159
1747679442.6947756,0.12514035,0.26199543,1.317238,0.690424,0.853942,0.0002663159
1747679442.695296,0.12514035,0.26199543,1.317238,0.690424,0.853942,0.0002663159
1747679442.6958146,0.12514035,0.26199543,1.317238,0.690424,0.853942,0.0002663159
1747679442.6963336,0.107080124,0.260043,1.3655614,0.690424,0.853942,0.0002663159
1747679442.6968517,0.107080124,0.260043,1.3655614,0.690424,0.853942,0.0002663159
1747679442.697399,0.107080124,0.260043,1.3655614,0.75007874,0.82411456,-0.01571264
1747679442.6979449,0.107080124,0.260043,1.3655614,0.75007874,0.82411456,-0.01571264
1747679442.6984773,0.107080124,0.260043,1.3655614,0.75007874,0.82411456,-0.01571264
1747679442.6989965,0.107080124,0.260043,1.3655614,0.75007874,0.82411456,-0.01571264
1747679442.6995158,0.107080124,0.260043,1.3655614,0.75007874,0.82411456,-0.01571264
1747679442.7000365,0.107080124,0.260043,1.3655614,0.75007874,0.82411456,-0.01571264
1747679442.7005572,0.092924796,0.25809053,1.4011936,0.75007874,0.82411456,-0.01571264
1747679442.7010765,0.092924796,0.25809053,1.4011936,0.75007874,0.82411456,-0.01571264
1747679442.7016325,0.092924796,0.25809053,1.4011936,0.8321041,0.76339453,-0.01571264
1747679442.7021515,0.092924796,0.25809053,1.4011936,0.8321041,0.76339453,-0.01571264
1747679442.7026699,0.092924796,0.25809053,1.4011936,0.8321041,0.76339453,-0.01571264
1747679442.703188,0.092924796,0.25809053,1.4011936,0.8321041,0.76339453,-0.01571264
1747679442.7037249,0.092924796,0.25809053,1.4011936,0.8321041,0.76339453,-0.01571264
1747679442.704287,0.092924796,0.25809053,1.4011936,0.8321041,0.76339453,-0.01571264
1747679442.7048354,0.092924796,0.25809053,1.4011936,0.8321041,0.76339453,-0.01571264
1747679442.7053761,0.092924796,0.25809053,1.4011936,0.8321041,0.76339453,-0.01571264
1747679442.7059085,0.092924796,0.25809053,1.4011936,0.8321041,0.76339453,-0.01571264
1747679442.706428,0.092924796,0.25809053,1.4011936,0.8321041,0.76339453,-0.01571264
1747679442.7069468,0.092924796,0.25809053,1.4011936,0.8321041,0.76339453,-0.01571264
1747679442.7074652,0.092924796,0.25809053,1.4011936,0.8321041,0.76339453,-0.01571264
1747679442.707984,0.092924796,0.25809053,1.4011936,0.8321041,0.76339453,-0.01571264
1747679442.708502,0.092924796,0.25809053,1.4011936,0.8321041,0.76339453,-0.01571264
1747679442.7090204,0.092924796,0.25809053,1.4011936,0.8321041,0.76339453,-0.01571264
1747679442.7095392,0.092924796,0.25809053,1.4011936,0.9599357,0.5663208,-0.019973693
1747679442.7100577,0.092924796,0.25809053,1.4011936,0.9599357,0.5663208,-0.019973693
1747679442.710576,0.09097234,0.24930447,1.419742,0.9599357,0.5663208,-0.019973693
1747679442.7110949,0.09097234,0.24930447,1.419742,0.9599357,0.5663208,-0.019973693
1747679442.711613,0.09097234,0.24930447,1.419742,0.9599357,0.5663208,-0.019973693
1747679442.7121334,0.09097234,0.24930447,1.419742,0.9599357,0.5663208,-0.019973693
1747679442.7127666,0.09097234,0.24930447,1.419742,0.9599357,0.5663208,-0.019973693
1747679442.713431,0.09097234,0.24930447,1.419742,0.9599357,0.5663208,-0.019973693
1747679442.7139938,0.09097234,0.24930447,1.419742,0.9599357,0.5663208,-0.019973693
1747679442.7145526,0.09097234,0.24930447,1.419742,0.9599357,0.5663208,-0.019973693
1747679442.715105,0.09097234,0.24930447,1.419742,0.9599357,0.5663208,-0.019973693
1747679442.7156513,0.09097234,0.24930447,1.419742,0.9599357,0.5663208,-0.019973693
1747679442.71621,0.09097234,0.24930447,1.419742,0.9599357,0.5663208,-0.019973693
1747679442.7167656,0.09097234,0.24930447,1.419742,0.9599357,0.5663208,-0.019973693
1747679442.7173157,0.09097234,0.24930447,1.419742,0.9599357,0.5663208,-0.019973693
1747679442.7178628,0.09097234,0.24930447,1.419742,0.9599357,0.5663208,-0.019973693
1747679442.7184198,0.09097234,0.24930447,1.419742,0.9599357,0.5663208,-0.019973693
1747679442.7190156,0.09097234,0.24930447,1.419742,0.9599357,0.5663208,-0.019973693
1747679442.7195911,0.09097234,0.24930447,1.419742,1.0813757,0.26272064,-0.026365275
1747679442.7201426,0.06851907,0.24393523,1.4465884,1.0813757,0.26272064,-0.026365275
1747679442.7206907,0.06851907,0.24393523,1.4465884,1.0813757,0.26272064,-0.026365275
1747679442.7212343,0.06851907,0.24393523,1.4465884,1.0813757,0.26272064,-0.026365275
1747679442.7217834,0.06851907,0.24393523,1.4465884,1.0813757,0.26272064,-0.026365275
1747679442.7223437,0.06851907,0.24393523,1.4465884,1.0813757,0.26272064,-0.026365275
1747679442.7228954,0.06851907,0.24393523,1.4465884,1.0813757,0.26272064,-0.026365275
1747679442.7234473,0.06851907,0.24393523,1.4465884,1.0813757,0.26272064,-0.026365275
1747679442.7240095,0.06851907,0.24393523,1.4465884,1.0813757,0.26272064,-0.026365275
1747679442.724568,0.06851907,0.24393523,1.4465884,1.0813757,0.26272064,-0.026365275
1747679442.725127,0.06851907,0.24393523,1.4465884,1.0813757,0.26272064,-0.026365275
1747679442.7256734,0.06851907,0.24393523,1.4465884,1.0813757,0.26272064,-0.026365275
1747679442.7262251,0.06851907,0.24393523,1.4465884,1.0813757,0.26272064,-0.026365275
1747679442.7267747,0.06851907,0.24393523,1.4465884,1.0813757,0.26272064,-0.026365275
1747679442.7273326,0.06851907,0.24393523,1.4465884,1.0813757,0.26272064,-0.026365275
1747679442.7279027,0.06851907,0.24393523,1.4465884,1.0813757,0.26272064,-0.026365275
1747679442.7284646,0.06851907,0.24393523,1.4465884,1.0813757,0.26272064,-0.026365275
1747679442.729029,0.06851907,0.24393523,1.4465884,1.0813757,0.26272064,-0.026365275
1747679442.7295742,0.06851907,0.24393523,1.4465884,1.0813757,0.26272064,-0.026365275
1747679442.7301161,0.06851907,0.24393523,1.4465884,1.0813757,0.26272064,-0.026365275
1747679442.730675,0.06851907,0.24393523,1.4465884,1.0813757,0.26272064,-0.026365275
1747679442.7312284,0.06851907,0.24393523,1.4465884,1.0813757,0.26272064,-0.026365275
1747679442.7317877,0.042649005,0.24539956,1.5041858,1.2070769,0.030493172,-0.002929475
1747679442.7323472,0.042649005,0.24539956,1.5041858,1.2070769,0.030493172,-0.002929475
1747679442.732921,0.042649005,0.24539956,1.5041858,1.2070769,0.030493172,-0.002929475
1747679442.7334878,0.042649005,0.24539956,1.5041858,1.2070769,0.030493172,-0.002929475
1747679442.7342098,0.042649005,0.24539956,1.5041858,1.2070769,0.030493172,-0.002929475
1747679442.7350368,0.042649005,0.24539956,1.5041858,1.2070769,0.030493172,-0.002929475
1747679442.735611,0.042649005,0.24539956,1.5041858,1.2070769,0.030493172,-0.002929475
1747679442.7361705,0.042649005,0.24539956,1.5041858,1.2070769,0.030493172,-0.002929475
1747679442.7367077,0.042649005,0.24539956,1.5041858,1.2070769,0.030493172,-0.002929475
1747679442.7372575,0.042649005,0.24539956,1.5041858,1.2070769,0.030493172,-0.002929475
1747679442.7378101,0.042649005,0.24539956,1.5041858,1.2070769,0.030493172,-0.002929475
1747679442.7383695,0.042649005,0.24539956,1.5041858,1.2070769,0.030493172,-0.002929475
1747679442.7389255,0.042649005,0.24539956,1.5041858,1.2070769,0.030493172,-0.002929475
1747679442.739476,0.042649005,0.24539956,1.5041858,1.2070769,0.030493172,-0.002929475
1747679442.7400439,0.042649005,0.24539956,1.5041858,1.2070769,0.030493172,-0.002929475
1747679442.7405937,0.042649005,0.24539956,1.5041858,1.2070769,0.030493172,-0.002929475
1747679442.7411485,0.0323986,0.22587498,1.5793555,1.3530179,-0.038748965,0.04820318
1747679442.7417006,0.0323986,0.22587498,1.5793555,1.3530179,-0.038748965,0.04820318
1747679442.742229,0.0323986,0.22587498,1.5793555,1.3530179,-0.038748965,0.04820318
1747679442.7427511,0.0323986,0.22587498,1.5793555,1.3530179,-0.038748965,0.04820318
1747679442.743509,0.0323986,0.22587498,1.5793555,1.3530179,-0.038748965,0.04820318
1747679442.7440736,0.0323986,0.22587498,1.5793555,1.3530179,-0.038748965,0.04820318
1747679442.7446299,0.0323986,0.22587498,1.5793555,1.3530179,-0.038748965,0.04820318
1747679442.7451823,0.0323986,0.22587498,1.5793555,1.3530179,-0.038748965,0.04820318
1747679442.7457309,0.0323986,0.22587498,1.5793555,1.3530179,-0.038748965,0.04820318
1747679442.7462673,0.0323986,0.22587498,1.5793555,1.3530179,-0.038748965,0.04820318
1747679442.7467906,0.0323986,0.22587498,1.5793555,1.3530179,-0.038748965,0.04820318
1747679442.7473128,0.0323986,0.22587498,1.5793555,1.3530179,-0.038748965,0.04820318
1747679442.7478347,0.0323986,0.22587498,1.5793555,1.3530179,-0.038748965,0.04820318
1747679442.748356,0.0323986,0.22587498,1.5793555,1.3530179,-0.038748965,0.04820318
1747679442.7488775,0.0323986,0.22587498,1.5793555,1.3530179,-0.038748965,0.04820318
1747679442.7493992,0.0323986,0.22587498,1.5793555,1.3530179,-0.038748965,0.04820318
1747679442.7499256,0.0323986,0.22587498,1.5793555,1.3530179,-0.038748965,0.04820318
1747679442.7504518,0.0323986,0.22587498,1.5793555,1.3530179,-0.038748965,0.04820318
1747679442.7509952,0.0323986,0.22587498,1.5793555,1.3530179,-0.038748965,0.04820318
1747679442.751563,0.07193588,0.20488605,1.637441,1.5383738,0.080560565,0.09827057
1747679442.7521205,0.07193588,0.20488605,1.637441,1.5383738,0.080560565,0.09827057
1747679442.7526844,0.07193588,0.20488605,1.637441,1.5383738,0.080560565,0.09827057
1747679442.7532508,0.07193588,0.20488605,1.637441,1.5383738,0.080560565,0.09827057
1747679442.7538154,0.07193588,0.20488605,1.637441,1.5383738,0.080560565,0.09827057
1747679442.754379,0.07193588,0.20488605,1.637441,1.5383738,0.080560565,0.09827057
1747679442.754941,0.07193588,0.20488605,1.637441,1.5383738,0.080560565,0.09827057
1747679442.7555,0.07193588,0.20488605,1.637441,1.5383738,0.080560565,0.09827057
1747679442.7560647,0.07193588,0.20488605,1.637441,1.5383738,0.080560565,0.09827057
1747679442.7566261,0.07193588,0.20488605,1.637441,1.5383738,0.080560565,0.09827057
1747679442.7571776,0.07193588,0.20488605,1.637441,1.5383738,0.080560565,0.09827057
1747679442.7577245,0.07193588,0.20488605,1.637441,1.5383738,0.080560565,0.09827057
1747679442.7582712,0.07193588,0.20488605,1.637441,1.5383738,0.080560565,0.09827057
1747679442.7588656,0.07193588,0.20488605,1.637441,1.5383738,0.080560565,0.09827057
1747679442.7594275,0.07193588,0.20488605,1.637441,1.5383738,0.080560565,0.09827057
1747679442.759995,0.07193588,0.20488605,1.637441,1.5383738,0.080560565,0.09827057
1747679442.760512,0.07193588,0.20488605,1.637441,1.5383738,0.080560565,0.09827057
1747679442.7610507,0.07193588,0.20488605,1.637441,1.5383738,0.080560565,0.09827057
1747679442.7615855,0.07193588,0.20488605,1.637441,1.5383738,0.080560565,0.09827057
1747679442.7621105,0.07193588,0.20488605,1.637441,1.5383738,0.080560565,0.09827057
1747679442.762659,0.11147315,0.1931713,1.641346,1.5383738,0.080560565,0.09827057
1747679442.763189,0.11147315,0.1931713,1.641346,1.7109466,0.3170491,0.11851058
1747679442.7637339,0.11147315,0.1931713,1.641346,1.7109466,0.3170491,0.11851058
1747679442.7642844,0.11147315,0.1931713,1.641346,1.7109466,0.3170491,0.11851058
1747679442.7648094,0.11147315,0.1931713,1.641346,1.7109466,0.3170491,0.11851058
1747679442.7653468,0.11147315,0.1931713,1.641346,1.7109466,0.3170491,0.11851058
1747679442.7658856,0.11147315,0.1931713,1.641346,1.7109466,0.3170491,0.11851058
1747679442.7664323,0.11147315,0.1931713,1.641346,1.7109466,0.3170491,0.11851058
1747679442.7669916,0.11147315,0.1931713,1.641346,1.7109466,0.3170491,0.11851058
1747679442.7675323,0.11147315,0.1931713,1.641346,1.7109466,0.3170491,0.11851058
1747679442.7680776,0.11147315,0.1931713,1.641346,1.7109466,0.3170491,0.11851058
1747679442.7686052,0.11147315,0.1931713,1.641346,1.7109466,0.3170491,0.11851058
1747679442.7691298,0.11147315,0.1931713,1.641346,1.7109466,0.3170491,0.11851058
1747679442.7696579,0.11147315,0.1931713,1.641346,1.7109466,0.3170491,0.11851058
1747679442.7701929,0.11147315,0.1931713,1.641346,1.7109466,0.3170491,0.11851058
1747679442.7707176,0.11147315,0.1931713,1.641346,1.7109466,0.3170491,0.11851058
1747679442.7712665,0.11147315,0.1931713,1.641346,1.7109466,0.3170491,0.11851058
1747679442.7720702,0.11147315,0.1931713,1.641346,1.7109466,0.3170491,0.11851058
1747679442.772611,0.11147315,0.1931713,1.641346,1.7109466,0.3170491,0.11851058
1747679442.7731578,0.11147315,0.1931713,1.641346,1.7109466,0.3170491,0.11851058
1747679442.7845962,0.20958416,0.24393523,1.4485408,1.886715,0.6558029,0.11318426
1747679442.7874105,0.20958416,0.24393523,1.4485408,1.9548919,0.8848346,0.03968107
1747679442.7882316,0.20958416,0.24393523,1.4485408,1.9548919,0.8848346,0.03968107
1747679442.7912757,0.20958416,0.24393523,1.4485408,1.9548919,0.8848346,0.03968107
1747679442.7954276,0.2339899,0.27126962,1.4529338,1.9761972,0.8720515,-0.035952646
1747679442.7962255,0.2339899,0.27126962,1.4529338,1.9761972,0.8720515,-0.035952646
1747679442.7994695,0.2339899,0.27126962,1.4529338,1.9761972,0.8720515,-0.035952646
1747679442.801486,0.23740669,0.2702934,1.5027214,2.0337214,0.6824345,-0.13395691
1747679442.8079154,0.23740669,0.2702934,1.5027214,2.0337214,0.6824345,-0.13395691
1747679442.817169,0.18908335,0.26541227,1.5676408,2.1359868,0.49707866,-0.20852536
1747679442.818381,0.18908335,0.26541227,1.5676408,2.1359868,0.49707866,-0.20852536
1747679442.8189979,0.18908335,0.26541227,1.5676408,2.1359868,0.49707866,-0.20852536
1747679442.8215115,0.16467762,0.25418562,1.6144997,2.302168,0.42251018,-0.22983064
1747679442.827267,0.16467762,0.25418562,1.6144997,2.302168,0.42251018,-0.22983064
1747679442.8284974,0.16467762,0.25418562,1.6144997,2.302168,0.42251018,-0.22983064
1747679442.8296902,0.16467762,0.25418562,1.6144997,2.302168,0.42251018,-0.22983064
1747679442.8306313,0.15149854,0.24247088,1.5881416,2.302168,0.42251018,-0.22983064
1747679442.831736,0.15149854,0.24247088,1.5881416,2.302168,0.42251018,-0.22983064
1747679442.8323069,0.15149854,0.24247088,1.5881416,2.4864585,0.4576639,-0.23089589
1747679442.83287,0.15149854,0.24247088,1.5881416,2.4864585,0.4576639,-0.23089589
1747679442.8334944,0.15149854,0.24247088,1.5881416,2.4864585,0.4576639,-0.23089589
1747679442.8343515,0.15149854,0.24247088,1.5881416,2.4864585,0.4576639,-0.23089589
1747679442.8370929,0.15149854,0.24247088,1.5881416,2.4864585,0.4576639,-0.23089589
1747679442.8376856,0.15149854,0.24247088,1.5881416,2.4864585,0.4576639,-0.23089589
1747679442.8382337,0.15149854,0.24247088,1.5881416,2.4864585,0.4576639,-0.23089589
1747679442.838772,0.15149854,0.24247088,1.5881416,2.4864585,0.4576639,-0.23089589
1747679442.8393905,0.15149854,0.24247088,1.5881416,2.4864585,0.4576639,-0.23089589
1747679442.8398838,0.1436887,0.2561381,1.5085789,2.4864585,0.4576639,-0.23089589
1747679442.8404408,0.1436887,0.2561381,1.5085789,2.4864585,0.4576639,-0.23089589
1747679442.8409858,0.1436887,0.2561381,1.5085789,2.626008,0.60147446,-0.21811274
1747679442.8415406,0.1436887,0.2561381,1.5085789,2.626008,0.60147446,-0.21811274
1747679442.8420944,0.1436887,0.2561381,1.5085789,2.626008,0.60147446,-0.21811274
1747679442.8426485,0.1436887,0.2561381,1.5085789,2.626008,0.60147446,-0.21811274
1747679442.8432028,0.1436887,0.2561381,1.5085789,2.626008,0.60147446,-0.21811274
1747679442.8437452,0.1436887,0.2561381,1.5085789,2.626008,0.60147446,-0.21811274
1747679442.8443222,0.1436887,0.2561381,1.5085789,2.626008,0.60147446,-0.21811274
1747679442.8448927,0.1436887,0.2561381,1.5085789,2.626008,0.60147446,-0.21811274
1747679442.8454626,0.1436887,0.2561381,1.5085789,2.626008,0.60147446,-0.21811274
1747679442.84602,0.1436887,0.2561381,1.5085789,2.626008,0.60147446,-0.21811274
1747679442.8465714,0.1436887,0.2561381,1.5085789,2.626008,0.60147446,-0.21811274
1747679442.847165,0.1436887,0.2561381,1.5085789,2.626008,0.60147446,-0.21811274
1747679442.8476982,0.1436887,0.2561381,1.5085789,2.626008,0.60147446,-0.21811274
1747679442.8482769,0.1436887,0.2561381,1.5085789,2.626008,0.60147446,-0.21811274
1747679442.848843,0.1436887,0.2561381,1.5085789,2.626008,0.60147446,-0.21811274
1747679442.8494074,0.1436887,0.2561381,1.5085789,2.626008,0.60147446,-0.21811274
1747679442.8499753,0.1436887,0.2561381,1.5085789,2.626008,0.60147446,-0.21811274
1747679442.8505547,0.1436887,0.2561381,1.5085789,2.626008,0.60147446,-0.21811274
1747679442.851123,0.1436887,0.2561381,1.5085789,2.626008,0.60147446,-0.21811274
1747679442.8516884,0.1436887,0.2561381,1.5085789,2.626008,0.60147446,-0.21811274
1747679442.852246,0.1436887,0.2561381,1.5085789,2.626008,0.60147446,-0.21811274
1747679442.8528008,0.1436887,0.2561381,1.5085789,2.626008,0.60147446,-0.21811274
1747679442.8533635,0.1436887,0.2561381,1.5085789,2.626008,0.60147446,-0.21811274
1747679442.8539693,0.1436887,0.2561381,1.5085789,2.626008,0.60147446,-0.21811274
1747679442.854585,0.1436887,0.2561381,1.5085789,2.626008,0.60147446,-0.21811274
1747679442.8551672,0.1436887,0.2561381,1.5085789,2.626008,0.60147446,-0.21811274
1747679442.8557217,0.1436887,0.2561381,1.5085789,2.626008,0.60147446,-0.21811274
1747679442.8562999,0.1436887,0.2561381,1.5085789,2.626008,0.60147446,-0.21811274
1747679442.8568485,0.1436887,0.2561381,1.5085789,2.626008,0.60147446,-0.21811274
1747679442.857416,0.1436887,0.2561381,1.5085789,2.6963155,0.80174404,-0.22024326
1747679442.8579683,0.1436887,0.2561381,1.5085789,2.6963155,0.80174404,-0.22024326
1747679442.8585145,0.18810712,0.27956757,1.4402429,2.6963155,0.80174404,-0.22024326
1747679442.8590834,0.18810712,0.27956757,1.4402429,2.6963155,0.80174404,-0.22024326
1747679442.859648,0.18810712,0.27956757,1.4402429,2.6963155,0.80174404,-0.22024326
1747679442.8601997,0.18810712,0.27956757,1.4402429,2.6963155,0.80174404,-0.22024326
1747679442.8608453,0.18810712,0.27956757,1.4402429,2.6963155,0.80174404,-0.22024326
1747679442.8614163,0.18810712,0.27956757,1.4402429,2.6963155,0.80174404,-0.22024326
1747679442.8619564,0.18810712,0.27956757,1.4402429,2.6963155,0.80174404,-0.22024326
1747679442.8625078,0.18810712,0.27956757,1.4402429,2.6963155,0.80174404,-0.22024326
1747679442.863051,0.18810712,0.27956757,1.4402429,2.6963155,0.80174404,-0.22024326
1747679442.863613,0.18810712,0.27956757,1.4402429,2.6963155,0.80174404,-0.22024326
1747679442.8641653,0.18810712,0.27956757,1.4402429,2.6963155,0.80174404,-0.22024326
1747679442.8647754,0.18810712,0.27956757,1.4402429,2.6963155,0.80174404,-0.22024326
1747679442.8653615,0.18810712,0.27956757,1.4402429,2.6963155,0.80174404,-0.22024326
1747679442.8659828,0.18810712,0.27956757,1.4402429,2.6963155,0.80174404,-0.22024326
1747679442.8665843,0.18810712,0.27956757,1.4402429,2.6963155,0.80174404,-0.22024326
1747679442.8671386,0.18810712,0.27956757,1.4402429,2.6963155,0.80174404,-0.22024326
1747679442.867684,0.18810712,0.27956757,1.4402429,2.6963155,0.80174404,-0.22024326
1747679442.868236,0.20567925,0.2844487,1.415349,2.726143,0.9615336,-0.24794011
1747679442.868822,0.20567925,0.2844487,1.415349,2.726143,0.9615336,-0.24794011
1747679442.8693862,0.20567925,0.2844487,1.415349,2.726143,0.9615336,-0.24794011
1747679442.8699813,0.20567925,0.2844487,1.415349,2.726143,0.9615336,-0.24794011
1747679442.8705263,0.20567925,0.2844487,1.415349,2.726143,0.9615336,-0.24794011
1747679442.8710952,0.20567925,0.2844487,1.415349,2.726143,0.9615336,-0.24794011
1747679442.8716478,0.20567925,0.2844487,1.415349,2.726143,0.9615336,-0.24794011
1747679442.8721979,0.20567925,0.2844487,1.415349,2.726143,0.9615336,-0.24794011
1747679442.8727796,0.20567925,0.2844487,1.415349,2.726143,0.9615336,-0.24794011
1747679442.8733385,0.20567925,0.2844487,1.415349,2.726143,0.9615336,-0.24794011
1747679442.8739085,0.20567925,0.2844487,1.415349,2.726143,0.9615336,-0.24794011
1747679442.8744483,0.20567925,0.2844487,1.415349,2.726143,0.9615336,-0.24794011
1747679442.8750026,0.20567925,0.2844487,1.415349,2.726143,0.9615336,-0.24794011
1747679442.8755834,0.20567925,0.2844487,1.415349,2.726143,0.9615336,-0.24794011
1747679442.876141,0.20567925,0.2844487,1.415349,2.726143,0.9615336,-0.24794011
1747679442.8768845,0.20567925,0.2844487,1.415349,2.726143,0.9615336,-0.24794011
1747679442.8782215,0.20567925,0.2844487,1.415349,2.726143,0.9615336,-0.24794011
1747679442.8789866,0.19347638,0.2737102,1.347013,2.8262775,1.4089444,-0.30866015
1747679442.8795595,0.19347638,0.2737102,1.347013,2.8262775,1.4089444,-0.30866015
1747679442.8801348,0.19347638,0.2737102,1.347013,2.8262775,1.4089444,-0.30866015
1747679442.8806825,0.19347638,0.2737102,1.347013,2.8262775,1.4089444,-0.30866015
1747679442.881254,0.19347638,0.2737102,1.347013,2.8262775,1.4089444,-0.30866015
1747679442.8818557,0.19347638,0.2737102,1.347013,2.8262775,1.4089444,-0.30866015
1747679442.8824282,0.19347638,0.2737102,1.347013,2.8262775,1.4089444,-0.30866015
1747679442.883074,0.19347638,0.2737102,1.347013,2.9104335,1.6070833,-0.3331612
1747679442.8836858,0.17151123,0.2668766,1.3025945,2.9104335,1.6070833,-0.3331612
1747679442.8842566,0.17151123,0.2668766,1.3025945,2.9104335,1.6070833,-0.3331612
1747679442.8848197,0.17151123,0.2668766,1.3025945,2.9104335,1.6070833,-0.3331612
1747679442.8853962,0.17151123,0.2668766,1.3025945,2.9104335,1.6070833,-0.3331612
1747679442.8859575,0.17151123,0.2668766,1.3025945,2.9104335,1.6070833,-0.3331612
1747679442.886499,0.17151123,0.2668766,1.3025945,2.9104335,1.6070833,-0.3331612
1747679442.887035,0.17151123,0.2668766,1.3025945,2.9104335,1.6070833,-0.3331612
1747679442.8875828,0.17151123,0.2668766,1.3025945,2.9104335,1.6070833,-0.3331612
1747679442.8881311,0.17151123,0.2668766,1.3025945,2.9104335,1.6070833,-0.3331612
1747679442.8886926,0.17151123,0.2668766,1.3025945,2.9104335,1.6070833,-0.3331612
1747679442.8892384,0.17151123,0.2668766,1.3025945,2.9104335,1.6070833,-0.3331612
1747679442.8898044,0.17151123,0.2668766,1.3025945,2.9104335,1.6070833,-0.3331612
1747679442.8903441,0.17151123,0.2668766,1.3025945,2.9104335,1.6070833,-0.3331612
1747679442.890896,0.17151123,0.2668766,1.3025945,2.9104335,1.6070833,-0.3331612
1747679442.8914392,0.17151123,0.2668766,1.3025945,2.9104335,1.6070833,-0.3331612
1747679442.8920124,0.17151123,0.2668766,1.3025945,2.9104335,1.6070833,-0.3331612
1747679442.892653,0.17151123,0.2668766,1.3025945,2.9104335,1.6070833,-0.3331612
1747679442.893109,0.17151123,0.2668766,1.3025945,2.9104335,1.6070833,-0.3331612
1747679442.8936775,0.17151123,0.2668766,1.3025945,2.9104335,1.6070833,-0.3331612
1747679442.894262,0.17151123,0.2668766,1.3025945,2.9104335,1.6070833,-0.3331612
1747679442.8947635,0.17151123,0.2668766,1.3025945,2.9104335,1.6070833,-0.3331612
1747679442.8953185,0.17151123,0.2668766,1.3025945,2.9104335,1.6070833,-0.3331612
1747679442.895963,0.17151123,0.2668766,1.3025945,2.9104335,1.6070833,-0.3331612
1747679442.8965483,0.14173624,0.27566266,1.1878877,3.0361345,1.7189361,-0.35233596
1747679442.8971045,0.14173624,0.27566266,1.1878877,3.0361345,1.7189361,-0.35233596
1747679442.897653,0.14173624,0.27566266,1.1878877,3.0361345,1.7189361,-0.35233596
1747679442.8981984,0.14173624,0.27566266,1.1878877,3.0361345,1.7189361,-0.35233596
1747679442.8987882,0.14173624,0.27566266,1.1878877,3.0361345,1.7189361,-0.35233596
1747679442.8993847,0.14173624,0.27566266,1.1878877,3.0361345,1.7189361,-0.35233596
1747679442.8999455,0.14173624,0.27566266,1.1878877,3.0361345,1.7189361,-0.35233596
1747679442.9005103,0.14173624,0.27566266,1.1878877,3.0361345,1.7189361,-0.35233596
1747679442.9010663,0.10122274,0.28493682,1.1239446,3.0361345,1.7189361,-0.35233596
1747679442.9015958,0.10122274,0.28493682,1.1239446,3.0361345,1.7189361,-0.35233596
1747679442.902157,0.10122274,0.28493682,1.1239446,3.1479871,1.6326497,-0.36405385
1747679442.9027166,0.10122274,0.28493682,1.1239446,3.1479871,1.6326497,-0.36405385
1747679442.9032757,0.10122274,0.28493682,1.1239446,3.1479871,1.6326497,-0.36405385
1747679442.9038393,0.10122274,0.28493682,1.1239446,3.1479871,1.6326497,-0.36405385
1747679442.904398,0.10122274,0.28493682,1.1239446,3.1479871,1.6326497,-0.36405385
1747679442.9049509,0.10122274,0.28493682,1.1239446,3.1479871,1.6326497,-0.36405385
1747679442.9055033,0.10122274,0.28493682,1.1239446,3.1479871,1.6326497,-0.36405385
1747679442.906053,0.10122274,0.28493682,1.1239446,3.1479871,1.6326497,-0.36405385
1747679442.906605,0.10122274,0.28493682,1.1239446,3.1479871,1.6326497,-0.36405385
1747679442.9071624,0.10122274,0.28493682,1.1239446,3.1479871,1.6326497,-0.36405385
1747679442.9077165,0.10122274,0.28493682,1.1239446,3.1479871,1.6326497,-0.36405385
1747679442.908259,0.10122274,0.28493682,1.1239446,3.1479871,1.6326497,-0.36405385
1747679442.9087875,0.10122274,0.28493682,1.1239446,3.1479871,1.6326497,-0.36405385
1747679442.9093149,0.10122274,0.28493682,1.1239446,3.1479871,1.6326497,-0.36405385
1747679442.9098458,0.10122274,0.28493682,1.1239446,3.1479871,1.6326497,-0.36405385
1747679442.9104116,0.10122274,0.28493682,1.1239446,3.1479871,1.6326497,-0.36405385
1747679442.9110024,0.10122274,0.28493682,1.1239446,3.1479871,1.6326497,-0.36405385
1747679442.9116929,0.08267439,0.28786555,1.0751332,3.272623,1.3439633,-0.3619233
1747679442.91226,0.08267439,0.28786555,1.0751332,3.272623,1.3439633,-0.3619233
1747679442.91285,0.08267439,0.28786555,1.0751332,3.272623,1.3439633,-0.3619233
1747679442.9134476,0.08267439,0.28786555,1.0751332,3.272623,1.3439633,-0.3619233
1747679442.914002,0.08267439,0.28786555,1.0751332,3.272623,1.3439633,-0.3619233
1747679442.9145374,0.08267439,0.28786555,1.0751332,3.272623,1.3439633,-0.3619233
1747679442.9151073,0.08267439,0.28786555,1.0751332,3.272623,1.3439633,-0.3619233
1747679442.9156568,0.08267439,0.28786555,1.0751332,3.272623,1.3439633,-0.3619233
1747679442.9161866,0.08267439,0.28786555,1.0751332,3.272623,1.3439633,-0.3619233
1747679442.9167557,0.08267439,0.28786555,1.0751332,3.272623,1.3439633,-0.3619233
1747679442.9173086,0.08267439,0.28786555,1.0751332,3.272623,1.3439633,-0.3619233
1747679442.917875,0.08267439,0.28786555,1.0751332,3.272623,1.3439633,-0.3619233
1747679442.9184668,0.08267439,0.28786555,1.0751332,3.272623,1.3439633,-0.3619233
1747679442.918991,0.08267439,0.28786555,1.0751332,3.272623,1.3439633,-0.3619233
1747679442.9195592,0.08267439,0.28786555,1.0751332,3.272623,1.3439633,-0.3619233
1747679442.92012,0.025564997,0.27907947,1.057561,3.272623,1.3439633,-0.3619233
1747679442.920693,0.025564997,0.27907947,1.057561,3.437739,0.9263799,-0.356597
1747679442.92126,0.025564997,0.27907947,1.057561,3.437739,0.9263799,-0.356597
1747679442.9218001,0.025564997,0.27907947,1.057561,3.437739,0.9263799,-0.356597
1747679442.9223604,0.025564997,0.27907947,1.057561,3.437739,0.9263799,-0.356597
1747679442.9229212,0.025564997,0.27907947,1.057561,3.437739,0.9263799,-0.356597
1747679442.9234946,0.025564997,0.27907947,1.057561,3.437739,0.9263799,-0.356597
1747679442.9240322,0.025564997,0.27907947,1.057561,3.437739,0.9263799,-0.356597
1747679442.9246044,0.025564997,0.27907947,1.057561,3.437739,0.9263799,-0.356597
1747679442.9251852,0.025564997,0.27907947,1.057561,3.437739,0.9263799,-0.356597
1747679442.9257317,0.025564997,0.27907947,1.057561,3.437739,0.9263799,-0.356597
1747679442.9263487,0.025564997,0.27907947,1.057561,3.437739,0.9263799,-0.356597
1747679442.9270518,0.025564997,0.27907947,1.057561,3.437739,0.9263799,-0.356597
1747679442.9276688,0.025564997,0.27907947,1.057561,3.437739,0.9263799,-0.356597
1747679442.9282503,0.025564997,0.27907947,1.057561,3.437739,0.9263799,-0.356597
1747679442.9288154,0.025564997,0.27907947,1.057561,3.437739,0.9263799,-0.356597
1747679442.9301727,0.025564997,0.27907947,1.057561,3.437739,0.9263799,-0.356597
1747679442.9307544,0.025564997,0.27907947,1.057561,3.437739,0.9263799,-0.356597
1747679442.9313257,0.025564997,0.27907947,1.057561,3.437739,0.9263799,-0.356597
1747679442.9318962,0.025564997,0.27907947,1.057561,3.437739,0.9263799,-0.356597
1747679442.9324696,0.025564997,0.27907947,1.057561,3.437739,0.9263799,-0.356597
1747679442.933038,-0.008114903,0.27419832,0.99654675,3.6262906,0.5205144,-0.316117
1747679442.9335833,-0.008114903,0.27419832,0.99654675,3.6262906,0.5205144,-0.316117
1747679442.9341214,-0.008114903,0.27419832,0.99654675,3.6262906,0.5205144,-0.316117
1747679442.9346552,-0.008114903,0.27419832,0.99654675,3.6262906,0.5205144,-0.316117
1747679442.935193,-0.008114903,0.27419832,0.99654675,3.6262906,0.5205144,-0.316117
1747679442.9357598,-0.008114903,0.27419832,0.99654675,3.6262906,0.5205144,-0.316117
1747679442.9362895,-0.008114903,0.27419832,0.99654675,3.6262906,0.5205144,-0.316117
1747679442.9368412,-0.008114903,0.27419832,0.99654675,3.6262906,0.5205144,-0.316117
1747679442.9373896,-0.008114903,0.27419832,0.99654675,3.6262906,0.5205144,-0.316117
1747679442.9379478,-0.008114903,0.27419832,0.99654675,3.6262906,0.5205144,-0.316117
1747679442.9385135,-0.008114903,0.27419832,0.99654675,3.6262906,0.5205144,-0.316117
1747679442.9390697,-0.008114903,0.27419832,0.99654675,3.6262906,0.5205144,-0.316117
1747679442.9396205,-0.008114903,0.27419832,0.99654675,3.6262906,0.5205144,-0.316117
1747679442.9401524,-0.008114903,0.27419832,0.99654675,3.6262906,0.5205144,-0.316117
1747679442.9406924,-0.008114903,0.27419832,0.99654675,3.6262906,0.5205144,-0.316117
1747679442.941231,-0.008114903,0.27419832,0.99654675,3.6262906,0.5205144,-0.316117
1747679442.9417999,-0.008114903,0.27419832,0.99654675,3.6262906,0.5205144,-0.316117
1747679442.9423277,-0.0051862164,0.26931718,0.9452948,3.7946022,0.22756694,-0.27883276
1747679442.9428782,-0.0051862164,0.26931718,0.9452948,3.7946022,0.22756694,-0.27883276
1747679442.9434328,-0.0051862164,0.26931718,0.9452948,3.7946022,0.22756694,-0.27883276
1747679442.943991,-0.0051862164,0.26931718,0.9452948,3.7946022,0.22756694,-0.27883276
1747679442.9445417,-0.0051862164,0.26931718,0.9452948,3.7946022,0.22756694,-0.27883276
1747679442.9451272,-0.0051862164,0.26931718,0.9452948,3.7946022,0.22756694,-0.27883276
1747679442.945676,-0.0051862164,0.26931718,0.9452948,3.7946022,0.22756694,-0.27883276
1747679442.9462368,-0.0051862164,0.26931718,0.9452948,3.7946022,0.22756694,-0.27883276
1747679442.9467592,-0.0051862164,0.26931718,0.9452948,3.7946022,0.22756694,-0.27883276
1747679442.9473124,-0.0051862164,0.26931718,0.9452948,3.7946022,0.22756694,-0.27883276
1747679442.947864,-0.0051862164,0.26931718,0.9452948,3.7946022,0.22756694,-0.27883276
1747679442.94841,-0.0051862164,0.26931718,0.9452948,3.7946022,0.22756694,-0.27883276
1747679442.9489686,-0.0051862164,0.26931718,0.9452948,3.7946022,0.22756694,-0.27883276
1747679442.9495203,-0.0051862164,0.26931718,0.9452948,3.7946022,0.22756694,-0.27883276
1747679442.9500713,-0.0051862164,0.26931718,0.9452948,3.7946022,0.22756694,-0.27883276
1747679442.950623,-0.0051862164,0.26931718,0.9452948,3.7946022,0.22756694,-0.27883276
1747679442.951166,-0.0051862164,0.26931718,0.9452948,3.7946022,0.22756694,-0.27883276
1747679442.9517207,-0.0051862164,0.26931718,0.9452948,3.7946022,0.22756694,-0.27883276
1747679442.9522715,-0.0051862164,0.26931718,0.9452948,3.7946022,0.22756694,-0.27883276
1747679442.9528227,-0.0051862164,0.26931718,0.9452948,3.7946022,0.22756694,-0.27883276
1747679442.9533744,-0.0051862164,0.26931718,0.9452948,3.7946022,0.22756694,-0.27883276
1747679442.9539256,-0.0051862164,0.26931718,0.9452948,3.7946022,0.22756694,-0.27883276
1747679442.9544926,-0.0051862164,0.26931718,0.9452948,3.7946022,0.22756694,-0.27883276
1747679442.9550498,-0.0051862164,0.26931718,0.9452948,3.7946022,0.22756694,-0.27883276
1747679442.9556024,-0.0051862164,0.26931718,0.9452948,3.7946022,0.22756694,-0.27883276
1747679442.9561477,-0.0051862164,0.26931718,0.9452948,3.7946022,0.22756694,-0.27883276
1747679442.9566898,-0.0051862164,0.26931718,0.9452948,3.7946022,0.22756694,-0.27883276
1747679442.957261,0.04118466,0.25809053,0.8657321,3.9501307,0.10719215,-0.24580958
1747679442.9578266,0.04118466,0.25809053,0.8657321,3.9501307,0.10719215,-0.24580958
1747679442.9583855,0.04118466,0.25809053,0.8657321,3.9501307,0.10719215,-0.24580958
1747679442.958944,0.04118466,0.25809053,0.8657321,3.9501307,0.10719215,-0.24580958
1747679442.9594944,0.04118466,0.25809053,0.8657321,3.9501307,0.10719215,-0.24580958
1747679442.9600568,0.04118466,0.25809053,0.8657321,3.9501307,0.10719215,-0.24580958
1747679442.960615,0.04118466,0.25809053,0.8657321,3.9501307,0.10719215,-0.24580958
1747679442.9611764,0.04118466,0.25809053,0.8657321,3.9501307,0.10719215,-0.24580958
1747679442.9617457,0.04118466,0.25809053,0.8657321,4.015112,0.10719215,-0.24900538
1747679442.9623013,0.04118466,0.25809053,0.8657321,4.015112,0.10719215,-0.24900538
1747679442.9628472,0.075840786,0.25125694,0.7993485,4.015112,0.10719215,-0.24900538
1747679442.9633946,0.075840786,0.25125694,0.7993485,4.015112,0.10719215,-0.24900538
1747679442.9639454,0.075840786,0.25125694,0.7993485,4.015112,0.10719215,-0.24900538
1747679442.9644947,0.075840786,0.25125694,0.7993485,4.015112,0.10719215,-0.24900538
1747679442.9650369,0.075840786,0.25125694,0.7993485,4.015112,0.10719215,-0.24900538
1747679442.9655771,0.075840786,0.25125694,0.7993485,4.015112,0.10719215,-0.24900538
1747679442.966118,0.075840786,0.25125694,0.7993485,4.015112,0.10719215,-0.24900538
1747679442.96666,0.075840786,0.25125694,0.7993485,4.015112,0.10719215,-0.24900538
1747679442.967186,0.075840786,0.25125694,0.7993485,4.015112,0.10719215,-0.24900538
1747679442.9677281,0.075840786,0.25125694,0.7993485,4.015112,0.10719215,-0.24900538
1747679442.9682677,0.075840786,0.25125694,0.7993485,4.015112,0.10719215,-0.24900538
1747679442.9688098,0.075840786,0.25125694,0.7993485,4.015112,0.10719215,-0.24900538
1747679442.9693503,0.075840786,0.25125694,0.7993485,4.015112,0.10719215,-0.24900538
1747679442.9698915,0.075840786,0.25125694,0.7993485,4.015112,0.10719215,-0.24900538
1747679442.9704463,0.075840786,0.25125694,0.7993485,4.015112,0.10719215,-0.24900538
1747679442.9710042,0.075840786,0.25125694,0.7993485,4.015112,0.10719215,-0.24900538
1747679442.9715872,0.075840786,0.25125694,0.7993485,4.015112,0.10719215,-0.24900538
1747679442.972144,0.075840786,0.25125694,0.7993485,4.015112,0.10719215,-0.24900538
1747679442.9726896,0.075840786,0.25125694,0.7993485,4.015112,0.10719215,-0.24900538
1747679442.973233,0.075840786,0.25125694,0.7993485,4.015112,0.10719215,-0.24900538
1747679442.9737742,0.075840786,0.25125694,0.7993485,4.015112,0.10719215,-0.24900538
1747679442.9743211,0.075840786,0.25125694,0.7993485,4.015112,0.10719215,-0.24900538
1747679442.974873,0.1368551,0.2502807,0.6782961,4.08968,0.21265325,-0.30120328
1747679442.9754164,0.1368551,0.2502807,0.6782961,4.08968,0.21265325,-0.30120328
1747679442.9759552,0.1368551,0.2502807,0.6782961,4.08968,0.21265325,-0.30120328
1747679442.9764938,0.1368551,0.2502807,0.6782961,4.08968,0.21265325,-0.30120328
1747679442.977033,0.1368551,0.2502807,0.6782961,4.08968,0.21265325,-0.30120328
1747679442.9775712,0.1368551,0.2502807,0.6782961,4.08968,0.21265325,-0.30120328
1747679442.978112,0.1368551,0.2502807,0.6782961,4.08968,0.21265325,-0.30120328
1747679442.9786499,0.1368551,0.2502807,0.6782961,4.08968,0.21265325,-0.30120328
1747679442.9791937,0.1368551,0.2502807,0.6782961,4.08968,0.21265325,-0.30120328
1747679442.9797344,0.1368551,0.2502807,0.6782961,4.08968,0.21265325,-0.30120328
1747679442.980277,0.1368551,0.2502807,0.6782961,4.08968,0.21265325,-0.30120328
1747679442.980819,0.1368551,0.2502807,0.6782961,4.08968,0.21265325,-0.30120328
1747679442.9813602,0.1368551,0.2502807,0.6782961,4.08968,0.21265325,-0.30120328
1747679442.9819024,0.1368551,0.2502807,0.6782961,4.08968,0.21265325,-0.30120328
1747679442.9824445,0.1368551,0.2502807,0.6782961,4.08968,0.21265325,-0.30120328
1747679442.9829862,0.1368551,0.2502807,0.6782961,4.1045938,0.36498594,-0.37257597
1747679442.983538,0.1368551,0.2502807,0.6782961,4.1045938,0.36498594,-0.37257597
1747679442.9840817,0.1368551,0.2502807,0.6782961,4.1045938,0.36498594,-0.37257597
1747679442.9846249,0.1700469,0.25906676,0.56798226,4.1045938,0.36498594,-0.37257597
1747679442.9851742,0.1700469,0.25906676,0.56798226,4.1045938,0.36498594,-0.37257597
1747679442.9857333,0.1700469,0.25906676,0.56798226,4.1045938,0.36498594,-0.37257597
1747679442.9862878,0.1700469,0.25906676,0.56798226,4.1045938,0.36498594,-0.37257597
1747679442.9868574,0.1700469,0.25906676,0.56798226,4.1045938,0.36498594,-0.37257597
1747679442.9874163,0.1700469,0.25906676,0.56798226,4.1045938,0.36498594,-0.37257597
1747679442.9879525,0.1700469,0.25906676,0.56798226,4.1045938,0.36498594,-0.37257597
1747679442.9884844,0.1700469,0.25906676,0.56798226,4.1045938,0.36498594,-0.37257597
1747679442.9890294,0.1700469,0.25906676,0.56798226,4.1045938,0.36498594,-0.37257597
1747679442.9895668,0.1700469,0.25906676,0.56798226,4.1045938,0.36498594,-0.37257597
1747679442.9900956,0.1700469,0.25906676,0.56798226,4.1045938,0.36498594,-0.37257597
1747679442.9906273,0.1700469,0.25906676,0.56798226,4.1045938,0.36498594,-0.37257597
1747679442.9911547,0.1700469,0.25906676,0.56798226,4.1045938,0.36498594,-0.37257597
1747679442.9916809,0.1700469,0.25906676,0.56798226,4.1045938,0.36498594,-0.37257597
1747679442.992207,0.1700469,0.25906676,0.56798226,4.1045938,0.36498594,-0.37257597
1747679442.9927342,0.1700469,0.25906676,0.56798226,4.1045938,0.36498594,-0.37257597
1747679442.9932623,0.1700469,0.25906676,0.56798226,4.1045938,0.36498594,-0.37257597
1747679442.9938006,0.1700469,0.25906676,0.56798226,4.1045938,0.36498594,-0.37257597
1747679442.9943457,0.1700469,0.25906676,0.56798226,4.1045938,0.36498594,-0.37257597
1747679442.9948597,0.1700469,0.25906676,0.56798226,4.1045938,0.36498594,-0.37257597
1747679442.9953876,0.1700469,0.25906676,0.56798226,4.1045938,0.36498594,-0.37257597
1747679442.9959147,0.1700469,0.25906676,0.56798226,4.1045938,0.36498594,-0.37257597
1747679442.9964411,0.1700469,0.25906676,0.56798226,4.1045938,0.36498594,-0.37257597
1747679442.9969997,0.1700469,0.25906676,0.56798226,4.0566573,0.5215797,-0.46631917
1747679442.9975343,0.16614197,0.26931718,0.404952,4.0566573,0.5215797,-0.46631917
1747679442.998063,0.16614197,0.26931718,0.404952,4.0566573,0.5215797,-0.46631917
1747679442.9985898,0.16614197,0.26931718,0.404952,4.0566573,0.5215797,-0.46631917
1747679442.9991162,0.16614197,0.26931718,0.404952,4.0566573,0.5215797,-0.46631917
1747679442.9996426,0.16614197,0.26931718,0.404952,4.0566573,0.5215797,-0.46631917
1747679443.000169,0.16614197,0.26931718,0.404952,4.0566573,0.5215797,-0.46631917
1747679443.0007012,0.16614197,0.26931718,0.404952,4.0566573,0.5215797,-0.46631917
1747679443.001256,0.16614197,0.26931718,0.404952,4.0566573,0.5215797,-0.46631917
1747679443.0018349,0.16614197,0.26931718,0.404952,4.0566573,0.5215797,-0.46631917
1747679443.0023935,0.16614197,0.26931718,0.404952,4.0566573,0.5215797,-0.46631917
1747679443.0029278,0.16614197,0.26931718,0.404952,4.0566573,0.5215797,-0.46631917
1747679443.0034554,0.16614197,0.26931718,0.404952,4.0566573,0.5215797,-0.46631917
1747679443.0039933,0.16614197,0.26931718,0.404952,4.0566573,0.5215797,-0.46631917
1747679443.0045397,0.16614197,0.26931718,0.404952,4.0566573,0.5215797,-0.46631917
1747679443.0050852,0.16614197,0.26931718,0.404952,4.0566573,0.5215797,-0.46631917
1747679443.0056176,0.16614197,0.26931718,0.404952,3.9607835,0.6451503,-0.55580133
1747679443.0061467,0.16614197,0.26931718,0.404952,3.9607835,0.6451503,-0.55580133
1747679443.0066764,0.18517844,0.28786555,0.27853033,3.9607835,0.6451503,-0.55580133
1747679443.0072048,0.18517844,0.28786555,0.27853033,3.9607835,0.6451503,-0.55580133
1747679443.0077322,0.18517844,0.28786555,0.27853033,3.9607835,0.6451503,-0.55580133
1747679443.0082593,0.18517844,0.28786555,0.27853033,3.9607835,0.6451503,-0.55580133
1747679443.00879,0.18517844,0.28786555,0.27853033,3.9607835,0.6451503,-0.55580133
1747679443.009319,0.18517844,0.28786555,0.27853033,3.9607835,0.6451503,-0.55580133
1747679443.009846,0.18517844,0.28786555,0.27853033,3.9607835,0.6451503,-0.55580133
1747679443.0103807,0.18517844,0.28786555,0.27853033,3.9607835,0.6451503,-0.55580133
1747679443.0109112,0.17151123,0.30885443,0.14820376,3.9607835,0.6451503,-0.55580133
1747679443.0114398,0.17151123,0.30885443,0.14820376,3.9607835,0.6451503,-0.55580133
1747679443.011967,0.17151123,0.30885443,0.14820376,3.9607835,0.6451503,-0.55580133
1747679443.0125074,0.17151123,0.30885443,0.14820376,3.8159075,0.67284715,-0.6612624
1747679443.0130496,0.17151123,0.30885443,0.14820376,3.8159075,0.67284715,-0.6612624
1747679443.0135798,0.17151123,0.30885443,0.14820376,3.8159075,0.67284715,-0.6612624
1747679443.014123,0.17151123,0.30885443,0.14820376,3.8159075,0.67284715,-0.6612624
1747679443.0146668,0.17151123,0.30885443,0.14820376,3.8159075,0.67284715,-0.6612624
1747679443.0152023,0.17151123,0.30885443,0.14820376,3.8159075,0.67284715,-0.6612624
1747679443.0157323,0.17151123,0.30885443,0.14820376,3.8159075,0.67284715,-0.6612624
1747679443.0162659,0.17151123,0.30885443,0.14820376,3.8159075,0.67284715,-0.6612624
1747679443.0168116,0.17151123,0.30885443,0.14820376,3.8159075,0.67284715,-0.6612624
1747679443.0174427,0.17151123,0.30885443,0.14820376,3.8159075,0.67284715,-0.6612624
1747679443.018007,0.17151123,0.30885443,0.14820376,3.8159075,0.67284715,-0.6612624
1747679443.018567,0.17151123,0.30885443,0.14820376,3.8159075,0.67284715,-0.6612624
1747679443.0191634,0.17151123,0.30885443,0.14820376,3.8159075,0.67284715,-0.6612624
1747679443.0197263,0.17151123,0.30885443,0.14820376,3.8159075,0.67284715,-0.6612624
1747679443.0203369,0.17151123,0.30885443,0.14820376,3.615638,0.6089313,-0.764593
1747679443.0208998,0.17151123,0.30885443,0.14820376,3.615638,0.6089313,-0.764593
1747679443.0214539,0.17151123,0.30885443,0.14820376,3.615638,0.6089313,-0.764593
1747679443.0220222,0.17151123,0.30885443,0.14820376,3.615638,0.6089313,-0.764593
1747679443.022703,0.14271247,0.35180852,0.0720579,3.615638,0.6089313,-0.764593
1747679443.023257,0.14271247,0.35180852,0.0720579,3.615638,0.6089313,-0.764593
1747679443.0238178,0.14271247,0.35180852,0.0720579,3.615638,0.6089313,-0.764593
1747679443.0243733,0.14271247,0.35180852,0.0720579,3.615638,0.6089313,-0.764593
1747679443.024933,0.14271247,0.35180852,0.0720579,3.615638,0.6089313,-0.764593
1747679443.02548,0.14271247,0.35180852,0.0720579,3.615638,0.6089313,-0.764593
1747679443.0260205,0.14271247,0.35180852,0.0720579,3.615638,0.6089313,-0.764593
1747679443.0265617,0.14271247,0.35180852,0.0720579,3.615638,0.6089313,-0.764593
1747679443.0271022,0.14271247,0.35180852,0.0720579,3.615638,0.6089313,-0.764593
1747679443.027648,0.14271247,0.35180852,0.0720579,3.615638,0.6089313,-0.764593
1747679443.0281997,0.14271247,0.35180852,0.0720579,3.615638,0.6089313,-0.764593
1747679443.0287478,0.14271247,0.35180852,0.0720579,3.615638,0.6089313,-0.764593
1747679443.0293314,0.14271247,0.35180852,0.0720579,3.615638,0.6089313,-0.764593
1747679443.029881,0.14271247,0.35180852,0.0720579,3.615638,0.6089313,-0.764593
1747679443.0304337,0.14271247,0.35180852,0.0720579,3.4228253,0.46938178,-0.8444877
1747679443.030983,0.14271247,0.35180852,0.0720579,3.4228253,0.46938178,-0.8444877
1747679443.03153,0.0660785,0.38988146,0.04862841,3.4228253,0.46938178,-0.8444877
1747679443.0320818,0.0660785,0.38988146,0.04862841,3.4228253,0.46938178,-0.8444877
1747679443.0326767,0.0660785,0.38988146,0.04862841,3.4228253,0.46938178,-0.8444877
1747679443.0332334,0.0660785,0.38988146,0.04862841,3.4228253,0.46938178,-0.8444877
1747679443.033775,0.0660785,0.38988146,0.04862841,3.4228253,0.46938178,-0.8444877
1747679443.0343108,0.0660785,0.38988146,0.04862841,3.4228253,0.46938178,-0.8444877
1747679443.03485,0.0660785,0.38988146,0.04862841,3.4228253,0.46938178,-0.8444877
1747679443.0353818,0.0660785,0.38988146,0.04862841,3.4228253,0.46938178,-0.8444877
1747679443.035914,0.0660785,0.38988146,0.04862841,3.4228253,0.46938178,-0.8444877
1747679443.0364459,0.0660785,0.38988146,0.04862841,3.4228253,0.46938178,-0.8444877
1747679443.036978,0.0660785,0.38988146,0.04862841,3.4228253,0.46938178,-0.8444877
1747679443.0375097,0.0660785,0.38988146,0.04862841,3.4228253,0.46938178,-0.8444877
1747679443.0380383,0.0660785,0.38988146,0.04862841,3.4228253,0.46938178,-0.8444877
1747679443.03857,0.0660785,0.38988146,0.04862841,3.4228253,0.46938178,-0.8444877
1747679443.0391016,0.0660785,0.38988146,0.04862841,3.4228253,0.46938178,-0.8444877
1747679443.039639,0.0660785,0.38988146,0.04862841,3.4228253,0.46938178,-0.8444877
1747679443.040175,0.0660785,0.38988146,0.04862841,3.4228253,0.46938178,-0.8444877
1747679443.0407069,0.0660785,0.38988146,0.04862841,3.223621,0.26911223,-0.861532
1747679443.0412362,0.0660785,0.38988146,0.04862841,3.223621,0.26911223,-0.861532
1747679443.0417926,-0.026663255,0.42697814,0.049116522,3.223621,0.26911223,-0.861532
1747679443.042323,-0.026663255,0.42697814,0.049116522,3.223621,0.26911223,-0.861532
1747679443.042852,-0.026663255,0.42697814,0.049116522,3.223621,0.26911223,-0.861532
1747679443.0433807,-0.026663255,0.42697814,0.049116522,3.223621,0.26911223,-0.861532
1747679443.0439208,-0.026663255,0.42697814,0.049116522,3.223621,0.26911223,-0.861532
1747679443.0444639,-0.026663255,0.42697814,0.049116522,3.223621,0.26911223,-0.861532
1747679443.0449984,-0.026663255,0.42697814,0.049116522,3.223621,0.26911223,-0.861532
1747679443.045527,-0.026663255,0.42697814,0.049116522,3.223621,0.26911223,-0.861532
1747679443.0460548,-0.026663255,0.42697814,0.049116522,3.223621,0.26911223,-0.861532
1747679443.0465837,-0.026663255,0.42697814,0.049116522,3.223621,0.26911223,-0.861532
1747679443.0471115,-0.026663255,0.42697814,0.049116522,3.223621,0.26911223,-0.861532
1747679443.0477223,-0.026663255,0.42697814,0.049116522,3.223621,0.26911223,-0.861532
1747679443.048294,-0.026663255,0.42697814,0.049116522,3.223621,0.26911223,-0.861532
1747679443.048853,-0.026663255,0.42697814,0.049116522,3.223621,0.26911223,-0.861532
1747679443.0494049,-0.026663255,0.42697814,0.049116522,3.223621,0.26911223,-0.861532
1747679443.0499382,-0.026663255,0.42697814,0.049116522,3.223621,0.26911223,-0.861532
1747679443.0505524,-0.026663255,0.42697814,0.049116522,3.223621,0.26911223,-0.861532
1747679443.0511134,-0.026663255,0.42697814,0.049116522,3.223621,0.26911223,-0.861532
1747679443.0516617,-0.026663255,0.42697814,0.049116522,3.223621,0.26911223,-0.861532
1747679443.0522008,-0.026663255,0.42697814,0.049116522,3.223621,0.26911223,-0.861532
1747679443.0527651,-0.026663255,0.42697814,0.049116522,3.223621,0.26911223,-0.861532
1747679443.0533082,-0.11550009,0.44650272,0.08767757,3.0723536,0.23395853,-0.805073
1747679443.053848,-0.11550009,0.44650272,0.08767757,3.0723536,0.23395853,-0.805073
1747679443.054401,-0.11550009,0.44650272,0.08767757,3.0723536,0.23395853,-0.805073
1747679443.0549552,-0.11550009,0.44650272,0.08767757,3.0723536,0.23395853,-0.805073
1747679443.0554998,-0.11550009,0.44650272,0.08767757,3.0723536,0.23395853,-0.805073
1747679443.0560389,-0.11550009,0.44650272,0.08767757,3.0723536,0.23395853,-0.805073
1747679443.056577,-0.11550009,0.44650272,0.08767757,3.0723536,0.23395853,-0.805073
1747679443.0571158,-0.11550009,0.44650272,0.08767757,3.0723536,0.23395853,-0.805073
1747679443.0576553,-0.11550009,0.44650272,0.08767757,3.0723536,0.23395853,-0.805073
1747679443.0581934,-0.11550009,0.44650272,0.08767757,3.0723536,0.23395853,-0.805073
1747679443.0587318,-0.11550009,0.44650272,0.08767757,3.0723536,0.23395853,-0.805073
1747679443.0592701,-0.11550009,0.44650272,0.08767757,3.0723536,0.23395853,-0.805073
1747679443.059808,-0.11550009,0.44650272,0.08767757,3.0723536,0.23395853,-0.805073
1747679443.0603461,-0.11550009,0.44650272,0.08767757,3.0723536,0.23395853,-0.805073
1747679443.0608845,-0.11550009,0.44650272,0.08767757,3.0723536,0.23395853,-0.805073
1747679443.0614228,-0.11550009,0.44650272,0.08767757,3.0723536,0.23395853,-0.805073
1747679443.061962,-0.11550009,0.44650272,0.08767757,3.0723536,0.23395853,-0.805073
1747679443.062523,-0.11550009,0.44650272,0.08767757,3.0723536,0.23395853,-0.805073
1747679443.063076,-0.11550009,0.44650272,0.08767757,3.0723536,0.23395853,-0.805073
1747679443.0636418,-0.11550009,0.44650272,0.08767757,3.0723536,0.23395853,-0.805073
1747679443.0641983,-0.11550009,0.44650272,0.08767757,3.0723536,0.23395853,-0.805073
1747679443.0647523,-0.11550009,0.44650272,0.08767757,3.0723536,0.23395853,-0.805073
1747679443.065301,-0.11550009,0.44650272,0.08767757,2.9956546,0.30107012,-0.73370034
1747679443.0658357,-0.11550009,0.44650272,0.08767757,2.9956546,0.30107012,-0.73370034
1747679443.0663676,-0.11550009,0.44650272,0.08767757,2.9956546,0.30107012,-0.73370034
1747679443.0668995,-0.11550009,0.44650272,0.08767757,2.9956546,0.30107012,-0.73370034
1747679443.0674314,-0.11550009,0.44650272,0.08767757,2.9956546,0.30107012,-0.73370034
1747679443.0679626,-0.11550009,0.44650272,0.08767757,2.9956546,0.30107012,-0.73370034
1747679443.0684938,-0.11550009,0.44650272,0.08767757,2.9956546,0.30107012,-0.73370034
1747679443.0690255,-0.11550009,0.44650272,0.08767757,2.9956546,0.30107012,-0.73370034
1747679443.069557,-0.11550009,0.44650272,0.08767757,2.9956546,0.30107012,-0.73370034
1747679443.0700886,-0.11550009,0.44650272,0.08767757,2.9956546,0.30107012,-0.73370034
1747679443.070624,-0.11550009,0.44650272,0.08767757,2.9956546,0.30107012,-0.73370034
1747679443.0711575,-0.11550009,0.44650272,0.08767757,2.9956546,0.30107012,-0.73370034
1747679443.0716894,-0.11550009,0.44650272,0.08767757,2.9956546,0.30107012,-0.73370034
1747679443.0722213,-0.11550009,0.44650272,0.08767757,2.9956546,0.30107012,-0.73370034
1747679443.0727558,-0.11550009,0.44650272,0.08767757,2.9956546,0.30107012,-0.73370034
1747679443.073289,-0.11550009,0.44650272,0.08767757,2.9956546,0.30107012,-0.73370034
1747679443.0738227,-0.11550009,0.44650272,0.08767757,2.9956546,0.30107012,-0.73370034
1747679443.074365,-0.11550009,0.44650272,0.08767757,2.9956546,0.30107012,-0.73370034
1747679443.074899,-0.11550009,0.44650272,0.08767757,2.9956546,0.30107012,-0.73370034
1747679443.075433,-0.1189169,0.46016994,0.06473618,2.9956546,0.30107012,-0.73370034
1747679443.0759716,-0.1189169,0.46016994,0.06473618,2.8337345,0.57697344,-0.574976
1747679443.0765069,-0.1189169,0.46016994,0.06473618,2.8337345,0.57697344,-0.574976
1747679443.0770388,-0.1189169,0.46016994,0.06473618,2.8337345,0.57697344,-0.574976
1747679443.0775712,-0.1189169,0.46016994,0.06473618,2.8337345,0.57697344,-0.574976
1747679443.07812,-0.1189169,0.46016994,0.06473618,2.8337345,0.57697344,-0.574976
1747679443.0787144,-0.1189169,0.46016994,0.06473618,2.8337345,0.57697344,-0.574976
1747679443.0792828,-0.1189169,0.46016994,0.06473618,2.8337345,0.57697344,-0.574976
1747679443.0798488,-0.1189169,0.46016994,0.06473618,2.8337345,0.57697344,-0.574976
1747679443.080418,-0.1189169,0.46016994,0.06473618,2.8337345,0.57697344,-0.574976
1747679443.0809767,-0.1189169,0.46016994,0.06473618,2.8337345,0.57697344,-0.574976
1747679443.081519,-0.1189169,0.46016994,0.06473618,2.8337345,0.57697344,-0.574976
1747679443.0820475,-0.1189169,0.46016994,0.06473618,2.8337345,0.57697344,-0.574976
1747679443.0825744,-0.1189169,0.46016994,0.06473618,2.8337345,0.57697344,-0.574976
1747679443.083102,-0.1189169,0.46016994,0.06473618,2.8337345,0.57697344,-0.574976
1747679443.0837164,-0.1189169,0.46016994,0.06473618,2.8337345,0.57697344,-0.574976
1747679443.0842614,-0.1189169,0.46016994,0.06473618,2.8337345,0.57697344,-0.574976
1747679443.084817,-0.1189169,0.46016994,0.06473618,2.8337345,0.57697344,-0.574976
1747679443.0853493,-0.1189169,0.46016994,0.06473618,2.8337345,0.57697344,-0.574976
1747679443.0858772,-0.1189169,0.46016994,0.06473618,2.8337345,0.57697344,-0.574976
1747679443.0864043,-0.1189169,0.46016994,0.06473618,2.8337345,0.57697344,-0.574976
1747679443.086931,-0.1189169,0.46016994,0.06473618,2.8337345,0.57697344,-0.574976
1747679443.0874581,-0.1189169,0.46016994,0.06473618,2.8337345,0.57697344,-0.574976
1747679443.0879855,-0.1189169,0.46016994,0.06473618,2.8337345,0.57697344,-0.574976
1747679443.0885122,-0.1189169,0.46016994,0.06473618,2.8337345,0.57697344,-0.574976
1747679443.0890443,-0.1189169,0.46016994,0.06473618,2.8337345,0.57697344,-0.574976
1747679443.0895736,-0.1189169,0.46016994,0.06473618,2.8337345,0.57697344,-0.574976
1747679443.090101,-0.1189169,0.46016994,0.06473618,2.8337345,0.57697344,-0.574976
1747679443.0906281,-0.1189169,0.46016994,0.06473618,2.8337345,0.57697344,-0.574976
1747679443.0911553,-0.1189169,0.46016994,0.06473618,2.8337345,0.57697344,-0.574976
1747679443.0916822,-0.1189169,0.46016994,0.06473618,2.8337345,0.57697344,-0.574976
1747679443.0922089,-0.1189169,0.46016994,0.06473618,2.8337345,0.57697344,-0.574976
1747679443.0927362,-0.1189169,0.46016994,0.06473618,2.8337345,0.57697344,-0.574976
1747679443.0932882,-0.1189169,0.46016994,0.06473618,2.8337345,0.57697344,-0.574976
1747679443.0938551,-0.1189169,0.46016994,0.06473618,2.8337345,0.57697344,-0.574976
1747679443.0944011,-0.1189169,0.46016994,0.06473618,2.8337345,0.57697344,-0.574976
1747679443.0949438,-0.1189169,0.46016994,0.06473618,2.8337345,0.57697344,-0.574976
1747679443.0954988,-0.1189169,0.46016994,0.06473618,2.8337345,0.57697344,-0.574976
1747679443.096048,0.03435106,0.49043304,0.10134477,2.8337345,0.57697344,-0.574976
1747679443.0965865,0.03435106,0.49043304,0.10134477,2.8337345,0.57697344,-0.574976
1747679443.0971184,0.03435106,0.49043304,0.10134477,2.8337345,0.57697344,-0.574976
1747679443.0976505,0.03435106,0.49043304,0.10134477,2.8337345,0.57697344,-0.574976
1747679443.0981824,0.03435106,0.49043304,0.10134477,2.8337345,0.57697344,-0.574976
1747679443.098715,0.03435106,0.49043304,0.10134477,2.8337345,0.57697344,-0.574976
1747679443.0992582,0.03435106,0.49043304,0.10134477,2.8337345,0.57697344,-0.574976
1747679443.0998125,0.03435106,0.49043304,0.10134477,2.8337345,0.57697344,-0.574976
1747679443.1003537,0.03435106,0.49043304,0.10134477,2.8337345,0.57697344,-0.574976
1747679443.1008945,0.03435106,0.49043304,0.10134477,2.8337345,0.57697344,-0.574976
1747679443.1014352,0.03435106,0.49043304,0.10134477,2.8337345,0.57697344,-0.574976
1747679443.1019769,0.03435106,0.49043304,0.10134477,2.8337345,0.57697344,-0.574976
1747679443.1025183,0.03435106,0.49043304,0.10134477,2.8337345,0.57697344,-0.574976
1747679443.1030593,0.03435106,0.49043304,0.10134477,2.8337345,0.57697344,-0.574976
1747679443.1035998,0.05533998,0.50410026,0.074498475,2.8337345,0.57697344,-0.574976
1747679443.104151,0.05533998,0.50410026,0.074498475,2.8337345,0.57697344,-0.574976
1747679443.1046968,0.05533998,0.50410026,0.074498475,2.8337345,0.57697344,-0.574976
1747679443.1052344,0.05533998,0.50410026,0.074498475,2.8337345,0.57697344,-0.574976
1747679443.105779,0.05533998,0.50410026,0.074498475,2.8337345,0.57697344,-0.574976
1747679443.106324,0.05533998,0.50410026,0.074498475,2.8337345,0.57697344,-0.574976
1747679443.1068645,0.05533998,0.50410026,0.074498475,2.8337345,0.57697344,-0.574976
1747679443.1074045,0.05533998,0.50410026,0.074498475,2.8337345,0.57697344,-0.574976
1747679443.1079419,0.05533998,0.50410026,0.074498475,2.8337345,0.57697344,-0.574976
1747679443.1085713,0.05533998,0.50410026,0.074498475,2.8337345,0.57697344,-0.574976
1747679443.1091363,0.05533998,0.50410026,0.074498475,2.8337345,0.57697344,-0.574976
1747679443.1096864,0.05533998,0.50410026,0.074498475,2.8337345,0.57697344,-0.574976
1747679443.110232,0.05533998,0.50410026,0.074498475,2.8337345,0.57697344,-0.574976
1747679443.1110914,0.05533998,0.50410026,0.074498475,2.8337345,0.57697344,-0.574976
1747679443.1116507,0.05533998,0.50410026,0.074498475,2.8337345,0.57697344,-0.574976
1747679443.1122046,-0.005674331,0.5026359,0.0315444,2.8337345,0.57697344,-0.574976
1747679443.1127508,-0.005674331,0.5026359,0.0315444,2.6803365,0.6046703,-0.7102645
1747679443.113308,-0.005674331,0.5026359,0.0315444,2.6803365,0.6046703,-0.7102645
1747679443.113857,-0.005674331,0.5026359,0.0315444,2.6803365,0.6046703,-0.7102645
1747679443.1144054,-0.005674331,0.5026359,0.0315444,2.6803365,0.6046703,-0.7102645
1747679443.1149552,-0.005674331,0.5026359,0.0315444,2.6803365,0.6046703,-0.7102645
1747679443.1155014,-0.005674331,0.5026359,0.0315444,2.6803365,0.6046703,-0.7102645
1747679443.1160448,-0.005674331,0.5026359,0.0315444,2.6803365,0.6046703,-0.7102645
1747679443.116585,-0.005674331,0.5026359,0.0315444,2.6803365,0.6046703,-0.7102645
1747679443.1171548,-0.005674331,0.5026359,0.0315444,2.6803365,0.6046703,-0.7102645
1747679443.1177256,-0.005674331,0.5026359,0.0315444,2.6803365,0.6046703,-0.7102645
1747679443.1182775,-0.005674331,0.5026359,0.0315444,2.6803365,0.6046703,-0.7102645
1747679443.1188183,-0.005674331,0.5026359,0.0315444,2.6803365,0.6046703,-0.7102645
1747679443.1193583,-0.005674331,0.5026359,0.0315444,2.6803365,0.6046703,-0.7102645
1747679443.119903,-0.005674331,0.5026359,0.0315444,2.6760755,0.44381547,-0.73370034
1747679443.1204457,-0.005674331,0.5026359,0.0315444,2.6760755,0.44381547,-0.73370034
1747679443.1210003,-0.08230831,0.51337445,-0.04313712,2.6760755,0.44381547,-0.73370034
1747679443.1215599,-0.08230831,0.51337445,-0.04313712,2.6760755,0.44381547,-0.73370034
1747679443.1221085,-0.08230831,0.51337445,-0.04313712,2.6760755,0.44381547,-0.73370034
1747679443.1226494,-0.08230831,0.51337445,-0.04313712,2.6760755,0.44381547,-0.73370034
1747679443.1231897,-0.08230831,0.51337445,-0.04313712,2.6760755,0.44381547,-0.73370034
1747679443.1237473,-0.08230831,0.51337445,-0.04313712,2.6760755,0.44381547,-0.73370034
1747679443.1243067,-0.08230831,0.51337445,-0.04313712,2.6760755,0.44381547,-0.73370034
1747679443.1248674,-0.08230831,0.51337445,-0.04313712,2.6760755,0.44381547,-0.73370034
1747679443.1254332,-0.08230831,0.51337445,-0.04313712,2.6760755,0.44381547,-0.73370034
1747679443.1259913,-0.08230831,0.51337445,-0.04313712,2.6760755,0.44381547,-0.73370034
1747679443.126552,-0.08230831,0.51337445,-0.04313712,2.6760755,0.44381547,-0.73370034
1747679443.127111,-0.08230831,0.51337445,-0.04313712,2.6760755,0.44381547,-0.73370034
1747679443.1276639,-0.08230831,0.51337445,-0.04313712,2.6760755,0.44381547,-0.73370034
1747679443.128206,-0.08230831,0.51337445,-0.04313712,2.6760755,0.44381547,-0.73370034
1747679443.1287389,-0.08230831,0.51337445,-0.04313712,2.6760755,0.44381547,-0.73370034
1747679443.1292706,-0.08230831,0.51337445,-0.04313712,2.6760755,0.44381547,-0.73370034
1747679443.1298032,-0.08230831,0.51337445,-0.04313712,2.6760755,0.44381547,-0.73370034
1747679443.130334,-0.08230831,0.51337445,-0.04313712,2.6760755,0.44381547,-0.73370034
1747679443.1308692,-0.15259679,0.53045845,-0.12562847,2.6760755,0.44381547,-0.73370034
1747679443.1314082,-0.15259679,0.53045845,-0.12562847,2.6760755,0.44381547,-0.73370034
1747679443.1319497,-0.15259679,0.53045845,-0.12562847,2.6760755,0.44381547,-0.73370034
1747679443.1324894,-0.15259679,0.53045845,-0.12562847,2.6292038,0.35326806,-0.7134603
1747679443.1330242,-0.15259679,0.53045845,-0.12562847,2.6292038,0.35326806,-0.7134603
1747679443.1335785,-0.15259679,0.53045845,-0.12562847,2.6292038,0.35326806,-0.7134603
1747679443.1341436,-0.15259679,0.53045845,-0.12562847,2.6292038,0.35326806,-0.7134603
1747679443.134698,-0.15259679,0.53045845,-0.12562847,2.6292038,0.35326806,-0.7134603
1747679443.1352372,-0.15259679,0.53045845,-0.12562847,2.6292038,0.35326806,-0.7134603
1747679443.1357696,-0.15259679,0.53045845,-0.12562847,2.6292038,0.35326806,-0.7134603
1747679443.1363006,-0.15259679,0.53045845,-0.12562847,2.6292038,0.35326806,-0.7134603
1747679443.1368325,-0.15259679,0.53045845,-0.12562847,2.6292038,0.35326806,-0.7134603
1747679443.1373641,-0.15259679,0.53045845,-0.12562847,2.6292038,0.35326806,-0.7134603
1747679443.1378956,-0.15259679,0.53045845,-0.12562847,2.6292038,0.35326806,-0.7134603
1747679443.138427,-0.15259679,0.53045845,-0.12562847,2.6292038,0.35326806,-0.7134603
1747679443.1389806,-0.15259679,0.53045845,-0.12562847,2.6292038,0.35326806,-0.7134603
1747679443.1395564,-0.19896767,0.55388796,-0.21837021,2.6292038,0.35326806,-0.7134603
1747679443.1401138,-0.19896767,0.55388796,-0.21837021,2.6292038,0.35326806,-0.7134603
1747679443.1406577,-0.19896767,0.55388796,-0.21837021,2.6292038,0.35326806,-0.7134603
1747679443.1412067,-0.19896767,0.55388796,-0.21837021,2.5258732,0.34155014,-0.64741397
1747679443.141767,-0.19896767,0.55388796,-0.21837021,2.5258732,0.34155014,-0.64741397
1747679443.1423175,-0.19896767,0.55388796,-0.21837021,2.5258732,0.34155014,-0.64741397
1747679443.1428702,-0.19896767,0.55388796,-0.21837021,2.5258732,0.34155014,-0.64741397
1747679443.143411,-0.19896767,0.55388796,-0.21837021,2.5258732,0.34155014,-0.64741397
1747679443.143943,-0.19896767,0.55388796,-0.21837021,2.5258732,0.34155014,-0.64741397
1747679443.144476,-0.19896767,0.55388796,-0.21837021,2.5258732,0.34155014,-0.64741397
1747679443.1450071,-0.19896767,0.55388796,-0.21837021,2.5258732,0.34155014,-0.64741397
1747679443.1455388,-0.19896767,0.55388796,-0.21837021,2.5258732,0.34155014,-0.64741397
1747679443.1460705,-0.19896767,0.55388796,-0.21837021,2.5258732,0.34155014,-0.64741397
1747679443.1466186,-0.19896767,0.55388796,-0.21837021,2.5258732,0.34155014,-0.64741397
1747679443.1471684,-0.19896767,0.55388796,-0.21837021,2.5258732,0.34155014,-0.64741397
1747679443.147702,-0.19896767,0.55388796,-0.21837021,2.5258732,0.34155014,-0.64741397
1747679443.1482337,-0.19896767,0.55388796,-0.21837021,2.5258732,0.34155014,-0.64741397
1747679443.1487646,-0.19896767,0.55388796,-0.21837021,2.5258732,0.34155014,-0.64741397
1747679443.149296,-0.19896767,0.55388796,-0.21837021,2.5258732,0.34155014,-0.64741397
1747679443.1498272,-0.19896767,0.55388796,-0.21837021,2.5258732,0.34155014,-0.64741397
1747679443.1503584,-0.19896767,0.55388796,-0.21837021,2.5258732,0.34155014,-0.64741397
1747679443.1508954,-0.19896767,0.55388796,-0.21837021,2.5258732,0.34155014,-0.64741397
1747679443.1514294,-0.19896767,0.55388796,-0.21837021,2.5258732,0.34155014,-0.64741397
1747679443.1519644,-0.19896767,0.55388796,-0.21837021,2.5258732,0.34155014,-0.64741397
1747679443.1525056,-0.19896767,0.55388796,-0.21837021,2.3586268,0.40653124,-0.5611276
1747679443.1530433,-0.20872997,0.5939133,-0.3018378,2.3586268,0.40653124,-0.5611276
1747679443.1535797,-0.20872997,0.5939133,-0.3018378,2.3586268,0.40653124,-0.5611276
1747679443.154152,-0.20872997,0.5939133,-0.3018378,2.3586268,0.40653124,-0.5611276
1747679443.1547072,-0.20872997,0.5939133,-0.3018378,2.3586268,0.40653124,-0.5611276
1747679443.1552446,-0.20872997,0.5939133,-0.3018378,2.3586268,0.40653124,-0.5611276
1747679443.1557736,-0.20872997,0.5939133,-0.3018378,2.3586268,0.40653124,-0.5611276
1747679443.156305,-0.20872997,0.5939133,-0.3018378,2.3586268,0.40653124,-0.5611276
1747679443.156841,-0.20872997,0.5939133,-0.3018378,2.3586268,0.40653124,-0.5611276
1747679443.157399,-0.20872997,0.5939133,-0.3018378,2.3586268,0.40653124,-0.5611276
1747679443.1579554,-0.20872997,0.5939133,-0.3018378,2.3586268,0.40653124,-0.5611276
1747679443.1584938,-0.20872997,0.5939133,-0.3018378,2.3586268,0.40653124,-0.5611276
1747679443.1590188,-0.20872997,0.5939133,-0.3018378,2.3586268,0.40653124,-0.5611276
1747679443.159542,-0.20872997,0.5939133,-0.3018378,2.3586268,0.40653124,-0.5611276
1747679443.1600652,-0.20872997,0.5939133,-0.3018378,2.3586268,0.40653124,-0.5611276
1747679443.1605883,-0.20872997,0.5939133,-0.3018378,2.3586268,0.40653124,-0.5611276
1747679443.161131,-0.20872997,0.5939133,-0.3018378,2.3586268,0.40653124,-0.5611276
1747679443.1616712,-0.20872997,0.5939133,-0.3018378,2.3586268,0.40653124,-0.5611276
1747679443.1622033,-0.20872997,0.5939133,-0.3018378,2.3586268,0.40653124,-0.5611276
1747679443.1627846,-0.19311029,0.63637924,-0.36041155,2.3586268,0.40653124,-0.5611276
1747679443.1633317,-0.19311029,0.63637924,-0.36041155,2.125334,0.49920917,-0.4833634
1747679443.1638834,-0.19311029,0.63637924,-0.36041155,2.125334,0.49920917,-0.4833634
1747679443.1644387,-0.19311029,0.63637924,-0.36041155,2.125334,0.49920917,-0.4833634
1747679443.1649766,-0.19311029,0.63637924,-0.36041155,2.125334,0.49920917,-0.4833634
1747679443.1655095,-0.19311029,0.63637924,-0.36041155,2.125334,0.49920917,-0.4833634
1747679443.1660416,-0.19311029,0.63637924,-0.36041155,2.125334,0.49920917,-0.4833634
1747679443.1665738,-0.19311029,0.63637924,-0.36041155,2.125334,0.49920917,-0.4833634
1747679443.1671062,-0.19311029,0.63637924,-0.36041155,2.125334,0.49920917,-0.4833634
1747679443.1676378,-0.19311029,0.63637924,-0.36041155,2.125334,0.49920917,-0.4833634
1747679443.16817,-0.19311029,0.63637924,-0.36041155,2.125334,0.49920917,-0.4833634
1747679443.168702,-0.19311029,0.63637924,-0.36041155,2.125334,0.49920917,-0.4833634
1747679443.169255,-0.19311029,0.63637924,-0.36041155,2.125334,0.49920917,-0.4833634
1747679443.1698048,-0.19311029,0.63637924,-0.36041155,2.125334,0.49920917,-0.4833634
1747679443.1703424,-0.19311029,0.63637924,-0.36041155,2.125334,0.49920917,-0.4833634
1747679443.1709094,-0.19311029,0.63637924,-0.36041155,2.125334,0.49920917,-0.4833634
1747679443.1714602,-0.19311029,0.63637924,-0.36041155,2.125334,0.49920917,-0.4833634
1747679443.1720145,-0.19311029,0.63637924,-0.36041155,2.125334,0.49920917,-0.4833634
1747679443.1725605,-0.14478697,0.66810673,-0.37212628,1.8952372,0.66645557,-0.44075283
1747679443.1731148,-0.14478697,0.66810673,-0.37212628,1.8952372,0.66645557,-0.44075283
1747679443.1736658,-0.14478697,0.66810673,-0.37212628,1.8952372,0.66645557,-0.44075283
1747679443.1742067,-0.14478697,0.66810673,-0.37212628,1.8952372,0.66645557,-0.44075283
1747679443.1747425,-0.14478697,0.66810673,-0.37212628,1.8952372,0.66645557,-0.44075283
1747679443.1752818,-0.14478697,0.66810673,-0.37212628,1.8952372,0.66645557,-0.44075283
1747679443.175814,-0.14478697,0.66810673,-0.37212628,1.8952372,0.66645557,-0.44075283
1747679443.1763456,-0.14478697,0.66810673,-0.37212628,1.8952372,0.66645557,-0.44075283
1747679443.1768787,-0.14478697,0.66810673,-0.37212628,1.8952372,0.66645557,-0.44075283
1747679443.1774108,-0.14478697,0.66810673,-0.37212628,1.8952372,0.66645557,-0.44075283
1747679443.1779428,-0.14478697,0.66810673,-0.37212628,1.8952372,0.66645557,-0.44075283
1747679443.1784742,-0.14478697,0.66810673,-0.37212628,1.8952372,0.66645557,-0.44075283
1747679443.1790059,-0.14478697,0.66810673,-0.37212628,1.8952372,0.66645557,-0.44075283
1747679443.1795416,-0.14478697,0.66810673,-0.37212628,1.8952372,0.66645557,-0.44075283
1747679443.1800764,-0.14478697,0.66810673,-0.37212628,1.8952372,0.66645557,-0.44075283
1747679443.180618,-0.102321,0.6876313,-0.3823767,1.8952372,0.66645557,-0.44075283
1747679443.181158,-0.102321,0.6876313,-0.3823767,1.7269255,0.76445985,-0.43755704
1747679443.181696,-0.102321,0.6876313,-0.3823767,1.7269255,0.76445985,-0.43755704
1747679443.1822355,-0.102321,0.6876313,-0.3823767,1.7269255,0.76445985,-0.43755704
1747679443.1827734,-0.102321,0.6876313,-0.3823767,1.7269255,0.76445985,-0.43755704
1747679443.1833115,-0.102321,0.6876313,-0.3823767,1.7269255,0.76445985,-0.43755704
