timestamp,acc_x,acc_y,acc_z,gyro_x,gyro_y,gyro_z
1747672409.099889,0.25351447,0.9160689,0.41080934,-0.20453063,-0.022903169,-0.24780695
1747672409.1123123,0.109520696,0.90825903,0.43033394,-0.21305273,0.033555806,-0.24141537
1747672409.1237793,0.012385906,0.9004492,0.4791454,-0.19707377,0.06764424,-0.101865835
1747672409.2510002,0.39799634,0.8911751,0.6709744,0.030892646,-0.1038632,-0.0326237
1747672409.2533872,0.39799634,0.8911751,0.6709744,0.030892646,-0.1038632,-0.0326237
1747672409.2542126,0.39799634,0.8911751,0.6709744,0.030892646,-0.1038632,-0.0326237
1747672409.2549627,0.39799634,0.8911751,0.6709744,0.030892646,-0.1038632,-0.0326237
1747672409.2557538,0.39799634,0.8911751,0.6709744,0.030892646,-0.1038632,-0.0326237
1747672409.256488,0.39799634,0.8911751,0.6709744,0.030892646,-0.1038632,-0.0326237
1747672409.2572494,0.39799634,0.8911751,0.6709744,0.030892646,-0.1038632,-0.0326237
1747672409.2579904,0.4307,0.87848413,0.7095354,0.030892646,-0.1038632,-0.0326237
1747672409.2587285,0.4307,0.87848413,0.7095354,0.035153702,-0.010120004,-0.111453205
1747672409.259461,0.4307,0.87848413,0.7095354,0.035153702,-0.010120004,-0.111453205
1747672409.260192,0.4307,0.87848413,0.7095354,0.035153702,-0.010120004,-0.111453205
1747672409.2609317,0.4307,0.87848413,0.7095354,0.035153702,-0.010120004,-0.111453205
1747672409.2616913,0.4307,0.87848413,0.7095354,0.035153702,-0.010120004,-0.111453205
1747672409.2626004,0.4307,0.87848413,0.7095354,0.035153702,-0.010120004,-0.111453205
1747672409.2633588,0.4307,0.87848413,0.7095354,0.035153702,-0.010120004,-0.111453205
1747672409.2640955,0.4307,0.87848413,0.7095354,0.035153702,-0.010120004,-0.111453205
1747672409.2648346,0.4307,0.87848413,0.7095354,0.035153702,-0.010120004,-0.111453205
1747672409.2655733,0.4307,0.87848413,0.7095354,0.035153702,-0.010120004,-0.111453205
1747672409.266328,0.4307,0.87848413,0.7095354,0.035153702,-0.010120004,-0.111453205
1747672409.2673843,0.4307,0.87848413,0.7095354,0.035153702,-0.010120004,-0.111453205
1747672409.2686281,0.41410413,0.8618881,0.7451678,0.022370536,0.1038632,-0.15939008
1747672409.3028204,0.41019922,0.80429065,0.92088896,0.11611374,0.3563307,-0.17217323
1747672409.3051708,0.41019922,0.80429065,0.92088896,0.11611374,0.3563307,-0.17217323
1747672409.3067195,0.41556847,0.78818285,0.9286988,0.15659375,0.40746334,-0.16684692
1747672409.307488,0.41556847,0.78818285,0.9286988,0.15659375,0.40746334,-0.16684692
1747672409.308406,0.41556847,0.78818285,0.9286988,0.15659375,0.40746334,-0.16684692
1747672409.3099387,0.41556847,0.78818285,0.9286988,0.15659375,0.40746334,-0.16684692
1747672409.310722,0.41556847,0.78818285,0.9286988,0.15659375,0.40746334,-0.16684692
1747672409.3117132,0.41556847,0.78818285,0.9286988,0.15659375,0.40746334,-0.16684692
1747672409.3124514,0.41556847,0.78818285,0.9286988,0.15659375,0.40746334,-0.16684692
1747672409.3131697,0.41556847,0.78818285,0.9286988,0.15659375,0.40746334,-0.16684692
1747672409.313895,0.41556847,0.78818285,0.9286988,0.15659375,0.40746334,-0.16684692
1747672409.3623788,0.17590426,0.7745157,0.9482235,0.9661941,0.12836426,0.28589013
1747672409.400426,0.49171436,0.73693085,0.387868,0.87458146,0.25513065,0.40519965
1747672409.405056,0.50147665,0.7310735,0.34344956,0.6295708,0.37230965,0.28908592
1747672409.4060462,0.50147665,0.7310735,0.34344956,0.6295708,0.37230965,0.28908592
1747672409.4067914,0.50147665,0.7310735,0.34344956,0.6295708,0.37230965,0.28908592
1747672409.4444249,0.2720628,0.74669313,0.8383977,0.05006739,0.7057372,0.1079911
1747672409.4454002,0.22959687,0.72570425,0.97848654,0.22477064,0.8367646,0.19747324
1747672409.4464173,0.22959687,0.72570425,0.97848654,0.22477064,0.8367646,0.19747324
1747672409.4472296,0.22959687,0.72570425,0.97848654,0.22477064,0.8367646,0.19747324
1747672409.4481866,0.22959687,0.72570425,0.97848654,0.22477064,0.8367646,0.19747324
1747672409.449068,0.22959687,0.72570425,0.97848654,0.22477064,0.8367646,0.19747324
1747672409.449804,0.22959687,0.72570425,0.97848654,0.22477064,0.8367646,0.19747324
1747672409.4505272,0.22959687,0.72570425,0.97848654,0.22477064,0.8367646,0.19747324
1747672409.4513075,0.22959687,0.72570425,0.97848654,0.22477064,0.8367646,0.19747324
1747672409.4520307,0.22959687,0.72570425,0.97848654,0.22477064,0.8367646,0.19747324
1747672409.4527442,0.22959687,0.72570425,0.97848654,0.22477064,0.8367646,0.19747324
1747672409.453525,0.22959687,0.72570425,0.97848654,0.22477064,0.8367646,0.19747324
1747672409.4542654,0.22959687,0.72570425,0.97848654,0.22477064,0.8367646,0.19747324
1747672409.455095,0.22618006,0.71008456,1.006309,0.45486757,0.850613,0.2837596
1747672409.4558568,0.22618006,0.71008456,1.006309,0.45486757,0.850613,0.2837596
1747672409.456643,0.22618006,0.71008456,1.006309,0.45486757,0.850613,0.2837596
1747672409.4802637,0.2749915,0.7330259,0.82765913,0.79255617,0.6950845,0.374307
1747672409.4827085,0.2749915,0.7330259,0.82765913,1.1163963,0.38083175,0.43502703
1747672409.4837434,0.2749915,0.7330259,0.82765913,1.1163963,0.38083175,0.43502703
1747672409.4845073,0.2749915,0.7330259,0.82765913,1.1163963,0.38083175,0.43502703
1747672409.4852917,0.2749915,0.7330259,0.82765913,1.1163963,0.38083175,0.43502703
1747672409.4861326,0.2749915,0.7330259,0.82765913,1.1163963,0.38083175,0.43502703
1747672409.487231,0.2749915,0.7330259,0.82765913,1.1163963,0.38083175,0.43502703
1747672409.4880378,0.2749915,0.7330259,0.82765913,1.1163963,0.38083175,0.43502703
1747672409.5130827,0.49366683,0.8326013,0.27169672,1.0418278,-0.27430537,0.27630275
1747672409.5149097,0.49366683,0.8326013,0.27169672,1.0418278,-0.27430537,0.27630275
1747672409.516086,0.5844561,0.8897107,0.22190905,1.0418278,-0.27430537,0.27630275
1747672409.516922,0.5844561,0.8897107,0.22190905,1.0418278,-0.27430537,0.27630275
1747672409.51792,0.5844561,0.8897107,0.22190905,0.6679203,0.011185268,0.10905637
1747672409.542323,0.5405258,0.8931275,0.23996928,0.022370536,0.85806984,-0.24035011
1747672409.544181,0.5405258,0.8931275,0.23996928,0.022370536,0.85806984,-0.24035011
1747672409.5450435,0.5405258,0.8931275,0.23996928,0.022370536,0.85806984,-0.24035011
1747672409.5458329,0.3462562,0.87360287,0.37029585,-0.30679592,1.4748576,-0.3958786
1747672409.546575,0.3462562,0.87360287,0.37029585,-0.30679592,1.4748576,-0.3958786
1747672409.547341,0.3462562,0.87360287,0.37029585,-0.30679592,1.4748576,-0.3958786
1747672409.5481274,0.3462562,0.87360287,0.37029585,-0.30679592,1.4748576,-0.3958786
1747672409.5488868,0.3462562,0.87360287,0.37029585,-0.30679592,1.4748576,-0.3958786
1747672409.5496573,0.3462562,0.87360287,0.37029585,-0.30679592,1.4748576,-0.3958786
1747672409.550668,0.3462562,0.87360287,0.37029585,-0.30679592,1.4748576,-0.3958786
1747672409.5516152,0.3462562,0.87360287,0.37029585,-0.30679592,1.4748576,-0.3958786
1747672409.5783556,0.07193588,0.8614,0.6153294,-0.1874864,1.448226,-0.308527
1747672409.5791893,0.07193588,0.8614,0.6153294,-0.1874864,1.448226,-0.308527
1747672409.579942,0.07193588,0.8614,0.6153294,-0.1874864,1.448226,-0.308527
1747672409.58093,0.07193588,0.8614,0.6153294,-0.1874864,1.448226,-0.308527
1747672409.5817215,0.07193588,0.8614,0.6153294,-0.1874864,1.448226,-0.308527
1747672409.605937,0.016290821,0.7681702,0.44546548,0.083090566,0.99868464,-0.39800912
1747672409.6071887,0.016290821,0.7681702,0.44546548,0.27377275,0.61199397,-0.4310323
1747672409.6079783,0.016290821,0.7681702,0.44546548,0.27377275,0.61199397,-0.4310323
1747672409.608754,-0.091582485,0.87262666,0.34393767,0.40266967,0.26684853,-0.3543333
1747672409.6095023,-0.091582485,0.87262666,0.34393767,0.40266967,0.26684853,-0.3543333
1747672409.6102529,-0.091582485,0.87262666,0.34393767,0.40266967,0.26684853,-0.3543333
1747672409.611011,-0.091582485,0.87262666,0.34393767,0.40266967,0.26684853,-0.3543333
1747672409.6118016,-0.091582485,0.87262666,0.34393767,0.40266967,0.26684853,-0.3543333
1747672409.6126444,-0.091582485,0.87262666,0.34393767,0.40266967,0.26684853,-0.3543333
1747672409.61339,-0.091582485,0.87262666,0.34393767,0.40266967,0.26684853,-0.3543333
1747672409.614172,-0.091582485,0.87262666,0.34393767,0.40266967,0.26684853,-0.3543333
1747672409.6149292,-0.091582485,0.87262666,0.34393767,0.40266967,0.26684853,-0.3543333
1747672409.6414802,0.09097234,0.9902623,0.3151389,0.47297704,0.19014956,-0.08588688
1747672409.6422372,0.09097234,0.9902623,0.3151389,0.47297704,0.19014956,-0.08588688
1747672409.6430414,0.09097234,0.9902623,0.3151389,0.47297704,0.19014956,-0.08588688
1747672409.6438298,0.09097234,0.9902623,0.3151389,0.47297704,0.19014956,-0.08588688
1747672409.6446085,0.09097234,0.9902623,0.3151389,0.5006739,0.3382212,-0.18389113
1747672409.6453834,0.09097234,0.9902623,0.3151389,0.5006739,0.3382212,-0.18389113
1747672409.671101,0.13539076,0.9634159,0.16284719,0.5187834,0.63542974,-0.49175233
1747672409.671979,0.13539076,0.9634159,0.16284719,0.5187834,0.63542974,-0.49175233
1747672409.672746,0.13539076,0.9634159,0.16284719,0.5187834,0.63542974,-0.49175233
1747672409.6735692,0.13539076,0.9634159,0.16284719,0.5187834,0.63542974,-0.49175233
1747672409.6743484,0.13539076,0.9634159,0.16284719,0.5187834,0.63542974,-0.49175233
1747672409.7021916,0.009457218,0.9272955,-0.054851867,0.35473278,0.8048067,-0.69308716
1747672409.7031462,-0.08182019,0.9072828,-0.16321328,0.12996216,0.9294425,-0.7516767
1747672409.7039435,-0.08182019,0.9072828,-0.16321328,0.12996216,0.9294425,-0.7516767
1747672409.7047033,-0.08182019,0.9072828,-0.16321328,0.12996216,0.9294425,-0.7516767
1747672409.705479,-0.08182019,0.9072828,-0.16321328,0.12996216,0.9294425,-0.7516767
1747672409.7062294,-0.08182019,0.9072828,-0.16321328,0.12996216,0.9294425,-0.7516767
1747672409.7327201,-0.22923078,0.9712258,-0.11440183,-0.014913691,0.8484825,-0.700544
1747672409.7336154,-0.22923078,0.9712258,-0.11440183,-0.014913691,0.8484825,-0.700544
1747672409.7343662,-0.22923078,0.9712258,-0.11440183,-0.014913691,0.8484825,-0.700544
1747672409.7351565,-0.22923078,0.9712258,-0.11440183,-0.014913691,0.8484825,-0.700544
1747672409.7360158,-0.32050818,1.0927664,0.08963002,0.0234358,0.5438171,-0.4576639
1747672409.7368658,-0.13892959,1.1708646,0.28145903,0.5038697,0.04101265,-0.009187899
1747672409.737589,-0.13892959,1.1708646,0.28145903,0.5038697,0.04101265,-0.009187899
1747672409.7382917,-0.13892959,1.1708646,0.28145903,0.5038697,0.04101265,-0.009187899
1747672409.739133,-0.13892959,1.1708646,0.28145903,0.5038697,0.04101265,-0.009187899
1747672409.7399027,-0.13892959,1.1708646,0.28145903,0.5038697,0.04101265,-0.009187899
1747672409.740622,-0.13892959,1.1708646,0.28145903,0.5038697,0.04101265,-0.009187899
1747672409.7413259,-0.13892959,1.1708646,0.28145903,0.5038697,0.04101265,-0.009187899
1747672409.7421143,-0.13892959,1.1708646,0.28145903,0.5038697,0.04101265,-0.009187899
1747672409.7428458,-0.13892959,1.1708646,0.28145903,0.5038697,0.04101265,-0.009187899
1747672409.7435715,-0.13892959,1.1708646,0.28145903,0.5038697,0.04101265,-0.009187899
1747672409.7443461,-0.13892959,1.1708646,0.28145903,0.5038697,0.04101265,-0.009187899
1747672409.7450893,-0.13892959,1.1708646,0.28145903,0.84581935,-0.14008217,0.06964161
1747672409.745803,-0.13892959,1.1708646,0.28145903,0.84581935,-0.14008217,0.06964161
1747672409.7465124,-0.13892959,1.1708646,0.28145903,0.84581935,-0.14008217,0.06964161
1747672409.7472062,0.05875678,1.198199,0.24143364,0.84581935,-0.14008217,0.06964161
1747672409.747904,0.05875678,1.198199,0.24143364,0.84581935,-0.14008217,0.06964161
1747672409.7486064,0.05875678,1.198199,0.24143364,0.84581935,-0.14008217,0.06964161
1747672409.7493331,0.05875678,1.198199,0.24143364,0.84581935,-0.14008217,0.06964161
1747672409.750107,0.05875678,1.198199,0.24143364,0.84581935,-0.14008217,0.06964161
1747672409.750875,0.05875678,1.198199,0.24143364,0.84581935,-0.14008217,0.06964161
1747672409.7516723,0.05875678,1.198199,0.24143364,0.84581935,-0.14008217,0.06964161
1747672409.7524333,0.05875678,1.198199,0.24143364,0.84581935,-0.14008217,0.06964161
1747672409.7531526,0.05875678,1.198199,0.24143364,0.84581935,-0.14008217,0.06964161
1747672409.75617,0.2247157,1.2201642,0.09109437,1.0897647,-0.2093243,-0.0049268445
1747672409.7849011,0.34332752,1.2182118,-0.13587888,1.1579416,-0.021837905,-0.25100276
1747672409.785774,0.37212628,1.2040565,-0.29353985,1.0524805,0.23808642,-0.47044706
1747672409.7865794,0.37212628,1.2040565,-0.29353985,0.8554067,0.575775,-0.71652293
1747672409.7873347,0.36089966,1.1737933,-0.42386642,0.8554067,0.575775,-0.71652293
1747672409.7883399,0.36089966,1.1737933,-0.42386642,0.8554067,0.575775,-0.71652293
1747672409.7891395,0.36089966,1.1737933,-0.42386642,0.8554067,0.575775,-0.71652293
1747672409.7899501,0.36089966,1.1737933,-0.42386642,0.8554067,0.575775,-0.71652293
1747672409.7907276,0.36089966,1.1737933,-0.42386642,0.8554067,0.575775,-0.71652293
1747672409.791501,0.36089966,1.1737933,-0.42386642,0.8554067,0.575775,-0.71652293
1747672409.7922597,0.36089966,1.1737933,-0.42386642,0.8554067,0.575775,-0.71652293
1747672409.7930286,0.36089966,1.1737933,-0.42386642,0.8554067,0.575775,-0.71652293
1747672409.7938094,0.36089966,1.1737933,-0.42386642,0.8554067,0.575775,-0.71652293
1747672409.7945607,0.36089966,1.1737933,-0.42386642,0.8554067,0.575775,-0.71652293
1747672409.7953484,0.36089966,1.1737933,-0.42386642,0.8554067,0.575775,-0.71652293
1747672409.7961078,0.36089966,1.1737933,-0.42386642,0.8554067,0.575775,-0.71652293
1747672409.7968838,0.36089966,1.1737933,-0.42386642,0.8554067,0.575775,-0.71652293
1747672409.7976425,0.26181242,1.1093622,-0.5395496,0.8554067,0.575775,-0.71652293
1747672409.798468,0.26181242,1.1093622,-0.5395496,0.47830337,1.0498173,-1.0797778
1747672409.7993503,0.26181242,1.1093622,-0.5395496,0.47830337,1.0498173,-1.0797778
1747672409.8001268,0.26181242,1.1093622,-0.5395496,0.47830337,1.0498173,-1.0797778
1747672409.8008978,0.26181242,1.1093622,-0.5395496,0.47830337,1.0498173,-1.0797778
1747672409.801672,0.26181242,1.1093622,-0.5395496,0.47830337,1.0498173,-1.0797778
1747672409.8024325,0.26181242,1.1093622,-0.5395496,0.47830337,1.0498173,-1.0797778
1747672409.8031452,0.26181242,1.1093622,-0.5395496,0.47830337,1.0498173,-1.0797778
1747672409.8038528,0.26181242,1.1093622,-0.5395496,0.47830337,1.0498173,-1.0797778
1747672409.8046136,0.26181242,1.1093622,-0.5395496,0.47830337,1.0498173,-1.0797778
1747672409.8053942,0.26181242,1.1093622,-0.5395496,0.47830337,1.0498173,-1.0797778
1747672409.806132,0.26181242,1.1093622,-0.5395496,0.47830337,1.0498173,-1.0797778
1747672409.8068416,0.26181242,1.1093622,-0.5395496,0.47830337,1.0498173,-1.0797778
1747672409.8075314,0.26181242,1.1093622,-0.5395496,0.47830337,1.0498173,-1.0797778
1747672409.8082879,0.11147315,1.062015,-0.5493119,0.47830337,1.0498173,-1.0797778
1747672409.8090372,0.11147315,1.062015,-0.5493119,0.19174746,1.2522174,-1.322658
1747672409.809754,0.11147315,1.062015,-0.5493119,0.19174746,1.2522174,-1.322658
1747672409.810445,0.11147315,1.062015,-0.5493119,0.19174746,1.2522174,-1.322658
1747672409.811142,0.11147315,1.062015,-0.5493119,0.19174746,1.2522174,-1.322658
1747672409.8118467,0.11147315,1.062015,-0.5493119,0.19174746,1.2522174,-1.322658
1747672409.812529,0.11147315,1.062015,-0.5493119,0.19174746,1.2522174,-1.322658
1747672409.8132124,0.11147315,1.062015,-0.5493119,0.19174746,1.2522174,-1.322658
1747672409.8139913,0.11147315,1.062015,-0.5493119,0.19174746,1.2522174,-1.322658
1747672409.8147566,0.11147315,1.062015,-0.5493119,0.19174746,1.2522174,-1.322658
1747672409.815567,0.11147315,1.062015,-0.5493119,0.19174746,1.2522174,-1.322658
1747672409.816369,0.11147315,1.062015,-0.5493119,0.19174746,1.2522174,-1.322658
1747672409.8171751,0.11147315,1.062015,-0.5493119,0.19174746,1.2522174,-1.322658
1747672409.817966,0.11147315,1.062015,-0.5493119,0.19174746,1.2522174,-1.322658
1747672409.8187451,0.11147315,1.062015,-0.5493119,0.19174746,1.2522174,-1.322658
1747672409.819492,-0.1296554,1.0263828,-0.48829755,-0.040480018,1.1723226,-1.4259886
1747672409.820235,-0.1296554,1.0263828,-0.48829755,-0.040480018,1.1723226,-1.4259886
1747672409.8431516,-0.32880613,0.93998647,-0.22764441,-0.05539371,0.7078677,-1.1468894
1747672409.8452404,-0.32880613,0.93998647,-0.22764441,-0.05539371,0.7078677,-1.1468894
1747672409.8466816,-0.32880613,0.93998647,-0.22764441,-0.05539371,0.7078677,-1.1468894
1747672409.84789,-0.32880613,0.93998647,-0.22764441,-0.05539371,0.7078677,-1.1468894
1747672409.8521826,-0.33710408,0.8711623,-0.04362523,0.17257272,0.36804858,-0.90720516
1747672409.853042,-0.33710408,0.8711623,-0.04362523,0.17257272,0.36804858,-0.90720516
1747672409.8538463,-0.33710408,0.8711623,-0.04362523,0.17257272,0.36804858,-0.90720516
1747672409.8547003,-0.33710408,0.8711623,-0.04362523,0.17257272,0.36804858,-0.90720516
1747672409.8555086,-0.33710408,0.8711623,-0.04362523,0.17257272,0.36804858,-0.90720516
1747672409.8562734,-0.33710408,0.8711623,-0.04362523,0.17257272,0.36804858,-0.90720516
1747672409.857012,-0.3151389,0.82772017,0.102809116,0.17257272,0.36804858,-0.90720516
1747672409.8577597,-0.3151389,0.82772017,0.102809116,0.56032866,-0.05805687,-0.68136925
1747672409.8585055,-0.3151389,0.82772017,0.102809116,0.56032866,-0.05805687,-0.68136925
1747672409.8592288,-0.3151389,0.82772017,0.102809116,0.56032866,-0.05805687,-0.68136925
1747672409.8599524,-0.3151389,0.82772017,0.102809116,0.56032866,-0.05805687,-0.68136925
1747672409.8606837,-0.3151389,0.82772017,0.102809116,0.56032866,-0.05805687,-0.68136925
1747672409.8614764,-0.3151389,0.82772017,0.102809116,0.56032866,-0.05805687,-0.68136925
1747672409.862321,-0.3151389,0.82772017,0.102809116,0.56032866,-0.05805687,-0.68136925
1747672409.8631213,-0.3151389,0.82772017,0.102809116,0.56032866,-0.05805687,-0.68136925
1747672409.8638895,-0.3151389,0.82772017,0.102809116,0.56032866,-0.05805687,-0.68136925
1747672409.8647,-0.29707867,0.8238152,0.119893126,0.56032866,-0.05805687,-0.68136925
1747672409.8654485,-0.29707867,0.8238152,0.119893126,1.1227878,-0.5853624,-0.46512073
1747672409.8662424,-0.29707867,0.8238152,0.119893126,1.1227878,-0.5853624,-0.46512073
1747672409.8669848,-0.29707867,0.8238152,0.119893126,1.1227878,-0.5853624,-0.46512073
1747672409.8676906,-0.29707867,0.8238152,0.119893126,1.1227878,-0.5853624,-0.46512073
1747672409.8683968,-0.29707867,0.8238152,0.119893126,1.1227878,-0.5853624,-0.46512073
1747672409.8691056,-0.29707867,0.8238152,0.119893126,1.1227878,-0.5853624,-0.46512073
1747672409.869823,-0.29707867,0.8238152,0.119893126,1.1227878,-0.5853624,-0.46512073
1747672409.870627,-0.29707867,0.8238152,0.119893126,1.1227878,-0.5853624,-0.46512073
1747672409.8713791,-0.29707867,0.8238152,0.119893126,1.1227878,-0.5853624,-0.46512073
1747672409.8721356,-0.29707867,0.8238152,0.119893126,1.1227878,-0.5853624,-0.46512073
1747672409.8728874,-0.29707867,0.8238152,0.119893126,1.1227878,-0.5853624,-0.46512073
1747672409.8736143,-0.29707867,0.8238152,0.119893126,1.1227878,-0.5853624,-0.46512073
1747672409.8743489,-0.29707867,0.8238152,0.119893126,1.1227878,-0.5853624,-0.46512073
1747672409.8768382,-0.29707867,0.8238152,0.119893126,1.1227878,-0.5853624,-0.46512073
1747672409.8812265,-0.27755412,0.8687217,0.01738908,1.1227878,-0.5853624,-0.46512073
1747672409.8828201,-0.27755412,0.8687217,0.01738908,1.1227878,-0.5853624,-0.46512073
1747672409.8855274,-0.27755412,0.8687217,0.01738908,1.5084133,-0.8751141,-0.34261543
1747672409.8867211,-0.27755412,0.8687217,0.01738908,1.5084133,-0.8751141,-0.34261543
1747672409.888884,-0.27755412,0.8687217,0.01738908,1.5084133,-0.8751141,-0.34261543
1747672409.8924012,-0.27755412,0.8687217,0.01738908,1.5084133,-0.8751141,-0.34261543
1747672409.8934023,-0.24826722,0.96732086,-0.14466494,1.6500934,-0.9507478,-0.30000487
1747672409.8953967,-0.24826722,0.96732086,-0.14466494,1.6500934,-0.9507478,-0.30000487
1747672409.8963974,-0.24826722,0.96732086,-0.14466494,1.6500934,-0.9507478,-0.30000487
1747672409.8972297,-0.24826722,0.96732086,-0.14466494,1.6500934,-0.9507478,-0.30000487
1747672409.8981054,-0.24826722,0.96732086,-0.14466494,1.733184,-0.947552,-0.27976486
1747672409.8989122,-0.20531316,1.1030167,-0.36334023,1.733184,-0.947552,-0.27976486
1747672409.8997009,-0.20531316,1.1030167,-0.36334023,1.733184,-0.947552,-0.27976486
1747672409.9009411,-0.20531316,1.1030167,-0.36334023,1.733184,-0.947552,-0.27976486
1747672409.9018142,-0.20531316,1.1030167,-0.36334023,1.733184,-0.947552,-0.27976486
1747672409.9027212,-0.20531316,1.1030167,-0.36334023,1.733184,-0.947552,-0.27976486
1747672409.9040225,-0.20531316,1.1030167,-0.36334023,1.733184,-0.947552,-0.27976486
1747672409.9048927,-0.20531316,1.1030167,-0.36334023,1.733184,-0.947552,-0.27976486
1747672409.9058158,-0.20531316,1.1030167,-0.36334023,1.733184,-0.947552,-0.27976486
1747672409.9067771,-0.20531316,1.1030167,-0.36334023,1.733184,-0.947552,-0.27976486
1747672409.9075227,-0.20531316,1.1030167,-0.36334023,1.733184,-0.947552,-0.27976486
1747672409.9083512,-0.20531316,1.1030167,-0.36334023,1.733184,-0.947552,-0.27976486
1747672409.909155,-0.20531316,1.1030167,-0.36334023,1.733184,-0.947552,-0.27976486
1747672409.9099724,-0.20531316,1.1030167,-0.36334023,1.733184,-0.947552,-0.27976486
1747672409.9107218,-0.11745255,1.2450581,-0.5908016,1.5733944,-0.886832,-0.3053312
1747672409.911448,-0.11745255,1.2450581,-0.5908016,1.5733944,-0.886832,-0.3053312
1747672409.9121842,-0.11745255,1.2450581,-0.5908016,1.5733944,-0.886832,-0.3053312
1747672409.912901,-0.11745255,1.2450581,-0.5908016,1.5733944,-0.886832,-0.3053312
1747672409.9136128,-0.11745255,1.2450581,-0.5908016,1.5733944,-0.886832,-0.3053312
1747672409.9143686,-0.11745255,1.2450581,-0.5908016,1.5733944,-0.886832,-0.3053312
1747672409.9160352,-0.11745255,1.2450581,-0.5908016,1.5733944,-0.886832,-0.3053312
1747672409.917943,-0.11745255,1.2450581,-0.5908016,1.5733944,-0.886832,-0.3053312
1747672409.9203148,-0.11745255,1.2450581,-0.5908016,1.5733944,-0.886832,-0.3053312
1747672409.921656,0.016778937,1.3275493,-0.70599663,1.3113395,-0.96779203,-0.42464072
1747672409.9248238,0.016778937,1.3275493,-0.70599663,1.3113395,-0.96779203,-0.42464072
1747672409.9324079,0.016778937,1.3275493,-0.70599663,1.3113395,-0.96779203,-0.42464072
1747672409.9336312,0.016778937,1.3275493,-0.70599663,1.3113395,-0.96779203,-0.42464072
1747672409.935243,0.16809443,1.2919171,-0.8197273,0.87138563,-1.1147984,-0.70160925
1747672409.936056,0.16809443,1.2919171,-0.8197273,0.87138563,-1.1147984,-0.70160925
1747672409.9378347,0.24375217,1.2040565,-0.8690269,0.37603807,-1.14143,-0.99349153
1747672409.9388423,0.24375217,1.2040565,-0.8690269,0.37603807,-1.14143,-0.99349153
1747672409.9401274,0.24375217,1.2040565,-0.8690269,0.37603807,-1.14143,-0.99349153
1747672409.9410014,0.24375217,1.2040565,-0.8690269,0.37603807,-1.14143,-0.99349153
1747672409.944874,0.24375217,1.2040565,-0.8690269,0.37603807,-1.14143,-0.99349153
1747672409.9456737,0.24375217,1.2040565,-0.8690269,0.37603807,-1.14143,-0.99349153
1747672409.9465268,0.26913413,1.078123,-0.86170506,-0.22050957,-0.846352,-1.3056138
1747672409.947378,0.26913413,1.078123,-0.86170506,-0.22050957,-0.846352,-1.3056138
1747672409.9481673,0.26913413,1.078123,-0.86170506,-0.22050957,-0.846352,-1.3056138
1747672409.9489875,0.26913413,1.078123,-0.86170506,-0.22050957,-0.846352,-1.3056138
1747672409.9498317,0.26913413,1.078123,-0.86170506,-0.22050957,-0.846352,-1.3056138
1747672409.9505925,0.26913413,1.078123,-0.86170506,-0.22050957,-0.846352,-1.3056138
1747672409.951342,0.26913413,1.078123,-0.86170506,-0.22050957,-0.846352,-1.3056138
1747672409.9532318,0.26913413,1.078123,-0.86170506,-0.22050957,-0.846352,-1.3056138
1747672409.954037,0.26913413,1.078123,-0.86170506,-0.22050957,-0.846352,-1.3056138
1747672409.9661772,0.26913413,1.078123,-0.86170506,-0.22050957,-0.846352,-1.3056138
1747672409.9675004,0.26913413,1.078123,-0.86170506,-0.22050957,-0.846352,-1.3056138
1747672409.9695156,0.23203744,0.89654434,-0.7601773,-0.70946556,-0.40426755,-1.541037
1747672409.973992,0.23203744,0.89654434,-0.7601773,-0.70946556,-0.40426755,-1.541037
1747672409.9762383,0.23203744,0.89654434,-0.7601773,-0.70946556,-0.40426755,-1.541037
1747672409.9775171,0.23203744,0.89654434,-0.7601773,-0.70946556,-0.40426755,-1.541037
1747672409.9786093,-0.21165864,0.69739354,-0.25595504,-1.4721943,1.0487521,-1.6731297
1747672409.9799032,-0.21165864,0.69739354,-0.25595504,-1.4721943,1.0487521,-1.6731297
1747672409.9815779,-0.21165864,0.69739354,-0.25595504,-1.4721943,1.0487521,-1.6731297
1747672409.9824996,-0.21165864,0.69739354,-0.25595504,-1.4721943,1.0487521,-1.6731297
1747672409.9843552,-0.21165864,0.69739354,-0.25595504,-1.4721943,1.0487521,-1.6731297
1747672409.9852796,-0.21165864,0.69739354,-0.25595504,-1.3283838,1.6186681,-1.4121401
1747672409.9861104,-0.48305032,0.707644,0.07498659,-1.3283838,1.6186681,-1.4121401
1747672409.9869013,-0.48305032,0.707644,0.07498659,-1.3283838,1.6186681,-1.4121401
1747672409.9876132,-0.48305032,0.707644,0.07498659,-1.3283838,1.6186681,-1.4121401
1747672409.988302,-0.48305032,0.707644,0.07498659,-1.3283838,1.6186681,-1.4121401
1747672409.98899,-0.48305032,0.707644,0.07498659,-1.3283838,1.6186681,-1.4121401
1747672409.9896767,-0.48305032,0.707644,0.07498659,-1.3283838,1.6186681,-1.4121401
1747672409.9903972,-0.48305032,0.707644,0.07498659,-1.3283838,1.6186681,-1.4121401
1747672409.991124,-0.48305032,0.707644,0.07498659,-1.3283838,1.6186681,-1.4121401
1747672409.9918218,-0.48305032,0.707644,0.07498659,-1.3283838,1.6186681,-1.4121401
1747672409.9925694,-0.48305032,0.707644,0.07498659,-1.3283838,1.6186681,-1.4121401
1747672409.9933033,-0.48305032,0.707644,0.07498659,-1.3283838,1.6186681,-1.4121401
1747672409.9940207,-0.48305032,0.707644,0.07498659,-1.3283838,1.6186681,-1.4121401
1747672409.994739,-0.48305032,0.707644,0.07498659,-1.3283838,1.6186681,-1.4121401
1747672409.9954536,-0.48305032,0.707644,0.07498659,-1.3283838,1.6186681,-1.4121401
1747672409.996194,-0.48305032,0.707644,0.07498659,-1.3283838,1.6186681,-1.4121401
1747672409.996922,-0.6260679,0.7745157,0.27804223,-0.9267794,1.788045,-1.0787126
1747672409.9976544,-0.6260679,0.7745157,0.27804223,-0.9267794,1.788045,-1.0787126
1747672409.9983718,-0.6260679,0.7745157,0.27804223,-0.9267794,1.788045,-1.0787126
1747672409.99909,-0.6260679,0.7745157,0.27804223,-0.9267794,1.788045,-1.0787126
1747672409.9998686,-0.6260679,0.7745157,0.27804223,-0.9267794,1.788045,-1.0787126
1747672410.000591,-0.6260679,0.7745157,0.27804223,-0.9267794,1.788045,-1.0787126
1747672410.0013707,-0.6260679,0.7745157,0.27804223,-0.9267794,1.788045,-1.0787126
1747672410.0021431,-0.6260679,0.7745157,0.27804223,-0.9267794,1.788045,-1.0787126
1747672410.0028906,-0.6260679,0.7745157,0.27804223,-0.9267794,1.788045,-1.0787126
1747672410.0036755,-0.6260679,0.7745157,0.27804223,-0.9267794,1.788045,-1.0787126
1747672410.0053136,-0.6260679,0.7745157,0.27804223,-0.9267794,1.788045,-1.0787126
1747672410.0124035,-0.6856178,0.8604238,0.3278299,-0.1640506,1.5984281,-0.6291713
1747672410.0133321,-0.6856178,0.8604238,0.3278299,-0.1640506,1.5984281,-0.6291713
1747672410.0141714,-0.6856178,0.8604238,0.3278299,-0.1640506,1.5984281,-0.6291713
1747672410.0153897,-0.6856178,0.8604238,0.3278299,-0.1640506,1.5984281,-0.6291713
1747672410.0162587,-0.6856178,0.8604238,0.3278299,-0.1640506,1.5984281,-0.6291713
1747672410.0189755,-0.6856178,0.8604238,0.3278299,-0.1640506,1.5984281,-0.6291713
1747672410.0281093,-0.6519379,0.92241436,0.04472349,0.7680551,0.9667268,-0.17217323
1747672410.029233,-0.62948465,0.9614635,-0.3057427,1.29323,0.33396015,0.13355742
1747672410.03005,-0.62948465,0.9614635,-0.3057427,1.29323,0.33396015,0.13355742
1747672410.0321946,-0.62948465,0.9614635,-0.3057427,1.29323,0.33396015,0.13355742
1747672410.0333662,-0.62948465,0.9614635,-0.3057427,1.29323,0.33396015,0.13355742
1747672410.0342612,-0.62948465,0.9614635,-0.3057427,1.29323,0.33396015,0.13355742
1747672410.0353045,-0.62948465,0.9614635,-0.3057427,1.29323,0.33396015,0.13355742
1747672410.03624,-0.62948465,0.9614635,-0.3057427,1.29323,0.33396015,0.13355742
1747672410.0370204,-0.62948465,0.9614635,-0.3057427,1.29323,0.33396015,0.13355742
1747672410.037797,-0.62948465,0.9614635,-0.3057427,1.29323,0.33396015,0.13355742
1747672410.038584,-0.62948465,0.9614635,-0.3057427,1.29323,0.33396015,0.13355742
1747672410.0393677,-0.592388,0.9970959,-0.6108143,1.5158702,-0.24341275,0.39454702
1747672410.040165,-0.592388,0.9970959,-0.6108143,1.5158702,-0.24341275,0.39454702
1747672410.040925,-0.592388,0.9970959,-0.6108143,1.5158702,-0.24341275,0.39454702
1747672410.0416505,-0.592388,0.9970959,-0.6108143,1.5158702,-0.24341275,0.39454702
1747672410.042374,-0.592388,0.9970959,-0.6108143,1.5158702,-0.24341275,0.39454702
1747672410.043076,-0.592388,0.9970959,-0.6108143,1.5158702,-0.24341275,0.39454702
1747672410.0437834,-0.592388,0.9970959,-0.6108143,1.5158702,-0.24341275,0.39454702
1747672410.0445638,-0.592388,0.9970959,-0.6108143,1.5158702,-0.24341275,0.39454702
1747672410.0452986,-0.592388,0.9970959,-0.6108143,1.5158702,-0.24341275,0.39454702
1747672410.0460374,-0.49086013,1.0171086,-0.81679857,1.5158702,-0.24341275,0.39454702
1747672410.0467556,-0.49086013,1.0171086,-0.81679857,1.482847,-0.77178353,0.6534061
1747672410.0474663,-0.49086013,1.0171086,-0.81679857,1.482847,-0.77178353,0.6534061
1747672410.0482228,-0.49086013,1.0171086,-0.81679857,1.482847,-0.77178353,0.6534061
1747672410.0489666,-0.49086013,1.0171086,-0.81679857,1.482847,-0.77178353,0.6534061
1747672410.0505788,-0.49086013,1.0171086,-0.81679857,1.482847,-0.77178353,0.6534061
1747672410.051622,-0.49086013,1.0171086,-0.81679857,1.482847,-0.77178353,0.6534061
1747672410.0525072,-0.49086013,1.0171086,-0.81679857,1.482847,-0.77178353,0.6534061
1747672410.0533273,-0.49086013,1.0171086,-0.81679857,1.482847,-0.77178353,0.6534061
1747672410.0541263,-0.49086013,1.0171086,-0.81679857,1.482847,-0.77178353,0.6534061
1747672410.0549505,-0.49086013,1.0171086,-0.81679857,1.482847,-0.77178353,0.6534061
1747672410.0557737,-0.49086013,1.0171086,-0.81679857,1.482847,-0.77178353,0.6534061
1747672410.0565712,-0.49086013,1.0171086,-0.81679857,1.482847,-0.77178353,0.6534061
1747672410.057572,-0.49086013,1.0171086,-0.81679857,1.482847,-0.77178353,0.6534061
1747672410.0584161,-0.40007085,1.0224779,-0.8553596,1.3486238,-0.95500886,0.79508615
1747672410.059375,-0.40007085,1.0224779,-0.8553596,1.3486238,-0.95500886,0.79508615
1747672410.060415,-0.40007085,1.0224779,-0.8553596,1.3486238,-0.95500886,0.79508615
1747672410.0615017,-0.40007085,1.0224779,-0.8553596,1.3486238,-0.95500886,0.79508615
1747672410.0626569,-0.40007085,1.0224779,-0.8553596,1.3486238,-0.95500886,0.79508615
1747672410.0660007,-0.40007085,1.0224779,-0.8553596,1.3486238,-0.95500886,0.79508615
1747672410.0668008,-0.40007085,1.0224779,-0.8553596,1.3486238,-0.95500886,0.79508615
1747672410.0678518,-0.28194714,1.0424905,-0.79044044,1.1494194,-1.0231857,0.9101346
1747672410.0686643,-0.28194714,1.0424905,-0.79044044,1.1494194,-1.0231857,0.9101346
1747672410.0694673,-0.28194714,1.0424905,-0.79044044,1.1494194,-1.0231857,0.9101346
1747672410.0702605,-0.28194714,1.0424905,-0.79044044,1.1494194,-1.0231857,0.9101346
1747672410.0713453,-0.28194714,1.0424905,-0.79044044,1.1494194,-1.0231857,0.9101346
1747672410.072144,-0.28194714,1.0424905,-0.79044044,1.1494194,-1.0231857,0.9101346
1747672410.07301,-0.28194714,1.0424905,-0.79044044,1.1494194,-1.0231857,0.9101346
1747672410.073795,-0.28194714,1.0424905,-0.79044044,1.1494194,-1.0231857,0.9101346
1747672410.0748122,-0.28194714,1.0424905,-0.79044044,1.1494194,-1.0231857,0.9101346
1747672410.075798,-0.28194714,1.0424905,-0.79044044,1.1494194,-1.0231857,0.9101346
1747672410.0768037,-0.28194714,1.0424905,-0.79044044,1.1494194,-1.0231857,0.9101346
1747672410.077887,-0.28194714,1.0424905,-0.79044044,1.1494194,-1.0231857,0.9101346
1747672410.0788138,-0.1935984,1.0688487,-0.6508397,1.0088047,-0.99229306,0.9665936
1747672410.0804071,-0.1935984,1.0688487,-0.6508397,1.0088047,-0.99229306,0.9665936
1747672410.0816884,-0.1935984,1.0688487,-0.6508397,1.0088047,-0.99229306,0.9665936
1747672410.082492,-0.1935984,1.0688487,-0.6508397,1.0088047,-0.99229306,0.9665936
1747672410.0833282,-0.1935984,1.0688487,-0.6508397,1.0088047,-0.99229306,0.9665936
1747672410.084091,-0.1935984,1.0688487,-0.6508397,1.0088047,-0.99229306,0.9665936
1747672410.0848918,-0.1935984,1.0688487,-0.6508397,1.0088047,-0.99229306,0.9665936
1747672410.0856597,-0.10720215,1.0947188,-0.4892738,0.9843036,-0.92305094,0.97405046
1747672410.086403,-0.10720215,1.0947188,-0.4892738,0.9843036,-0.92305094,0.97405046
1747672410.0871322,-0.10720215,1.0947188,-0.4892738,0.9843036,-0.92305094,0.97405046
1747672410.087852,-0.10720215,1.0947188,-0.4892738,0.9843036,-0.92305094,0.97405046
1747672410.0885959,-0.10720215,1.0947188,-0.4892738,0.9843036,-0.92305094,0.97405046
1747672410.0894852,-0.10720215,1.0947188,-0.4892738,0.9843036,-0.92305094,0.97405046
1747672410.0902858,-0.10720215,1.0947188,-0.4892738,0.9843036,-0.92305094,0.97405046
1747672410.091063,-0.10720215,1.0947188,-0.4892738,0.9843036,-0.92305094,0.97405046
1747672410.0918047,-0.10720215,1.0947188,-0.4892738,0.9843036,-0.92305094,0.97405046
1747672410.0925314,-0.10720215,1.0947188,-0.4892738,0.9843036,-0.92305094,0.97405046
1747672410.093288,-0.10720215,1.0947188,-0.4892738,0.9843036,-0.92305094,0.97405046
1747672410.0940418,-0.10720215,1.0947188,-0.4892738,0.9843036,-0.92305094,0.97405046
1747672410.0947943,-0.10720215,1.0947188,-0.4892738,0.9843036,-0.92305094,0.97405046
1747672410.0955124,-0.10720215,1.0947188,-0.4892738,0.9843036,-0.92305094,0.97405046
1747672410.0963287,-0.10720215,1.0947188,-0.4892738,0.9843036,-0.92305094,0.97405046
1747672410.0990703,-0.10720215,1.0947188,-0.4892738,0.9843036,-0.92305094,0.97405046
1747672410.1009247,-0.10720215,1.0947188,-0.4892738,0.9843036,-0.92305094,0.97405046
1747672410.1022575,-0.10720215,1.0947188,-0.4892738,0.9843036,-0.92305094,0.97405046
1747672410.1030793,-0.10720215,1.0947188,-0.4892738,0.9843036,-0.92305094,0.97405046
1747672410.1038628,-0.10720215,1.0947188,-0.4892738,0.9843036,-0.92305094,0.97405046
1747672410.1048386,-0.10720215,1.0947188,-0.4892738,0.9843036,-0.92305094,0.97405046
1747672410.1086476,-0.10720215,1.0947188,-0.4892738,0.9843036,-0.92305094,0.97405046
1747672410.1094506,-0.027639484,1.1108266,-0.3960439,1.1728553,-0.85274357,0.8781767
1747672410.11024,-0.027639484,1.1108266,-0.3960439,1.1728553,-0.85274357,0.8781767
1747672410.1159482,-0.027639484,1.1108266,-0.3960439,1.1728553,-0.85274357,0.8781767
1747672410.11878,-0.027639484,1.1108266,-0.3960439,1.1728553,-0.85274357,0.8781767
1747672410.1202748,-0.029103825,1.1274225,-0.50050044,1.2516848,-0.81439406,0.80360824
1747672410.1272044,-0.029103825,1.1274225,-0.50050044,1.2516848,-0.81439406,0.80360824
1747672410.12811,-0.029103825,1.1274225,-0.50050044,1.2516848,-0.81439406,0.80360824
1747672410.128983,-0.029103825,1.1274225,-0.50050044,1.2516848,-0.81439406,0.80360824
1747672410.1298013,-0.029103825,1.1274225,-0.50050044,1.2516848,-0.81439406,0.80360824
1747672410.1306012,-0.0315444,1.142554,-0.6498634,1.1813774,-0.73876035,0.72797453
1747672410.1314204,-0.0315444,1.142554,-0.6498634,1.1813774,-0.73876035,0.72797453
1747672410.1322658,-0.0315444,1.142554,-0.6498634,1.1813774,-0.73876035,0.72797453
1747672410.1330023,-0.0315444,1.142554,-0.6498634,1.1813774,-0.73876035,0.72797453
1747672410.1337519,-0.0315444,1.142554,-0.6498634,1.1813774,-0.73876035,0.72797453
1747672410.134518,-0.0315444,1.142554,-0.6498634,1.1813774,-0.73876035,0.72797453
1747672410.1352603,-0.0315444,1.142554,-0.6498634,1.1813774,-0.73876035,0.72797453
1747672410.1360226,-0.0315444,1.142554,-0.6498634,1.1813774,-0.73876035,0.72797453
1747672410.1367455,-0.0315444,1.142554,-0.6498634,1.1813774,-0.73876035,0.72797453
1747672410.1374636,-0.0315444,1.142554,-0.6498634,1.1813774,-0.73876035,0.72797453
1747672410.1382003,-0.03935423,1.138161,-0.79044044,0.95873725,-0.59601504,0.6672545
1747672410.1389363,-0.03935423,1.138161,-0.79044044,0.95873725,-0.59601504,0.6672545
1747672410.1396956,-0.03935423,1.138161,-0.79044044,0.95873725,-0.59601504,0.6672545
1747672410.1404214,-0.03935423,1.138161,-0.79044044,0.95873725,-0.59601504,0.6672545
1747672410.141168,-0.03935423,1.138161,-0.79044044,0.95873725,-0.59601504,0.6672545
1747672410.141904,-0.03935423,1.138161,-0.79044044,0.95873725,-0.59601504,0.6672545
1747672410.1426446,-0.03935423,1.138161,-0.79044044,0.95873725,-0.59601504,0.6672545
1747672410.143477,-0.03935423,1.138161,-0.79044044,0.95873725,-0.59601504,0.6672545
1747672410.1451647,-0.03935423,1.138161,-0.79044044,0.95873725,-0.59601504,0.6672545
1747672410.1462007,-0.025687024,1.1459708,-0.8509666,0.63596237,-0.4298339,0.5862945
1747672410.1469905,-0.025687024,1.1459708,-0.8509666,0.63596237,-0.4298339,0.5862945
1747672410.147778,-0.025687024,1.1459708,-0.8509666,0.63596237,-0.4298339,0.5862945
1747672410.148562,-0.025687024,1.1459708,-0.8509666,0.63596237,-0.4298339,0.5862945
1747672410.1493595,-0.025687024,1.1459708,-0.8509666,0.63596237,-0.4298339,0.5862945
1747672410.1501527,-0.025687024,1.1459708,-0.8509666,0.63596237,-0.4298339,0.5862945
1747672410.1509795,-0.025687024,1.1459708,-0.8509666,0.63596237,-0.4298339,0.5862945
1747672410.1518385,-0.025687024,1.1459708,-0.8509666,0.63596237,-0.4298339,0.5862945
1747672410.152847,-0.025687024,1.1459708,-0.8509666,0.63596237,-0.4298339,0.5862945
1747672410.1536427,-0.025687024,1.1459708,-0.8509666,0.63596237,-0.4298339,0.5862945
1747672410.1544785,-0.025687024,1.1459708,-0.8509666,0.63596237,-0.4298339,0.5862945
1747672410.155421,-0.025687024,1.1459708,-0.8509666,0.63596237,-0.4298339,0.5862945
1747672410.156207,-0.025687024,1.1459708,-0.8509666,0.63596237,-0.4298339,0.5862945
1747672410.1570194,-0.044235375,1.1288868,-0.8490141,0.27483803,-0.24554327,0.47657233
1747672410.1579626,-0.044235375,1.1288868,-0.8490141,0.27483803,-0.24554327,0.47657233
1747672410.159481,-0.044235375,1.1288868,-0.8490141,0.27483803,-0.24554327,0.47657233
1747672410.1630688,-0.044235375,1.1288868,-0.8490141,0.27483803,-0.24554327,0.47657233
1747672410.1638756,-0.044235375,1.1288868,-0.8490141,0.27483803,-0.24554327,0.47657233
1747672410.1649234,-0.044235375,1.1288868,-0.8490141,0.27483803,-0.24554327,0.47657233
1747672410.1658216,-0.044235375,1.1288868,-0.8490141,0.27483803,-0.24554327,0.47657233
1747672410.1666348,-0.12721483,1.0830041,-0.79044044,-0.07563372,-0.02929475,0.42011335
1747672410.1674263,-0.12721483,1.0830041,-0.79044044,-0.07563372,-0.02929475,0.42011335
1747672410.1682453,-0.12721483,1.0830041,-0.79044044,-0.07563372,-0.02929475,0.42011335
1747672410.1690397,-0.12721483,1.0830041,-0.79044044,-0.07563372,-0.02929475,0.42011335
1747672410.1698368,-0.12721483,1.0830041,-0.79044044,-0.07563372,-0.02929475,0.42011335
1747672410.1706543,-0.12721483,1.0830041,-0.79044044,-0.07563372,-0.02929475,0.42011335
1747672410.172356,-0.12721483,1.0830041,-0.79044044,-0.07563372,-0.02929475,0.42011335
1747672410.1731842,-0.12721483,1.0830041,-0.79044044,-0.07563372,-0.02929475,0.42011335
1747672410.1739733,-0.12721483,1.0830041,-0.79044044,-0.07563372,-0.02929475,0.42011335
1747672410.1750073,-0.12721483,1.0830041,-0.79044044,-0.07563372,-0.02929475,0.42011335
1747672410.175996,-0.20482506,1.0542053,-0.6366843,-0.34088436,0.097471625,0.42650494
1747672410.177013,-0.20482506,1.0542053,-0.6366843,-0.34088436,0.097471625,0.42650494
1747672410.1780102,-0.20482506,1.0542053,-0.6366843,-0.34088436,0.097471625,0.42650494
1747672410.179111,-0.20482506,1.0542053,-0.6366843,-0.34088436,0.097471625,0.42650494
1747672410.179849,-0.20482506,1.0542053,-0.6366843,-0.34088436,0.097471625,0.42650494
1747672410.1805854,-0.20482506,1.0542053,-0.6366843,-0.34088436,0.097471625,0.42650494
1747672410.1813235,-0.20482506,1.0542053,-0.6366843,-0.34088436,0.097471625,0.42650494
1747672410.182145,-0.20482506,1.0542053,-0.6366843,-0.34088436,0.097471625,0.42650494
1747672410.1828976,-0.20482506,1.0542053,-0.6366843,-0.34088436,0.097471625,0.42650494
1747672410.1836336,-0.20482506,1.0542053,-0.6366843,-0.34088436,0.097471625,0.42650494
1747672410.1843867,-0.20482506,1.0542053,-0.6366843,-0.34088436,0.097471625,0.42650494
1747672410.1849065,-0.20482506,1.0542053,-0.6366843,-0.34088436,0.097471625,0.42650494
1747672410.1856332,-0.20482506,1.0542053,-0.6366843,-0.34088436,0.097471625,0.42650494
1747672410.1863456,-0.2838996,1.031264,-0.38091236,-0.4101265,0.014381059,0.50746495
1747672410.1870606,-0.2838996,1.031264,-0.38091236,-0.4101265,0.014381059,0.50746495
1747672410.1877987,-0.2838996,1.031264,-0.38091236,-0.4101265,0.014381059,0.50746495
1747672410.1885169,-0.2838996,1.031264,-0.38091236,-0.4101265,0.014381059,0.50746495
1747672410.189246,-0.2838996,1.031264,-0.38091236,-0.4101265,0.014381059,0.50746495
1747672410.1900213,-0.2838996,1.031264,-0.38091236,-0.4101265,0.014381059,0.50746495
1747672410.191932,-0.2838996,1.031264,-0.38091236,-0.4101265,0.014381059,0.50746495
1747672410.1929376,-0.2838996,1.031264,-0.38091236,-0.4101265,0.014381059,0.50746495
1747672410.1937454,-0.2838996,1.031264,-0.38091236,-0.4101265,0.014381059,0.50746495
1747672410.194752,-0.2838996,1.031264,-0.38091236,-0.4101265,0.014381059,0.50746495
1747672410.196072,-0.2838996,1.031264,-0.38091236,-0.4101265,0.014381059,0.50746495
1747672410.1967492,-0.2838996,1.031264,-0.38091236,-0.4101265,0.014381059,0.50746495
1747672410.1977594,-0.2838996,1.031264,-0.38091236,-0.4101265,0.014381059,0.50746495
1747672410.198758,-0.2838996,1.031264,-0.38091236,-0.4101265,0.014381059,0.50746495
1747672410.199748,-0.2838996,1.031264,-0.38091236,-0.4101265,0.014381059,0.50746495
1747672410.2007563,-0.2848758,1.0166205,-0.24033538,-0.30360013,-0.2125201,0.57883763
1747672410.2017496,-0.2848758,1.0166205,-0.24033538,-0.30360013,-0.2125201,0.57883763
1747672410.2027502,-0.2848758,1.0166205,-0.24033538,-0.30360013,-0.2125201,0.57883763
1747672410.2045383,-0.2848758,1.0166205,-0.24033538,-0.30360013,-0.2125201,0.57883763
1747672410.2057607,-0.2848758,1.0166205,-0.24033538,-0.30360013,-0.2125201,0.57883763
1747672410.2068098,-0.2848758,1.0166205,-0.24033538,-0.30360013,-0.2125201,0.57883763
1747672410.2077467,-0.2848758,1.0166205,-0.24033538,-0.30360013,-0.2125201,0.57883763
1747672410.2087493,-0.2848758,1.0166205,-0.24033538,-0.30360013,-0.2125201,0.57883763
1747672410.2097483,-0.2502197,0.9966078,-0.18469033,-0.08841688,-0.5544697,0.66831976
1747672410.2107468,-0.2502197,0.9966078,-0.18469033,-0.08841688,-0.5544697,0.66831976
1747672410.2118666,-0.2502197,0.9966078,-0.18469033,-0.08841688,-0.5544697,0.66831976
1747672410.212747,-0.2502197,0.9966078,-0.18469033,-0.08841688,-0.5544697,0.66831976
1747672410.2137473,-0.2502197,0.9966078,-0.18469033,-0.08841688,-0.5544697,0.66831976
1747672410.214753,-0.2502197,0.9966078,-0.18469033,-0.08841688,-0.5544697,0.66831976
1747672410.215749,-0.2502197,0.9966078,-0.18469033,-0.08841688,-0.5544697,0.66831976
1747672410.2167559,-0.2502197,0.9966078,-0.18469033,-0.08841688,-0.5544697,0.66831976
1747672410.2177486,-0.2502197,0.9966078,-0.18469033,-0.08841688,-0.5544697,0.66831976
1747672410.218817,-0.2502197,0.9966078,-0.18469033,-0.08841688,-0.5544697,0.66831976
1747672410.2198744,-0.2502197,0.9966078,-0.18469033,-0.08841688,-0.5544697,0.66831976
1747672410.2207491,-0.2502197,0.9966078,-0.18469033,-0.08841688,-0.5544697,0.66831976
1747672410.2217472,-0.15503736,1.0019771,-0.2212989,0.0468716,-0.79202354,0.7269093
1747672410.222746,-0.15503736,1.0019771,-0.2212989,0.0468716,-0.79202354,0.7269093
1747672410.2237592,-0.15503736,1.0019771,-0.2212989,0.0468716,-0.79202354,0.7269093
1747672410.224768,-0.15503736,1.0019771,-0.2212989,0.0468716,-0.79202354,0.7269093
1747672410.2257586,-0.15503736,1.0019771,-0.2212989,0.0468716,-0.79202354,0.7269093
1747672410.226775,-0.15503736,1.0019771,-0.2212989,0.0468716,-0.79202354,0.7269093
1747672410.2277563,-0.15503736,1.0019771,-0.2212989,0.0468716,-0.79202354,0.7269093
1747672410.2287383,-0.15503736,1.0019771,-0.2212989,0.1054611,-0.99229306,0.7343661
1747672410.2297575,-0.15503736,1.0019771,-0.2212989,0.1054611,-0.99229306,0.7343661
1747672410.2307374,-0.019829651,1.0371213,-0.3150169,0.1054611,-0.99229306,0.7343661
1747672410.2317362,-0.019829651,1.0371213,-0.3150169,0.1054611,-0.99229306,0.7343661
1747672410.2327423,-0.019829651,1.0371213,-0.3150169,0.1054611,-0.99229306,0.7343661
1747672410.233738,-0.019829651,1.0371213,-0.3150169,0.1054611,-0.99229306,0.7343661
1747672410.2347531,-0.019829651,1.0371213,-0.3150169,0.1054611,-0.99229306,0.7343661
1747672410.235749,-0.019829651,1.0371213,-0.3150169,0.1054611,-0.99229306,0.7343661
1747672410.236761,-0.019829651,1.0371213,-0.3150169,0.1054611,-0.99229306,0.7343661
1747672410.2377853,-0.019829651,1.0371213,-0.3150169,0.1054611,-0.99229306,0.7343661
1747672410.2399585,0.12123544,1.053229,-0.42825943,-0.020240009,-1.0317079,0.62144816
1747672410.2409227,0.12123544,1.053229,-0.42825943,-0.020240009,-1.0317079,0.62144816
1747672410.2420108,0.12123544,1.053229,-0.42825943,-0.020240009,-1.0317079,0.62144816
1747672410.2432542,0.12123544,1.053229,-0.42825943,-0.020240009,-1.0317079,0.62144816
1747672410.2440815,0.12123544,1.053229,-0.42825943,-0.020240009,-1.0317079,0.62144816
1747672410.24461,0.12123544,1.053229,-0.42825943,-0.020240009,-1.0317079,0.62144816
1747672410.2455268,0.12123544,1.053229,-0.42825943,-0.020240009,-1.0317079,0.62144816
1747672410.246351,0.12123544,1.053229,-0.42825943,-0.020240009,-1.0317079,0.62144816
1747672410.2472053,0.12123544,1.053229,-0.42825943,-0.020240009,-1.0317079,0.62144816
1747672410.2480266,0.12123544,1.053229,-0.42825943,-0.020240009,-1.0317079,0.62144816
1747672410.2488968,0.12123544,1.053229,-0.42825943,-0.020240009,-1.0317079,0.62144816
1747672410.249808,0.12123544,1.053229,-0.42825943,-0.020240009,-1.0317079,0.62144816
1747672410.2506633,0.18859524,1.0434667,-0.49366683,-0.020240009,-1.0317079,0.62144816
1747672410.251639,0.18859524,1.0434667,-0.49366683,-0.020240009,-1.0317079,0.62144816
1747672410.25304,0.18859524,1.0434667,-0.49366683,-0.2577938,-0.88150567,0.44141862
1747672410.2539933,0.18859524,1.0434667,-0.49366683,-0.2577938,-0.88150567,0.44141862
1747672410.254973,0.18859524,1.0434667,-0.49366683,-0.2577938,-0.88150567,0.44141862
1747672410.255826,0.18859524,1.0434667,-0.49366683,-0.2577938,-0.88150567,0.44141862
1747672410.2566838,0.18859524,1.0434667,-0.49366683,-0.2577938,-0.88150567,0.44141862
1747672410.2575214,0.18859524,1.0434667,-0.49366683,-0.2577938,-0.88150567,0.44141862
1747672410.25857,0.13929567,1.0083225,-0.47902334,-0.2577938,-0.88150567,0.44141862
1747672410.259547,0.13929567,1.0083225,-0.47902334,-0.2577938,-0.88150567,0.44141862
1747672410.2603467,0.13929567,1.0083225,-0.47902334,-0.2577938,-0.88150567,0.44141862
1747672410.261224,0.13929567,1.0083225,-0.47902334,-0.6189182,-0.60666764,0.2017343
1747672410.2620142,0.13929567,1.0083225,-0.47902334,-0.6189182,-0.60666764,0.2017343
1747672410.262811,0.13929567,1.0083225,-0.47902334,-0.6189182,-0.60666764,0.2017343
1747672410.263623,0.13929567,1.0083225,-0.47902334,-0.6189182,-0.60666764,0.2017343
1747672410.26442,0.13929567,1.0083225,-0.47902334,-0.6189182,-0.60666764,0.2017343
1747672410.2652411,0.13929567,1.0083225,-0.47902334,-0.6189182,-0.60666764,0.2017343
1747672410.2661386,0.13929567,1.0083225,-0.47902334,-0.6189182,-0.60666764,0.2017343
1747672410.267188,0.13929567,1.0083225,-0.47902334,-0.6189182,-0.60666764,0.2017343
1747672410.267971,0.13929567,1.0083225,-0.47902334,-0.6189182,-0.60666764,0.2017343
1747672410.268842,0.054363754,0.9848931,-0.38042423,-0.8149267,-0.4671181,0.072837405
1747672410.2696521,0.054363754,0.9848931,-0.38042423,-0.8149267,-0.4671181,0.072837405
1747672410.270572,0.054363754,0.9848931,-0.38042423,-0.8149267,-0.4671181,0.072837405
1747672410.271359,0.054363754,0.9848931,-0.38042423,-0.8149267,-0.4671181,0.072837405
1747672410.2721782,0.054363754,0.9848931,-0.38042423,-0.8149267,-0.4671181,0.072837405
1747672410.2730281,0.054363754,0.9848931,-0.38042423,-0.8149267,-0.4671181,0.072837405
1747672410.2738078,0.054363754,0.9848931,-0.38042423,-0.8149267,-0.4671181,0.072837405
1747672410.2746613,0.054363754,0.9848931,-0.38042423,-0.89482147,-0.4735097,0.017443692
1747672410.2754111,0.054363754,0.9848931,-0.38042423,-0.89482147,-0.4735097,0.017443692
1747672410.2761388,0.054363754,0.9848931,-0.38042423,-0.89482147,-0.4735097,0.017443692
1747672410.2769177,0.054363754,0.9848931,-0.38042423,-0.89482147,-0.4735097,0.017443692
1747672410.2776513,0.054363754,0.9848931,-0.38042423,-0.89482147,-0.4735097,0.017443692
1747672410.27835,0.054363754,0.9848931,-0.38042423,-0.89482147,-0.4735097,0.017443692
1747672410.2790422,0.054363754,0.9848931,-0.38042423,-0.89482147,-0.4735097,0.017443692
1747672410.2797308,0.054363754,0.9848931,-0.38042423,-0.89482147,-0.4735097,0.017443692
1747672410.280425,0.054363754,0.9848931,-0.38042423,-0.89482147,-0.4735097,0.017443692
1747672410.2811706,0.054363754,0.9848931,-0.38042423,-0.89482147,-0.4735097,0.017443692
1747672410.2819026,0.054363754,0.9848931,-0.38042423,-0.89482147,-0.4735097,0.017443692
1747672410.2827249,0.054363754,0.9848931,-0.38042423,-0.89482147,-0.4735097,0.017443692
1747672410.2834847,0.054363754,0.9848931,-0.38042423,-0.89482147,-0.4735097,0.017443692
1747672410.2842398,-0.25802952,0.899473,0.0051862164,-0.89482147,-0.4735097,0.017443692
1747672410.2857583,-0.25802952,0.899473,0.0051862164,-0.89482147,-0.4735097,0.017443692
1747672410.286719,-0.25802952,0.899473,0.0051862164,-0.7478151,-0.74302137,0.11331742
1747672410.2876875,-0.25802952,0.899473,0.0051862164,-0.7478151,-0.74302137,0.11331742
1747672410.2886071,-0.25802952,0.899473,0.0051862164,-0.7478151,-0.74302137,0.11331742
1747672410.2894032,-0.25802952,0.899473,0.0051862164,-0.7478151,-0.74302137,0.11331742
1747672410.290235,-0.25802952,0.899473,0.0051862164,-0.7478151,-0.74302137,0.11331742
1747672410.291065,-0.25802952,0.899473,0.0051862164,-0.7478151,-0.74302137,0.11331742
1747672410.2920625,-0.25802952,0.899473,0.0051862164,-0.7478151,-0.74302137,0.11331742
1747672410.2928796,-0.25802952,0.899473,0.0051862164,-0.7478151,-0.74302137,0.11331742
1747672410.2938094,-0.25802952,0.899473,0.0051862164,-0.7478151,-0.74302137,0.11331742
1747672410.2947464,-0.25802952,0.899473,0.0051862164,-0.7478151,-0.74302137,0.11331742
1747672410.29557,-0.25802952,0.899473,0.0051862164,-0.7478151,-0.74302137,0.11331742
1747672410.2964015,-0.3444258,0.8711623,0.13892959,-0.7478151,-0.74302137,0.11331742
1747672410.2972095,-0.3444258,0.8711623,0.13892959,-0.40906125,-1.2522174,0.33276173
1747672410.3000984,-0.3444258,0.8711623,0.13892959,-0.40906125,-1.2522174,0.33276173
1747672410.3020363,-0.3444258,0.8711623,0.13892959,-0.40906125,-1.2522174,0.33276173
1747672410.303074,-0.3444258,0.8711623,0.13892959,-0.40906125,-1.2522174,0.33276173
1747672410.3041937,-0.3444258,0.8711623,0.13892959,-0.40906125,-1.2522174,0.33276173
1747672410.3052275,-0.3444258,0.8711623,0.13892959,-0.40906125,-1.2522174,0.33276173
1747672410.3060327,-0.3444258,0.8711623,0.13892959,-0.40906125,-1.2522174,0.33276173
1747672410.3068767,-0.3444258,0.8711623,0.13892959,-0.40906125,-1.2522174,0.33276173
1747672410.3077424,-0.3444258,0.8711623,0.13892959,-0.40906125,-1.2522174,0.33276173
1747672410.3086355,-0.33319917,0.83894676,0.11208329,0.0585895,-1.8775271,0.6715156
1747672410.3094323,-0.33319917,0.83894676,0.11208329,0.0585895,-1.8775271,0.6715156
1747672410.310242,-0.33319917,0.83894676,0.11208329,0.0585895,-1.8775271,0.6715156
1747672410.3110437,-0.33319917,0.83894676,0.11208329,0.0585895,-1.8775271,0.6715156
1747672410.3127596,-0.33319917,0.83894676,0.11208329,0.0585895,-1.8775271,0.6715156
1747672410.3136148,-0.33319917,0.83894676,0.11208329,0.0585895,-1.8775271,0.6715156
1747672410.314432,-0.33319917,0.83894676,0.11208329,0.0585895,-1.8775271,0.6715156
1747672410.3154464,-0.33319917,0.83894676,0.11208329,0.0585895,-1.8775271,0.6715156
1747672410.316236,-0.33319917,0.83894676,0.11208329,0.0585895,-1.8775271,0.6715156
1747672410.317028,-0.33319917,0.83894676,0.11208329,0.0585895,-1.8775271,0.6715156
1747672410.3178885,-0.23020701,0.81258863,0.02617514,0.28122962,-2.135321,0.85047984
1747672410.3188484,-0.23020701,0.81258863,0.02617514,0.28122962,-2.135321,0.85047984
1747672410.3196192,-0.23020701,0.81258863,0.02617514,0.28122962,-2.135321,0.85047984
1747672410.320389,-0.23020701,0.81258863,0.02617514,0.28122962,-2.135321,0.85047984
1747672410.3211381,-0.23020701,0.81258863,0.02617514,0.28122962,-2.135321,0.85047984
1747672410.321896,-0.23020701,0.81258863,0.02617514,0.28122962,-2.135321,0.85047984
1747672410.3226748,-0.23020701,0.81258863,0.02617514,0.28122962,-2.135321,0.85047984
1747672410.3233764,-0.23020701,0.81258863,0.02617514,0.28122962,-2.135321,0.85047984
1747672410.3240733,-0.23020701,0.81258863,0.02617514,0.28122962,-2.135321,0.85047984
1747672410.3248115,-0.23020701,0.81258863,0.02617514,0.28122962,-2.135321,0.85047984
1747672410.3255215,-0.23020701,0.81258863,0.02617514,0.28122962,-2.135321,0.85047984
1747672410.3262558,-0.23020701,0.81258863,0.02617514,0.28122962,-2.135321,0.85047984
1747672410.3269825,-0.06912921,0.8072194,-0.14759362,0.28122962,-2.135321,0.85047984
1747672410.3277152,-0.06912921,0.8072194,-0.14759362,0.38242966,-2.2620873,0.92717886
1747672410.3284807,-0.06912921,0.8072194,-0.14759362,0.38242966,-2.2620873,0.92717886
1747672410.3291872,-0.06912921,0.8072194,-0.14759362,0.38242966,-2.2620873,0.92717886
1747672410.3299391,-0.06912921,0.8072194,-0.14759362,0.38242966,-2.2620873,0.92717886
1747672410.3306997,-0.06912921,0.8072194,-0.14759362,0.38242966,-2.2620873,0.92717886
1747672410.3318594,-0.06912921,0.8072194,-0.14759362,0.38242966,-2.2620873,0.92717886
1747672410.3332186,-0.06912921,0.8072194,-0.14759362,0.38242966,-2.2620873,0.92717886
1747672410.3344874,-0.06912921,0.8072194,-0.14759362,0.38242966,-2.2620873,0.92717886
1747672410.3353403,-0.06912921,0.8072194,-0.14759362,0.38242966,-2.2620873,0.92717886
1747672410.336301,-0.06912921,0.8072194,-0.14759362,0.38242966,-2.2620873,0.92717886
1747672410.3370855,-0.06912921,0.8072194,-0.14759362,0.38242966,-2.2620873,0.92717886
1747672410.337885,-0.06912921,0.8072194,-0.14759362,0.38242966,-2.2620873,0.92717886
1747672410.3386967,-0.06912921,0.8072194,-0.14759362,0.38242966,-2.2620873,0.92717886
1747672410.339521,-0.06912921,0.8072194,-0.14759362,0.38242966,-2.2620873,0.92717886
1747672410.3403847,-0.06912921,0.8072194,-0.14759362,0.38242966,-2.2620873,0.92717886
1747672410.3412223,-0.06912921,0.8072194,-0.14759362,0.38242966,-2.2620873,0.92717886
1747672410.3420043,-0.06912921,0.8072194,-0.14759362,0.38242966,-2.2620873,0.92717886
1747672410.3429399,-0.06912921,0.8072194,-0.14759362,0.38242966,-2.2620873,0.92717886
1747672410.3439438,-0.06912921,0.8072194,-0.14759362,0.38242966,-2.2620873,0.92717886
1747672410.3444555,0.05729244,0.8145411,-0.37993613,0.26418537,-2.1992369,0.903743
1747672410.3454154,0.05729244,0.8145411,-0.37993613,0.26418537,-2.1992369,0.903743
1747672410.3467443,0.05729244,0.8145411,-0.37993613,0.26418537,-2.1992369,0.903743
1747672410.3478572,0.05729244,0.8145411,-0.37993613,0.26418537,-2.1992369,0.903743
1747672410.3489413,0.05729244,0.8145411,-0.37993613,0.26418537,-2.1992369,0.903743
1747672410.3507195,0.05729244,0.8145411,-0.37993613,0.26418537,-2.1992369,0.903743
1747672410.3514953,0.05729244,0.8145411,-0.37993613,0.26418537,-2.1992369,0.903743
1747672410.3523297,0.05729244,0.8145411,-0.37993613,0.26418537,-2.1992369,0.903743
1747672410.3531082,0.05729244,0.8145411,-0.37993613,0.26418537,-2.1992369,0.903743
1747672410.354132,0.05729244,0.8145411,-0.37993613,0.26418537,-2.1992369,0.903743
1747672410.3550346,-0.17456195,0.724728,-0.5488238,-0.053263184,-2.0841882,0.838762
1747672410.3558202,-0.17456195,0.724728,-0.5488238,-0.053263184,-2.0841882,0.838762
1747672410.3566337,-0.17456195,0.724728,-0.5488238,-0.053263184,-2.0841882,0.838762
1747672410.357713,-0.17456195,0.724728,-0.5488238,-0.4868255,-1.9723356,0.903743
1747672410.3587947,-0.17456195,0.724728,-0.5488238,-0.4868255,-1.9723356,0.903743
1747672410.3601708,-0.17456195,0.724728,-0.5488238,-0.4868255,-1.9723356,0.903743
1747672410.361183,-0.17456195,0.724728,-0.5488238,-0.4868255,-1.9723356,0.903743
1747672410.3620112,-0.17456195,0.724728,-0.5488238,-0.4868255,-1.9723356,0.903743
1747672410.362946,-0.17456195,0.724728,-0.5488238,-0.4868255,-1.9723356,0.903743
1747672410.3639653,-0.17456195,0.724728,-0.5488238,-0.4868255,-1.9723356,0.903743
1747672410.3654277,-0.52649254,0.6573682,-0.50196475,-0.9310404,-1.9947062,1.2414316
1747672410.3662202,-0.52649254,0.6573682,-0.50196475,-0.9310404,-1.9947062,1.2414316
1747672410.3670375,-0.52649254,0.6573682,-0.50196475,-0.9310404,-1.9947062,1.2414316
1747672410.3677933,-0.52649254,0.6573682,-0.50196475,-0.9310404,-1.9947062,1.2414316
1747672410.368573,-0.52649254,0.6573682,-0.50196475,-0.9310404,-1.9947062,1.2414316
1747672410.3693185,-0.52649254,0.6573682,-0.50196475,-0.9310404,-1.9947062,1.2414316
1747672410.3700566,-0.52649254,0.6573682,-0.50196475,-0.9310404,-1.9947062,1.2414316
1747672410.3707948,-0.52649254,0.6573682,-0.50196475,-0.9310404,-1.9947062,1.2414316
1747672410.3715477,-0.52649254,0.6573682,-0.50196475,-0.9310404,-1.9947062,1.2414316
1747672410.372332,-0.52649254,0.6573682,-0.50196475,-0.9310404,-1.9947062,1.2414316
1747672410.3730874,-0.52649254,0.6573682,-0.50196475,-0.9310404,-1.9947062,1.2414316
1747672410.3738673,-0.52649254,0.6573682,-0.50196475,-0.9310404,-1.9947062,1.2414316
1747672410.374602,-0.74028665,0.6314981,-0.30671895,-0.9310404,-1.9947062,1.2414316
1747672410.375381,-0.74028665,0.6314981,-0.30671895,-0.9310404,-1.9947062,1.2414316
1747672410.376132,-0.74028665,0.6314981,-0.30671895,-1.2399669,-2.207759,1.8092171
1747672410.3769333,-0.74028665,0.6314981,-0.30671895,-1.2399669,-2.207759,1.8092171
1747672410.3777418,-0.74028665,0.6314981,-0.30671895,-1.2399669,-2.207759,1.8092171
1747672410.3784673,-0.74028665,0.6314981,-0.30671895,-1.2399669,-2.207759,1.8092171
1747672410.38206,-0.74028665,0.6314981,-0.30671895,-1.2399669,-2.207759,1.8092171
1747672410.383059,-0.74028665,0.6314981,-0.30671895,-1.2399669,-2.207759,1.8092171
1747672410.3841047,-0.74028665,0.6314981,-0.30671895,-1.2399669,-2.207759,1.8092171
1747672410.3850868,-0.74028665,0.6314981,-0.30671895,-1.2399669,-2.207759,1.8092171
1747672410.3870122,-0.74028665,0.6314981,-0.30671895,-1.2250532,-2.8096328,2.454767
1747672410.3881972,-0.74028665,0.6314981,-0.30671895,-1.2250532,-2.8096328,2.454767
1747672410.3902838,-0.74028665,0.6314981,-0.30671895,-1.2250532,-2.8096328,2.454767
1747672410.3914707,-0.74028665,0.6314981,-0.30671895,-1.2250532,-2.8096328,2.454767
1747672410.393714,-0.74028665,0.6314981,-0.30671895,-1.2250532,-2.8096328,2.454767
1747672410.3948197,-0.74028665,0.6314981,-0.30671895,-1.2250532,-2.8096328,2.454767
1747672410.3962395,-0.4469298,0.6290575,0.18090743,-0.977912,-3.5414689,2.9788766
1747672410.3975315,-0.4469298,0.6290575,0.18090743,-0.977912,-3.5414689,2.9788766
1747672410.3983328,-0.4469298,0.6290575,0.18090743,-0.977912,-3.5414689,2.9788766
1747672410.399391,-0.4469298,0.6290575,0.18090743,-0.977912,-3.5414689,2.9788766
1747672410.4001954,-0.4469298,0.6290575,0.18090743,-0.977912,-3.5414689,2.9788766
1747672410.401458,-0.4469298,0.6290575,0.18090743,-0.977912,-3.5414689,2.9788766
1747672410.4025033,-0.4469298,0.6290575,0.18090743,-0.977912,-3.5414689,2.9788766
1747672410.407325,-0.4469298,0.6290575,0.18090743,-0.68496454,-3.8099153,3.2409315
1747672410.4086595,-0.4469298,0.6290575,0.18090743,-0.68496454,-3.8099153,3.2409315
1747672410.4105482,0.051435065,0.660785,0.24240986,-0.68496454,-3.8099153,3.2409315
1747672410.4117877,0.051435065,0.660785,0.24240986,-0.68496454,-3.8099153,3.2409315
1747672410.4127312,0.051435065,0.660785,0.24240986,-0.68496454,-3.8099153,3.2409315
1747672410.4134965,0.051435065,0.660785,0.24240986,-0.68496454,-3.8099153,3.2409315
1747672410.414262,0.051435065,0.660785,0.24240986,-0.68496454,-3.8099153,3.2409315
1747672410.4151108,0.051435065,0.660785,0.24240986,-0.68496454,-3.8099153,3.2409315
1747672410.4159186,0.601052,0.64272475,0.16724022,-0.55819815,-3.4722269,3.1109693
1747672410.416702,0.601052,0.64272475,0.16724022,-0.55819815,-3.4722269,3.1109693
1747672410.417432,0.601052,0.64272475,0.16724022,-0.55819815,-3.4722269,3.1109693
1747672410.4181798,0.601052,0.64272475,0.16724022,-0.55819815,-3.4722269,3.1109693
1747672410.418908,0.601052,0.64272475,0.16724022,-0.55819815,-3.4722269,3.1109693
1747672410.4196265,0.601052,0.64272475,0.16724022,-0.55819815,-3.4722269,3.1109693
1747672410.420378,0.601052,0.64272475,0.16724022,-0.55819815,-3.4722269,3.1109693
1747672410.4211316,0.601052,0.64272475,0.16724022,-0.55819815,-3.4722269,3.1109693
1747672410.4219007,0.601052,0.64272475,0.16724022,-0.55819815,-3.4722269,3.1109693
1747672410.422638,0.601052,0.64272475,0.16724022,-0.55819815,-3.4722269,3.1109693
1747672410.4233973,0.601052,0.64272475,0.16724022,-0.55819815,-3.4722269,3.1109693
1747672410.4241738,0.601052,0.64272475,0.16724022,-0.55819815,-3.4722269,3.1109693
1747672410.425766,0.601052,0.64272475,0.16724022,-0.55819815,-3.4722269,3.1109693
1747672410.4341247,0.83485883,0.6373555,0.08767757,-0.63383186,-2.8330686,2.7636933
1747672410.4365706,0.83485883,0.6373555,0.08767757,-0.63383186,-2.8330686,2.7636933
1747672410.4374306,0.83485883,0.6373555,0.08767757,-0.63383186,-2.8330686,2.7636933
1747672410.4383378,0.83485883,0.6373555,0.08767757,-0.63383186,-2.8330686,2.7636933
1747672410.4437318,0.9388272,0.6886075,0.017877193,-0.95447624,-1.7390429,2.120274
1747672410.4447348,0.9388272,0.6886075,0.017877193,-0.95447624,-1.7390429,2.120274
1747672410.4458528,0.9388272,0.6886075,0.017877193,-0.95447624,-1.7390429,2.120274
1747672410.446752,0.9388272,0.6886075,0.017877193,-0.95447624,-1.7390429,2.120274
1747672410.4477527,0.9388272,0.6886075,0.017877193,-0.95447624,-1.7390429,2.120274
1747672410.4488115,0.9388272,0.6886075,0.017877193,-0.95447624,-1.7390429,2.120274
1747672410.449865,0.7011155,0.76328903,0.1799312,-1.1323752,-1.3310469,1.7080171
1747672410.4514081,0.7011155,0.76328903,0.1799312,-1.1323752,-1.3310469,1.7080171
1747672410.4530873,0.7011155,0.76328903,0.1799312,-1.1323752,-1.3310469,1.7080171
1747672410.4543293,0.7011155,0.76328903,0.1799312,-1.1323752,-1.3310469,1.7080171
1747672410.4557655,0.7011155,0.76328903,0.1799312,-1.1323752,-1.3310469,1.7080171
1747672410.4575667,0.7011155,0.76328903,0.1799312,-1.1323752,-1.3310469,1.7080171
1747672410.4585931,0.456082,0.784278,0.41080934,-1.1323752,-1.3310469,1.7080171
1747672410.4593892,0.456082,0.784278,0.41080934,-1.1323752,-1.3310469,1.7080171
1747672410.460188,0.456082,0.784278,0.41080934,-1.0482194,-1.452487,1.550358
1747672410.4609704,0.456082,0.784278,0.41080934,-1.0482194,-1.452487,1.550358
1747672410.4617097,0.456082,0.784278,0.41080934,-1.0482194,-1.452487,1.550358
1747672410.462444,0.456082,0.784278,0.41080934,-1.0482194,-1.452487,1.550358
1747672410.4633036,0.456082,0.784278,0.41080934,-1.0482194,-1.452487,1.550358
1747672410.4641,0.456082,0.784278,0.41080934,-1.0482194,-1.452487,1.550358
1747672410.46485,0.311112,0.7320497,0.64754486,-1.0482194,-1.452487,1.550358
1747672410.4655902,0.311112,0.7320497,0.64754486,-1.0482194,-1.452487,1.550358
1747672410.4663386,0.311112,0.7320497,0.64754486,-1.0482194,-1.452487,1.550358
1747672410.4670799,0.311112,0.7320497,0.64754486,-0.6008087,-2.022403,1.6132087
1747672410.4677963,0.311112,0.7320497,0.64754486,-0.6008087,-2.022403,1.6132087
1747672410.4685383,0.311112,0.7320497,0.64754486,-0.6008087,-2.022403,1.6132087
1747672410.4692712,0.311112,0.7320497,0.64754486,-0.6008087,-2.022403,1.6132087
1747672410.4699752,0.311112,0.7320497,0.64754486,-0.6008087,-2.022403,1.6132087
1747672410.4707298,0.311112,0.7320497,0.64754486,-0.6008087,-2.022403,1.6132087
1747672410.4714568,0.311112,0.7320497,0.64754486,-0.6008087,-2.022403,1.6132087
1747672410.4732203,0.311112,0.7320497,0.64754486,-0.6008087,-2.022403,1.6132087
1747672410.474335,0.311112,0.7320497,0.64754486,-0.6008087,-2.022403,1.6132087
1747672410.4751587,0.311112,0.7320497,0.64754486,-0.6008087,-2.022403,1.6132087
1747672410.475949,0.30232593,0.7037391,0.71246415,-0.16618113,-2.466618,1.7325182
1747672410.4767346,0.30232593,0.7037391,0.71246415,-0.16618113,-2.466618,1.7325182
1747672410.4775074,0.30232593,0.7037391,0.71246415,-0.16618113,-2.466618,1.7325182
1747672410.478297,0.30232593,0.7037391,0.71246415,-0.16618113,-2.466618,1.7325182
1747672410.4791124,0.30232593,0.7037391,0.71246415,-0.16618113,-2.466618,1.7325182
1747672410.480097,0.30232593,0.7037391,0.71246415,-0.16618113,-2.466618,1.7325182
1747672410.4810338,0.30232593,0.7037391,0.71246415,-0.16618113,-2.466618,1.7325182
1747672410.4819975,0.30232593,0.7037391,0.71246415,-0.16618113,-2.466618,1.7325182
1747672410.4831073,0.30232593,0.7037391,0.71246415,-0.16618113,-2.466618,1.7325182
1747672410.4839013,0.30232593,0.7037391,0.71246415,-0.16618113,-2.466618,1.7325182
1747672410.4846778,0.30232593,0.7037391,0.71246415,-0.16618113,-2.466618,1.7325182
1747672410.4855413,0.41849715,0.68714315,0.6514498,-0.16618113,-2.466618,1.7325182
1747672410.4870903,0.41849715,0.68714315,0.6514498,0.39627808,-2.903376,1.8656762
1747672410.4896433,0.41849715,0.68714315,0.6514498,0.39627808,-2.903376,1.8656762
1747672410.4904451,0.41849715,0.68714315,0.6514498,0.39627808,-2.903376,1.8656762
1747672410.4913142,0.41849715,0.68714315,0.6514498,0.39627808,-2.903376,1.8656762
1747672410.4921083,0.41849715,0.68714315,0.6514498,0.39627808,-2.903376,1.8656762
1747672410.493024,0.41849715,0.68714315,0.6514498,0.39627808,-2.903376,1.8656762
1747672410.4937973,0.41849715,0.68714315,0.6514498,0.39627808,-2.903376,1.8656762
1747672410.4947438,0.41849715,0.68714315,0.6514498,0.39627808,-2.903376,1.8656762
1747672410.4955313,0.41849715,0.68714315,0.6514498,0.39627808,-2.903376,1.8656762
1747672410.4964461,0.41849715,0.68714315,0.6514498,0.39627808,-2.903376,1.8656762
1747672410.4975033,0.41849715,0.68714315,0.6514498,0.39627808,-2.903376,1.8656762
1747672410.4985561,0.41849715,0.68714315,0.6514498,0.39627808,-2.903376,1.8656762
1747672410.4998884,0.6615782,0.7052034,0.38298684,0.7957519,-3.1515825,1.8560888
1747672410.500714,0.6615782,0.7052034,0.38298684,0.7957519,-3.1515825,1.8560888
1747672410.5017488,0.6615782,0.7052034,0.38298684,0.7957519,-3.1515825,1.8560888
1747672410.5037627,0.6615782,0.7052034,0.38298684,0.7957519,-3.1515825,1.8560888
1747672410.5046017,0.6615782,0.7052034,0.38298684,0.7957519,-3.1515825,1.8560888
1747672410.5053678,0.6615782,0.7052034,0.38298684,0.7957519,-3.1515825,1.8560888
1747672410.5061336,0.6615782,0.7052034,0.38298684,0.7957519,-3.1515825,1.8560888
1747672410.5068834,0.89148015,0.7491337,-0.0358154,0.8170572,-3.1079066,1.6654066
1747672410.5076315,0.89148015,0.7491337,-0.0358154,0.8170572,-3.1079066,1.6654066
1747672410.5083804,0.89148015,0.7491337,-0.0358154,0.8170572,-3.1079066,1.6654066
1747672410.5091338,0.89148015,0.7491337,-0.0358154,0.8170572,-3.1079066,1.6654066
1747672410.5098696,0.89148015,0.7491337,-0.0358154,0.8170572,-3.1079066,1.6654066
1747672410.5105853,0.89148015,0.7491337,-0.0358154,0.8170572,-3.1079066,1.6654066
1747672410.5113163,0.89148015,0.7491337,-0.0358154,0.8170572,-3.1079066,1.6654066
1747672410.5120435,0.89148015,0.7491337,-0.0358154,0.8170572,-3.1079066,1.6654066
1747672410.5128045,0.89148015,0.7491337,-0.0358154,0.8170572,-3.1079066,1.6654066
1747672410.5135572,0.89148015,0.7491337,-0.0358154,0.8170572,-3.1079066,1.6654066
1747672410.5142925,0.89148015,0.7491337,-0.0358154,0.8170572,-3.1079066,1.6654066
1747672410.5150263,0.89148015,0.7491337,-0.0358154,0.40480018,-2.716955,1.3458275
1747672410.515771,1.0818448,0.78720665,-0.38823408,0.40480018,-2.716955,1.3458275
1747672410.5165138,1.0818448,0.78720665,-0.38823408,0.40480018,-2.716955,1.3458275
1747672410.517288,1.0818448,0.78720665,-0.38823408,0.40480018,-2.716955,1.3458275
1747672410.5181296,1.0818448,0.78720665,-0.38823408,0.40480018,-2.716955,1.3458275
1747672410.5189147,1.0818448,0.78720665,-0.38823408,0.40480018,-2.716955,1.3458275
1747672410.5206392,1.0818448,0.78720665,-0.38823408,0.40480018,-2.716955,1.3458275
1747672410.5224447,1.0818448,0.78720665,-0.38823408,0.40480018,-2.716955,1.3458275
1747672410.523258,1.0818448,0.78720665,-0.38823408,0.40480018,-2.716955,1.3458275
1747672410.5240428,1.0818448,0.78720665,-0.38823408,0.40480018,-2.716955,1.3458275
1747672410.524835,1.0818448,0.78720665,-0.38823408,0.40480018,-2.716955,1.3458275
1747672410.5256119,1.0818448,0.78720665,-0.38823408,0.40480018,-2.716955,1.3458275
1747672410.5266335,1.0818448,0.78720665,-0.38823408,0.40480018,-2.716955,1.3458275
1747672410.5284667,1.1960635,0.79745704,-0.57371753,-0.34408015,-2.0330555,0.9591367
1747672410.5296688,1.1960635,0.79745704,-0.57371753,-0.34408015,-2.0330555,0.9591367
1747672410.5319755,1.1960635,0.79745704,-0.57371753,-0.34408015,-2.0330555,0.9591367
1747672410.5359466,1.1960635,0.79745704,-0.57371753,-0.34408015,-2.0330555,0.9591367
1747672410.5373957,1.1960635,0.79745704,-0.57371753,-0.34408015,-2.0330555,0.9591367
1747672410.538431,1.1960635,0.79745704,-0.57371753,-1.042893,-1.4386386,0.63742715
1747672410.5393853,1.172146,0.7911115,-0.5502881,-1.042893,-1.4386386,0.63742715
1747672410.5403435,1.172146,0.7911115,-0.5502881,-1.042893,-1.4386386,0.63742715
1747672410.5413105,1.172146,0.7911115,-0.5502881,-1.042893,-1.4386386,0.63742715
1747672410.542238,1.172146,0.7911115,-0.5502881,-1.042893,-1.4386386,0.63742715
1747672410.5432248,1.172146,0.7911115,-0.5502881,-1.042893,-1.4386386,0.63742715
1747672410.544206,1.172146,0.7911115,-0.5502881,-1.042893,-1.4386386,0.63742715
1747672410.5447273,1.172146,0.7911115,-0.5502881,-1.042893,-1.4386386,0.63742715
1747672410.5455663,1.172146,0.7911115,-0.5502881,-1.042893,-1.4386386,0.63742715
1747672410.5474713,1.172146,0.7911115,-0.5502881,-1.042893,-1.4386386,0.63742715
1747672410.5505414,1.0252235,0.78086114,-0.298421,-1.042893,-1.4386386,0.63742715
1747672410.5513651,1.0252235,0.78086114,-0.298421,-1.042893,-1.4386386,0.63742715
1747672410.5521674,1.0252235,0.78086114,-0.298421,-1.8258619,-0.8378298,0.3306312
1747672410.5529358,1.0252235,0.78086114,-0.298421,-1.8258619,-0.8378298,0.3306312
1747672410.5536485,1.0252235,0.78086114,-0.298421,-1.8258619,-0.8378298,0.3306312
1747672410.5544348,1.0252235,0.78086114,-0.298421,-1.8258619,-0.8378298,0.3306312
1747672410.5552118,1.0252235,0.78086114,-0.298421,-1.8258619,-0.8378298,0.3306312
1747672410.55601,1.0252235,0.78086114,-0.298421,-1.8258619,-0.8378298,0.3306312
1747672410.5567496,1.0252235,0.78086114,-0.298421,-1.8258619,-0.8378298,0.3306312
1747672410.557496,1.0252235,0.78086114,-0.298421,-1.8258619,-0.8378298,0.3306312
1747672410.5582492,1.0252235,0.78086114,-0.298421,-1.8258619,-0.8378298,0.3306312
1747672410.5589895,1.0252235,0.78086114,-0.298421,-1.8258619,-0.8378298,0.3306312
1747672410.5597262,1.0252235,0.78086114,-0.298421,-2.314818,-0.4053328,0.15379743
1747672410.5604715,0.8036195,0.7423001,0.23264758,-2.314818,-0.4053328,0.15379743
1747672410.5612254,0.8036195,0.7423001,0.23264758,-2.314818,-0.4053328,0.15379743
1747672410.5619695,0.8036195,0.7423001,0.23264758,-2.314818,-0.4053328,0.15379743
1747672410.5626578,0.8036195,0.7423001,0.23264758,-2.314818,-0.4053328,0.15379743
1747672410.5632107,0.8036195,0.7423001,0.23264758,-2.314818,-0.4053328,0.15379743
1747672410.563761,0.8036195,0.7423001,0.23264758,-2.314818,-0.4053328,0.15379743
1747672410.5643065,0.8036195,0.7423001,0.23264758,-2.314818,-0.4053328,0.15379743
1747672410.564857,0.8036195,0.7423001,0.23264758,-2.314818,-0.4053328,0.15379743
1747672410.570496,0.8036195,0.7423001,0.23264758,-2.314818,-0.4053328,0.15379743
1747672410.5730138,0.8036195,0.7423001,0.23264758,-2.314818,-0.4053328,0.15379743
1747672410.5742438,0.8036195,0.7423001,0.23264758,-2.314818,-0.4053328,0.15379743
1747672410.5751548,0.6615782,0.72668046,0.69684446,-2.2519674,-0.3765707,0.17084165
1747672410.5762255,0.6615782,0.72668046,0.69684446,-2.2519674,-0.3765707,0.17084165
1747672410.5773408,0.6615782,0.72668046,0.69684446,-1.7757945,-0.59814554,0.2837596
1747672410.5780847,0.61325485,0.74474066,1.0712283,-1.7757945,-0.59814554,0.2837596
1747672410.5791767,0.61325485,0.74474066,1.0712283,-1.7757945,-0.59814554,0.2837596
1747672410.580512,0.61325485,0.74474066,1.0712283,-1.7757945,-0.59814554,0.2837596
1747672410.581687,0.61325485,0.74474066,1.0712283,-1.7757945,-0.59814554,0.2837596
1747672410.582934,0.61325485,0.74474066,1.0712283,-1.7757945,-0.59814554,0.2837596
1747672410.5834496,0.61325485,0.74474066,1.0712283,-1.7757945,-0.59814554,0.2837596
1747672410.58425,0.61325485,0.74474066,1.0712283,-1.7757945,-0.59814554,0.2837596
1747672410.5850618,0.61325485,0.74474066,1.0712283,-1.7757945,-0.59814554,0.2837596
1747672410.5856194,0.61325485,0.74474066,1.0712283,-1.7757945,-0.59814554,0.2837596
1747672410.5862653,0.61325485,0.74474066,1.0712283,-1.7757945,-0.59814554,0.2837596
1747672410.5872643,0.68110275,0.73058534,1.2093647,-1.0418278,-0.927312,0.42224386
1747672410.587802,0.68110275,0.73058534,1.2093647,-1.0418278,-0.927312,0.42224386
1747672410.5883427,0.68110275,0.73058534,1.2093647,-1.0418278,-0.927312,0.42224386
1747672410.5894604,0.68110275,0.73058534,1.2093647,-1.0418278,-0.927312,0.42224386
1747672410.5900116,0.68110275,0.73058534,1.2093647,-1.0418278,-0.927312,0.42224386
1747672410.590581,0.68110275,0.73058534,1.2093647,-1.0418278,-0.927312,0.42224386
1747672410.591114,0.68110275,0.73058534,1.2093647,-1.0418278,-0.927312,0.42224386
1747672410.5916367,0.68110275,0.73058534,1.2093647,-1.0418278,-0.927312,0.42224386
1747672410.592159,0.68110275,0.73058534,1.2093647,-1.0418278,-0.927312,0.42224386
1747672410.592692,0.68110275,0.73058534,1.2093647,-1.0418278,-0.927312,0.42224386
1747672410.5932715,0.68110275,0.73058534,1.2093647,-1.0418278,-0.927312,0.42224386
1747672410.5940008,0.68110275,0.73058534,1.2093647,-1.0418278,-0.927312,0.42224386
1747672410.594369,0.68110275,0.73058534,1.2093647,-1.0418278,-0.927312,0.42224386
1747672410.5954413,0.68110275,0.73058534,1.2093647,-1.0418278,-0.927312,0.42224386
1747672410.5965078,0.80752444,0.69739354,1.0961221,-0.2897517,-1.2628701,0.48189864
1747672410.5970428,0.80752444,0.69739354,1.0961221,-0.2897517,-1.2628701,0.48189864
1747672410.5976198,0.80752444,0.69739354,1.0961221,-0.2897517,-1.2628701,0.48189864
1747672410.5981278,0.80752444,0.69739354,1.0961221,-0.2897517,-1.2628701,0.48189864
1747672410.5986648,0.80752444,0.69739354,1.0961221,-0.2897517,-1.2628701,0.48189864
1747672410.5992181,0.80752444,0.69739354,1.0961221,-0.2897517,-1.2628701,0.48189864
1747672410.5999765,0.80752444,0.69739354,1.0961221,-0.2897517,-1.2628701,0.48189864
1747672410.6007264,0.80752444,0.69739354,1.0961221,-0.2897517,-1.2628701,0.48189864
1747672410.6014676,0.80752444,0.69739354,1.0961221,-0.2897517,-1.2628701,0.48189864
1747672410.6021962,0.80752444,0.69739354,1.0961221,-0.2897517,-1.2628701,0.48189864
1747672410.602925,0.80752444,0.69739354,1.0961221,-0.2897517,-1.2628701,0.48189864
1747672410.6036549,0.80752444,0.69739354,1.0961221,-0.2897517,-1.2628701,0.48189864
1747672410.6042027,0.80752444,0.69739354,1.0961221,-0.2897517,-1.2628701,0.48189864
1747672410.6047688,0.80752444,0.69739354,1.0961221,-0.2897517,-1.2628701,0.48189864
1747672410.6053085,0.80752444,0.69739354,1.0961221,-0.2897517,-1.2628701,0.48189864
1747672410.6058526,0.80752444,0.69739354,1.0961221,-0.2897517,-1.2628701,0.48189864
1747672410.606451,0.86414576,0.703251,0.8037415,-0.2897517,-1.2628701,0.48189864
1747672410.606998,0.86414576,0.703251,0.8037415,-0.2897517,-1.2628701,0.48189864
1747672410.6075454,0.86414576,0.703251,0.8037415,-0.2897517,-1.2628701,0.48189864
1747672410.6080897,0.86414576,0.703251,0.8037415,-0.2897517,-1.2628701,0.48189864
1747672410.6086426,0.86414576,0.703251,0.8037415,-0.2897517,-1.2628701,0.48189864
1747672410.6092007,0.86414576,0.703251,0.8037415,-0.2897517,-1.2628701,0.48189864
1747672410.6097403,0.86414576,0.703251,0.8037415,-0.2897517,-1.2628701,0.48189864
1747672410.610294,0.86414576,0.703251,0.8037415,-0.2897517,-1.2628701,0.48189864
1747672410.6108503,0.86414576,0.703251,0.8037415,-0.2897517,-1.2628701,0.48189864
1747672410.611388,0.86414576,0.703251,0.8037415,-0.2897517,-1.2628701,0.48189864
1747672410.6120763,0.86414576,0.703251,0.8037415,-0.2897517,-1.2628701,0.48189864
1747672410.6126208,0.86414576,0.703251,0.8037415,-0.2897517,-1.2628701,0.48189864
1747672410.6131604,0.86414576,0.703251,0.8037415,-0.2897517,-1.2628701,0.48189864
1747672410.6154444,0.86414576,0.703251,0.8037415,-0.2897517,-1.2628701,0.48189864
1747672410.6159885,0.86414576,0.703251,0.8037415,-0.2897517,-1.2628701,0.48189864
1747672410.6165364,0.86414576,0.703251,0.8037415,-0.2897517,-1.2628701,0.48189864
1747672410.6170714,0.86414576,0.703251,0.8037415,-0.2897517,-1.2628701,0.48189864
1747672410.618149,0.94517267,0.7491337,0.4893958,0.53795815,-1.5728618,0.4211786
1747672410.618695,0.94517267,0.7491337,0.4893958,0.53795815,-1.5728618,0.4211786
1747672410.6192317,0.94517267,0.7491337,0.4893958,0.53795815,-1.5728618,0.4211786
1747672410.619777,0.94517267,0.7491337,0.4893958,0.53795815,-1.5728618,0.4211786
1747672410.620318,0.94517267,0.7491337,0.4893958,0.53795815,-1.5728618,0.4211786
1747672410.620854,0.94517267,0.7491337,0.4893958,0.53795815,-1.5728618,0.4211786
1747672410.6214285,0.94517267,0.7491337,0.4893958,0.53795815,-1.5728618,0.4211786
1747672410.6219354,0.94517267,0.7491337,0.4893958,0.53795815,-1.5728618,0.4211786
1747672410.6224751,0.94517267,0.7491337,0.4893958,0.53795815,-1.5728618,0.4211786
1747672410.623014,0.94517267,0.7491337,0.4893958,0.53795815,-1.5728618,0.4211786
1747672410.6241908,0.94517267,0.7491337,0.4893958,0.53795815,-1.5728618,0.4211786
1747672410.624752,0.94517267,0.7491337,0.4893958,0.53795815,-1.5728618,0.4211786
1747672410.6252995,0.94517267,0.7491337,0.4893958,0.53795815,-1.5728618,0.4211786
1747672410.625848,0.94517267,0.7491337,0.4893958,0.53795815,-1.5728618,0.4211786
1747672410.6269271,0.94517267,0.7491337,0.4893958,0.5368929,-1.6186681,0.28908592
1747672410.6274712,0.94517267,0.7491337,0.4893958,0.5368929,-1.6186681,0.28908592
1747672410.6281738,0.94517267,0.7491337,0.4893958,0.5368929,-1.6186681,0.28908592
1747672410.6285741,0.94517267,0.7491337,0.4893958,0.5368929,-1.6186681,0.28908592
1747672410.6291206,0.94517267,0.7491337,0.4893958,0.5368929,-1.6186681,0.28908592
1747672410.629669,0.94517267,0.7491337,0.4893958,0.5368929,-1.6186681,0.28908592
1747672410.6302242,0.94517267,0.7491337,0.4893958,0.5368929,-1.6186681,0.28908592
1747672410.6307778,1.0340096,0.78867096,0.23069511,0.5368929,-1.6186681,0.28908592
1747672410.6313226,1.0340096,0.78867096,0.23069511,0.5368929,-1.6186681,0.28908592
1747672410.6319697,1.0340096,0.78867096,0.23069511,0.5368929,-1.6186681,0.28908592
1747672410.632513,1.0340096,0.78867096,0.23069511,0.5368929,-1.6186681,0.28908592
1747672410.6330574,1.0340096,0.78867096,0.23069511,0.5368929,-1.6186681,0.28908592
1747672410.6336124,1.0340096,0.78867096,0.23069511,0.5368929,-1.6186681,0.28908592
1747672410.6341617,1.0340096,0.78867096,0.23069511,0.5368929,-1.6186681,0.28908592
1747672410.634742,1.0340096,0.78867096,0.23069511,0.5368929,-1.6186681,0.28908592
1747672410.6352677,1.0340096,0.78867096,0.23069511,0.5368929,-1.6186681,0.28908592
1747672410.6357963,1.0340096,0.78867096,0.23069511,0.5368929,-1.6186681,0.28908592
1747672410.6363153,1.0613439,0.81014806,0.08767757,0.5368929,-1.6186681,0.28908592
1747672410.6368585,1.0613439,0.81014806,0.08767757,0.5368929,-1.6186681,0.28908592
1747672410.6373985,1.0613439,0.81014806,0.08767757,0.5368929,-1.6186681,0.28908592
1747672410.6379433,1.0613439,0.81014806,0.08767757,0.4218444,-1.5504912,0.1782985
1747672410.6385229,1.0613439,0.81014806,0.08767757,0.4218444,-1.5504912,0.1782985
1747672410.639384,1.0613439,0.81014806,0.08767757,0.4218444,-1.5504912,0.1782985
1747672410.641416,1.0613439,0.81014806,0.08767757,0.4218444,-1.5504912,0.1782985
1747672410.642428,1.0613439,0.81014806,0.08767757,0.4218444,-1.5504912,0.1782985
1747672410.6430254,1.0613439,0.81014806,0.08767757,0.4218444,-1.5504912,0.1782985
1747672410.6441822,1.0613439,0.81014806,0.08767757,0.4218444,-1.5504912,0.1782985
1747672410.6447115,1.0613439,0.81014806,0.08767757,0.4218444,-1.5504912,0.1782985
1747672410.6453116,1.0613439,0.81014806,0.08767757,0.4218444,-1.5504912,0.1782985
1747672410.645857,1.0613439,0.81014806,0.08767757,0.4218444,-1.5504912,0.1782985
1747672410.6464138,1.086726,0.85603076,-0.11391372,0.4218444,-1.5504912,0.1782985
1747672410.6469667,1.086726,0.85603076,-0.11391372,0.4218444,-1.5504912,0.1782985
1747672410.6475136,1.086726,0.85603076,-0.11391372,-0.042610545,-1.1446258,-0.045406863
1747672410.648059,1.086726,0.85603076,-0.11391372,-0.042610545,-1.1446258,-0.045406863
1747672410.6485946,1.086726,0.85603076,-0.11391372,-0.042610545,-1.1446258,-0.045406863
1747672410.649155,1.086726,0.85603076,-0.11391372,-0.042610545,-1.1446258,-0.045406863
1747672410.6496885,1.086726,0.85603076,-0.11391372,-0.042610545,-1.1446258,-0.045406863
1747672410.650249,1.086726,0.85603076,-0.11391372,-0.042610545,-1.1446258,-0.045406863
1747672410.6507723,1.086726,0.85603076,-0.11391372,-0.042610545,-1.1446258,-0.045406863
1747672410.6513057,1.086726,0.85603076,-0.11391372,-0.042610545,-1.1446258,-0.045406863
1747672410.6518402,1.086726,0.85603076,-0.11391372,-0.042610545,-1.1446258,-0.045406863
1747672410.6523747,1.086726,0.85603076,-0.11391372,-0.042610545,-1.1446258,-0.045406863
1747672410.6529093,1.086726,0.85603076,-0.11391372,-0.042610545,-1.1446258,-0.045406863
1747672410.6534472,1.086726,0.85603076,-0.11391372,-0.042610545,-1.1446258,-0.045406863
1747672410.6539955,1.086726,0.85603076,-0.11391372,-0.042610545,-1.1446258,-0.045406863
1747672410.6545532,1.086726,0.85603076,-0.11391372,-0.042610545,-1.1446258,-0.045406863
1747672410.655103,1.086726,0.85603076,-0.11391372,-0.042610545,-1.1446258,-0.045406863
1747672410.655648,1.086726,0.85603076,-0.11391372,-0.042610545,-1.1446258,-0.045406863
1747672410.6561894,1.086726,0.85603076,-0.11391372,-0.042610545,-1.1446258,-0.045406863
1747672410.6567235,1.086726,0.85603076,-0.11391372,-0.042610545,-1.1446258,-0.045406863
1747672410.657267,1.086726,0.85603076,-0.11391372,-0.042610545,-1.1446258,-0.045406863
1747672410.6578112,1.086726,0.85603076,-0.11391372,-0.042610545,-1.1446258,-0.045406863
1747672410.6583667,1.086726,0.85603076,-0.11391372,-0.042610545,-1.1446258,-0.045406863
1747672410.6598458,1.086726,0.85603076,-0.11391372,-0.042610545,-1.1446258,-0.045406863
1747672410.6612058,1.0330333,0.8682336,-0.12416413,-0.646615,-0.54488236,-0.24993747
1747672410.66204,1.0330333,0.8682336,-0.12416413,-0.646615,-0.54488236,-0.24993747
1747672410.662579,1.0330333,0.8682336,-0.12416413,-0.646615,-0.54488236,-0.24993747
1747672410.6636174,1.0330333,0.8682336,-0.12416413,-0.646615,-0.54488236,-0.24993747
1747672410.6648347,1.0330333,0.8682336,-0.12416413,-0.646615,-0.54488236,-0.24993747
1747672410.66559,1.0330333,0.8682336,-0.12416413,-0.646615,-0.54488236,-0.24993747
1747672410.6666095,1.0330333,0.8682336,-0.12416413,-0.646615,-0.54488236,-0.24993747
1747672410.6675963,1.0330333,0.8682336,-0.12416413,-0.646615,-0.54488236,-0.24993747
1747672410.668591,1.0330333,0.8682336,-0.12416413,-0.646615,-0.54488236,-0.24993747
1747672410.6699407,1.0330333,0.8682336,-0.12416413,-0.646615,-0.54488236,-0.24993747
1747672410.6715963,0.9388272,0.8511496,0.018365309,-1.0652636,-0.08894952,-0.35965964
1747672410.672597,0.9388272,0.8511496,0.018365309,-1.0652636,-0.08894952,-0.35965964
1747672410.6736102,0.9388272,0.8511496,0.018365309,-1.0652636,-0.08894952,-0.35965964
1747672410.6746817,0.9388272,0.8511496,0.018365309,-1.0652636,-0.08894952,-0.35965964
1747672410.675775,0.9388272,0.8511496,0.018365309,-1.0652636,-0.08894952,-0.35965964
1747672410.676599,0.9388272,0.8511496,0.018365309,-1.0652636,-0.08894952,-0.35965964
1747672410.6777189,0.9388272,0.8511496,0.018365309,-1.0652636,-0.08894952,-0.35965964
1747672410.67859,0.9388272,0.8511496,0.018365309,-1.0652636,-0.08894952,-0.35965964
1747672410.6795866,0.9388272,0.8511496,0.018365309,-1.0652636,-0.08894952,-0.35965964
1747672410.6806436,0.9388272,0.8511496,0.018365309,-1.0652636,-0.08894952,-0.35965964
1747672410.681599,0.9388272,0.8511496,0.018365309,-1.0652636,-0.08894952,-0.35965964
1747672410.6825912,0.9388272,0.8511496,0.018365309,-1.0652636,-0.08894952,-0.35965964
1747672410.6835928,0.85438335,0.83064884,0.21849224,-1.2793816,0.17630114,-0.41505334
1747672410.684604,0.85438335,0.83064884,0.21849224,-1.2793816,0.17630114,-0.41505334
1747672410.6859028,0.85438335,0.83064884,0.21849224,-1.2793816,0.17630114,-0.41505334
1747672410.6865973,0.85438335,0.83064884,0.21849224,-1.2793816,0.17630114,-0.41505334
1747672410.6887584,0.79922646,0.81405294,0.38933232,-1.2910995,0.26897907,-0.43316284
1747672410.6895916,0.79922646,0.81405294,0.38933232,-1.2910995,0.26897907,-0.43316284
1747672410.6905966,0.79922646,0.81405294,0.38933232,-1.2910995,0.26897907,-0.43316284
1747672410.6919062,0.79922646,0.81405294,0.38933232,-1.2910995,0.26897907,-0.43316284
1747672410.6926107,0.79922646,0.81405294,0.38933232,-1.2910995,0.26897907,-0.43316284
1747672410.6936011,0.79922646,0.81405294,0.38933232,-1.2910995,0.26897907,-0.43316284
1747672410.6945968,0.76408225,0.7994095,0.50452733,-1.2910995,0.26897907,-0.43316284
1747672410.6955955,0.76408225,0.7994095,0.50452733,-1.1504847,0.27217487,-0.43635863
1747672410.6965885,0.76408225,0.7994095,0.50452733,-1.1504847,0.27217487,-0.43635863
1747672410.6976004,0.76408225,0.7994095,0.50452733,-1.1504847,0.27217487,-0.43635863
1747672410.6985872,0.76408225,0.7994095,0.50452733,-1.1504847,0.27217487,-0.43635863
1747672410.699583,0.76408225,0.7994095,0.50452733,-1.1504847,0.27217487,-0.43635863
1747672410.7005947,0.76408225,0.7994095,0.50452733,-1.1504847,0.27217487,-0.43635863
1747672410.7016194,0.76408225,0.7994095,0.50452733,-1.1504847,0.27217487,-0.43635863
1747672410.7025955,0.76408225,0.7994095,0.50452733,-1.1504847,0.27217487,-0.43635863
1747672410.7035997,0.76408225,0.7994095,0.50452733,-1.1504847,0.27217487,-0.43635863
1747672410.7045984,0.76408225,0.7994095,0.50452733,-1.1504847,0.27217487,-0.43635863
1747672410.705608,0.76408225,0.7994095,0.50452733,-0.92784464,0.19867167,-0.41718388
1747672410.7066,0.73186666,0.76963454,0.5645654,-0.92784464,0.19867167,-0.41718388
1747672410.7083433,0.73186666,0.76963454,0.5645654,-0.92784464,0.19867167,-0.41718388
1747672410.7091768,0.73186666,0.76963454,0.5645654,-0.92784464,0.19867167,-0.41718388
1747672410.7102165,0.73186666,0.76963454,0.5645654,-0.92784464,0.19867167,-0.41718388
1747672410.7246807,0.70697284,0.7564555,0.5406478,-0.6924214,0.095341094,-0.3777691
1747672410.7319732,0.68793637,0.7681702,0.4430249,-0.6924214,0.095341094,-0.3777691
1747672410.7383804,0.68793637,0.7681702,0.4430249,-0.5155876,0.063383184,-0.32024488
1747672410.7418368,0.6664593,0.79501647,0.3483307,-0.45912862,0.09001478,-0.252068
1747672410.7426615,0.6664593,0.79501647,0.3483307,-0.45912862,0.09001478,-0.252068
1747672410.743509,0.6664593,0.79501647,0.3483307,-0.45912862,0.09001478,-0.252068
1747672410.7442977,0.6664593,0.79501647,0.3483307,-0.45912862,0.09001478,-0.252068
1747672410.7448187,0.6664593,0.79501647,0.3483307,-0.45912862,0.09001478,-0.252068
1747672410.745538,0.6664593,0.79501647,0.3483307,-0.45912862,0.09001478,-0.252068
1747672410.7462423,0.6664593,0.79501647,0.3483307,-0.45912862,0.09001478,-0.252068
1747672410.7469335,0.6664593,0.79501647,0.3483307,-0.45912862,0.09001478,-0.252068
1747672410.7476554,0.66499496,0.82967263,0.2946381,-0.45912862,0.09001478,-0.252068
1747672410.7483778,0.66499496,0.82967263,0.2946381,-0.4665855,0.14647375,-0.16791219
1747672410.7490938,0.66499496,0.82967263,0.2946381,-0.4665855,0.14647375,-0.16791219
1747672410.7498572,0.66499496,0.82967263,0.2946381,-0.4665855,0.14647375,-0.16791219
1747672410.7505932,0.66499496,0.82967263,0.2946381,-0.4665855,0.14647375,-0.16791219
1747672410.7513525,0.66499496,0.82967263,0.2946381,-0.4665855,0.14647375,-0.16791219
1747672410.7521703,0.66499496,0.82967263,0.2946381,-0.4665855,0.14647375,-0.16791219
1747672410.7529593,0.66499496,0.82967263,0.2946381,-0.4665855,0.14647375,-0.16791219
1747672410.7537942,0.66499496,0.82967263,0.2946381,-0.4665855,0.14647375,-0.16791219
1747672410.7585769,0.74846256,0.8574951,0.28536394,-0.525175,0.28815383,-0.04114581
1747672410.7725422,0.9056354,0.8628644,0.32978237,-0.56672025,0.3968107,-0.0038615807
1747672410.774258,0.9056354,0.8628644,0.32978237,-0.56672025,0.3968107,-0.0038615807
1747672410.7778966,0.9056354,0.8628644,0.32978237,-0.56672025,0.3968107,-0.0038615807
1747672410.7802093,0.9056354,0.8628644,0.32978237,-0.56672025,0.3968107,-0.0038615807
1747672410.7810335,0.9056354,0.8628644,0.32978237,-0.56672025,0.3968107,-0.0038615807
1747672410.7822678,0.9056354,0.8628644,0.32978237,-0.56672025,0.3968107,-0.0038615807
1747672410.783249,0.9056354,0.8628644,0.32978237,-0.56672025,0.3968107,-0.0038615807
1747672410.7846067,1.0291284,0.86628115,0.35858113,-0.57524234,0.5320992,-0.08908267
1747672410.7854383,1.0291284,0.86628115,0.35858113,-0.5741771,0.65140873,-0.2233059
1747672410.786433,1.0291284,0.86628115,0.35858113,-0.5741771,0.65140873,-0.2233059
1747672410.787504,1.0291284,0.86628115,0.35858113,-0.5741771,0.65140873,-0.2233059
1747672410.7882996,1.0291284,0.86628115,0.35858113,-0.5741771,0.65140873,-0.2233059
1747672410.7891898,1.0291284,0.86628115,0.35858113,-0.5741771,0.65140873,-0.2233059
1747672410.7900105,1.0291284,0.86628115,0.35858113,-0.5741771,0.65140873,-0.2233059
1747672410.790854,1.0291284,0.86628115,0.35858113,-0.5741771,0.65140873,-0.2233059
1747672410.7916074,1.0291284,0.86628115,0.35858113,-0.5741771,0.65140873,-0.2233059
1747672410.7923746,1.0291284,0.86628115,0.35858113,-0.5741771,0.65140873,-0.2233059
1747672410.793208,1.0291284,0.86628115,0.35858113,-0.5741771,0.65140873,-0.2233059
1747672410.7941127,1.0291284,0.86628115,0.35858113,-0.5741771,0.65140873,-0.2233059
1747672410.7948828,0.9949604,0.8682336,0.37566513,-0.5635245,0.7781751,-0.3724428
1747672410.7957218,0.9949604,0.8682336,0.37566513,-0.5635245,0.7781751,-0.3724428
1747672410.7965152,0.9949604,0.8682336,0.37566513,-0.5635245,0.7781751,-0.3724428
1747672410.7972572,0.9949604,0.8682336,0.37566513,-0.5635245,0.7781751,-0.3724428
1747672410.7980196,0.9949604,0.8682336,0.37566513,-0.5635245,0.7781751,-0.3724428
1747672410.79877,0.9949604,0.8682336,0.37566513,-0.5635245,0.7781751,-0.3724428
1747672410.7995436,0.9949604,0.8682336,0.37566513,-0.5635245,0.7781751,-0.3724428
1747672410.8018582,0.9949604,0.8682336,0.37566513,-0.5635245,0.7781751,-0.3724428
1747672410.809917,0.8963613,0.8535902,0.38689175,-0.52943605,0.92518145,-0.49388286
1747672410.8114173,0.8963613,0.8535902,0.38689175,-0.52943605,0.92518145,-0.49388286
1747672410.8122756,0.8963613,0.8535902,0.38689175,-0.52943605,0.92518145,-0.49388286
1747672410.8169267,0.8963613,0.8535902,0.38689175,-0.52943605,0.92518145,-0.49388286
1747672410.8186069,0.8963613,0.8535902,0.38689175,-0.52943605,0.92518145,-0.49388286
1747672410.8198633,0.8963613,0.8535902,0.38689175,-0.52943605,0.92518145,-0.49388286
1747672410.8207858,0.8963613,0.8535902,0.38689175,-0.52943605,0.92518145,-0.49388286
1747672410.8220575,0.8963613,0.8535902,0.38689175,-0.52943605,0.92518145,-0.49388286
1747672410.82304,0.8963613,0.8535902,0.38689175,-0.52943605,0.92518145,-0.49388286
1747672410.823913,0.8963613,0.8535902,0.38689175,-0.52943605,0.92518145,-0.49388286
1747672410.8250966,0.8963613,0.8535902,0.38689175,-0.48789075,1.0423604,-0.5396892
1747672410.8263335,0.8963613,0.8535902,0.38689175,-0.48789075,1.0423604,-0.5396892
1747672410.8282256,0.8963613,0.8535902,0.38689175,-0.48789075,1.0423604,-0.5396892
1747672410.8291166,0.8963613,0.8535902,0.38689175,-0.48789075,1.0423604,-0.5396892
1747672410.830552,0.8963613,0.8535902,0.38689175,-0.48789075,1.0423604,-0.5396892
1747672410.8313484,0.8963613,0.8535902,0.38689175,-0.48789075,1.0423604,-0.5396892
1747672410.8322392,0.8963613,0.8535902,0.38689175,-0.48789075,1.0423604,-0.5396892
1747672410.8330522,0.8963613,0.8535902,0.38689175,-0.48789075,1.0423604,-0.5396892
1747672410.8338847,0.8963613,0.8535902,0.38689175,-0.48789075,1.0423604,-0.5396892
1747672410.8347125,0.63522,0.88580585,0.3824987,-0.4399539,1.105211,-0.5130576
1747672410.8355381,0.571277,0.8833653,0.38933232,-0.37390754,1.1062763,-0.42464072
1747672410.836363,0.571277,0.8833653,0.38933232,-0.37390754,1.1062763,-0.42464072
1747672410.837187,0.571277,0.8833653,0.38933232,-0.37390754,1.1062763,-0.42464072
1747672410.8379865,0.571277,0.8833653,0.38933232,-0.37390754,1.1062763,-0.42464072
1747672410.8389726,0.571277,0.8833653,0.38933232,-0.37390754,1.1062763,-0.42464072
1747672410.8415022,0.571277,0.8833653,0.38933232,-0.37390754,1.1062763,-0.42464072
1747672410.844095,0.571277,0.8833653,0.38933232,-0.37390754,1.1062763,-0.42464072
1747672410.845592,0.5776225,0.8682336,0.3883561,-0.30892646,1.0551436,-0.32237542
1747672410.847181,0.5776225,0.8682336,0.3883561,-0.30892646,1.0551436,-0.32237542
1747672410.8480482,0.5776225,0.8682336,0.3883561,-0.30892646,1.0551436,-0.32237542
1747672410.8489063,0.5776225,0.8682336,0.3883561,-0.30892646,1.0551436,-0.32237542
1747672410.8810885,0.6176479,0.8614,0.39274913,-0.26738116,1.0210552,-0.2573943
1747672410.8829396,0.7225925,0.8887345,0.45571586,-0.18216008,0.9305078,-0.21904483
1747672410.8845515,0.7225925,0.8887345,0.45571586,-0.18216008,0.9305078,-0.21904483
1747672410.8858721,0.7225925,0.8887345,0.45571586,-0.18216008,0.9305078,-0.21904483
1747672410.8871315,0.7113659,0.9287599,0.515754,-0.08948214,0.7888277,-0.24035011
1747672410.8880987,0.7113659,0.9287599,0.515754,-0.08948214,0.7888277,-0.24035011
1747672410.8889356,0.7113659,0.9287599,0.515754,-0.08948214,0.7888277,-0.24035011
1747672410.8897557,0.7113659,0.9287599,0.515754,-0.08948214,0.7888277,-0.24035011
1747672410.8905704,0.7113659,0.9287599,0.515754,-0.08948214,0.7888277,-0.24035011
1747672410.8913713,0.7113659,0.9287599,0.515754,-0.08948214,0.7888277,-0.24035011
1747672410.8921444,0.7113659,0.9287599,0.515754,-0.08948214,0.7888277,-0.24035011
1747672410.893281,0.7113659,0.9287599,0.515754,-0.08948214,0.7888277,-0.24035011
1747672410.8942223,0.7113659,0.9287599,0.515754,-0.08948214,0.7888277,-0.24035011
1747672410.8953185,0.7113659,0.9287599,0.515754,-0.08948214,0.7888277,-0.24035011
1747672410.9138365,0.7367478,0.94877255,0.55236256,0.027696855,0.692954,-0.25419855
1747672410.91824,0.7367478,0.94877255,0.55236256,0.027696855,0.692954,-0.25419855
1747672410.9192457,0.72454494,0.99172664,0.5220995,0.19813904,0.7281077,-0.3522028
1747672410.9200852,0.72454494,0.99172664,0.5220995,0.19813904,0.7281077,-0.3522028
1747672410.921014,0.72454494,0.99172664,0.5220995,0.19813904,0.7281077,-0.3522028
1747672410.921832,0.72454494,0.99172664,0.5220995,0.19813904,0.7281077,-0.3522028
1747672410.9227636,0.72454494,0.99172664,0.5220995,0.19813904,0.7281077,-0.3522028
1747672410.9240372,0.72454494,0.99172664,0.5220995,0.23755379,0.8602004,-0.36711648
1747672410.9248345,0.68159086,1.0034415,0.49866995,0.23755379,0.8602004,-0.36711648
1747672410.9256327,0.68159086,1.0034415,0.49866995,0.23755379,0.8602004,-0.36711648
1747672410.9264758,0.68159086,1.0034415,0.49866995,0.23755379,0.8602004,-0.36711648
1747672410.9274135,0.68159086,1.0034415,0.49866995,0.23755379,0.8602004,-0.36711648
1747672410.928308,0.68159086,1.0034415,0.49866995,0.23755379,0.8602004,-0.36711648
1747672410.9291408,0.68159086,1.0034415,0.49866995,0.23755379,0.8602004,-0.36711648
1747672410.9299278,0.68159086,1.0034415,0.49866995,0.23755379,0.8602004,-0.36711648
1747672410.9307523,0.68159086,1.0034415,0.49866995,0.23755379,0.8602004,-0.36711648
1747672410.931554,0.68159086,1.0034415,0.49866995,0.23755379,0.8602004,-0.36711648
1747672410.9323041,0.68159086,1.0034415,0.49866995,0.23755379,0.8602004,-0.36711648
1747672410.9330592,0.68159086,1.0034415,0.49866995,0.23755379,0.8602004,-0.36711648
1747672410.9339833,0.68159086,1.0034415,0.49866995,0.23755379,0.8602004,-0.36711648
1747672410.9347634,0.68159086,1.0034415,0.49866995,0.23755379,0.8602004,-0.36711648
1747672410.9355226,0.68159086,1.0034415,0.49866995,0.23755379,0.8602004,-0.36711648
1747672410.9363077,0.65572083,0.9956316,0.4757286,0.25140223,1.0572742,-0.3639207
1747672410.9370675,0.65572083,0.9956316,0.4757286,0.25140223,1.0572742,-0.3639207
1747672410.9379337,0.65572083,0.9956316,0.4757286,0.25140223,1.0572742,-0.3639207
1747672410.9387453,0.65572083,0.9956316,0.4757286,0.25140223,1.0572742,-0.3639207
1747672410.9395137,0.65572083,0.9956316,0.4757286,0.25140223,1.0572742,-0.3639207
1747672410.9402537,0.65572083,0.9956316,0.4757286,0.25140223,1.0572742,-0.3639207
1747672410.9410148,0.65572083,0.9956316,0.4757286,0.25140223,1.0572742,-0.3639207
1747672410.9417758,0.65572083,0.9956316,0.4757286,0.25140223,1.0572742,-0.3639207
1747672410.9425006,0.65572083,0.9956316,0.4757286,0.25140223,1.0572742,-0.3639207
1747672410.943268,0.65572083,0.9956316,0.4757286,0.25140223,1.0572742,-0.3639207
1747672410.944015,0.65572083,0.9956316,0.4757286,0.25140223,1.0572742,-0.3639207
1747672410.9447465,0.65572083,0.9956316,0.4757286,0.25140223,1.0572742,-0.3639207
1747672410.9452736,0.65572083,0.9956316,0.4757286,0.25140223,1.0572742,-0.3639207
1747672410.9460926,0.6405893,0.9824525,0.4801216,0.26525065,1.2096069,-0.35965964
1747672410.9470103,0.6405893,0.9824525,0.4801216,0.26525065,1.2096069,-0.35965964
1747672410.9478323,0.6405893,0.9824525,0.4801216,0.26525065,1.2096069,-0.35965964
1747672410.948654,0.6405893,0.9824525,0.4801216,0.26525065,1.2096069,-0.35965964
1747672410.9494693,0.6405893,0.9824525,0.4801216,0.26525065,1.2096069,-0.35965964
1747672410.9562368,0.6405893,0.9824525,0.4801216,0.26525065,1.2096069,-0.35965964
1747672410.9642537,0.6176479,0.9482844,0.5138015,0.31105697,1.2916322,-0.349007
1747672410.9651635,0.6176479,0.9482844,0.5138015,0.31105697,1.2916322,-0.349007
1747672410.9663563,0.6176479,0.9482844,0.5138015,0.31105697,1.2916322,-0.349007
1747672410.967338,0.6176479,0.9482844,0.5138015,0.31105697,1.2916322,-0.349007
1747672410.9682927,0.6176479,0.9482844,0.5138015,0.31105697,1.2916322,-0.349007
1747672410.970676,0.6176479,0.9482844,0.5138015,0.31105697,1.2916322,-0.349007
1747672410.971629,0.6176479,0.9482844,0.5138015,0.31105697,1.2916322,-0.349007
1747672410.972472,0.6176479,0.9482844,0.5138015,0.31105697,1.2916322,-0.349007
1747672410.9735494,0.6176479,0.9482844,0.5138015,0.31105697,1.2916322,-0.349007
1747672410.9745233,0.6176479,0.9482844,0.5138015,0.31105697,1.2916322,-0.349007
1747672410.9754708,0.6176479,0.9482844,0.5138015,0.31105697,1.2916322,-0.349007
1747672410.9767954,0.5727413,0.88629395,0.5079441,0.43143177,1.3523521,-0.328767
1747672410.9780602,0.5727413,0.88629395,0.5079441,0.43143177,1.3523521,-0.328767
1747672410.9792042,0.5727413,0.88629395,0.5079441,0.43143177,1.3523521,-0.328767
1747672410.9802885,0.5727413,0.88629395,0.5079441,0.43143177,1.3523521,-0.328767
1747672410.9822268,0.5727413,0.88629395,0.5079441,0.43143177,1.3523521,-0.328767
1747672410.9832058,0.5727413,0.88629395,0.5079441,0.43143177,1.3523521,-0.328767
1747672410.9840374,0.5727413,0.88629395,0.5079441,0.43143177,1.3523521,-0.328767
1747672410.9848185,0.5727413,0.88629395,0.5079441,0.43143177,1.3523521,-0.328767
1747672410.9855769,0.5727413,0.88629395,0.5079441,0.43143177,1.3523521,-0.328767
1747672410.9863982,0.5727413,0.88629395,0.5079441,0.43143177,1.3523521,-0.328767
1747672410.9871502,0.5727413,0.88629395,0.5079441,0.43143177,1.3523521,-0.328767
1747672410.9878926,0.5727413,0.88629395,0.5079441,0.43143177,1.3523521,-0.328767
1747672410.9886198,0.5727413,0.88629395,0.5079441,0.43143177,1.3523521,-0.328767
1747672410.9893773,0.5380852,0.8638406,0.50452733,0.5347623,1.2692616,-0.30320066
1747672410.992047,0.5380852,0.8638406,0.50452733,0.5347623,1.2692616,-0.30320066
1747672410.9934006,0.5380852,0.8638406,0.50452733,0.5347623,1.2692616,-0.30320066
1747672410.994469,0.5380852,0.8638406,0.50452733,0.5347623,1.2692616,-0.30320066
1747672410.9953358,0.5380852,0.8638406,0.50452733,0.5347623,1.2692616,-0.30320066
1747672410.9961443,0.5380852,0.8638406,0.50452733,0.5347623,1.2692616,-0.30320066
1747672410.9969938,0.5380852,0.8638406,0.50452733,0.5347623,1.2692616,-0.30320066
1747672410.9980257,0.5380852,0.8638406,0.50452733,0.5347623,1.2692616,-0.30320066
1747672410.9988346,0.50977457,0.84138733,0.44839418,0.59548235,1.1904321,-0.27763432
1747672410.999694,0.50977457,0.84138733,0.44839418,0.59548235,1.1904321,-0.27763432
1747672411.0005188,0.50977457,0.84138733,0.44839418,0.59548235,1.1904321,-0.27763432
1747672411.001362,0.50977457,0.84138733,0.44839418,0.59548235,1.1904321,-0.27763432
1747672411.0042691,0.50977457,0.84138733,0.44839418,0.59548235,1.1904321,-0.27763432
1747672411.0051854,0.50977457,0.84138733,0.44839418,0.59548235,1.1904321,-0.27763432
1747672411.0060525,0.50977457,0.84138733,0.44839418,0.59548235,1.1904321,-0.27763432
1747672411.007136,0.50050044,0.8252796,0.4044639,0.5976129,1.1957585,-0.24993747
1747672411.0085492,0.50050044,0.8252796,0.4044639,0.5976129,1.1957585,-0.24993747
1747672411.011956,0.50050044,0.8252796,0.4044639,0.5976129,1.1957585,-0.24993747
1747672411.013639,0.50050044,0.8252796,0.4044639,0.5976129,1.1957585,-0.24993747
1747672411.0145366,0.50050044,0.8252796,0.4044639,0.5976129,1.1957585,-0.24993747
1747672411.015462,0.50050044,0.8252796,0.4044639,0.5976129,1.1957585,-0.24993747
1747672411.0170162,0.51856065,0.8091718,0.3717602,0.56245923,1.2863059,-0.24461116
1747672411.0178988,0.51856065,0.8091718,0.3717602,0.56245923,1.2863059,-0.24461116
1747672411.018815,0.51856065,0.8091718,0.3717602,0.56245923,1.2863059,-0.24461116
1747672411.0197403,0.51856065,0.8091718,0.3717602,0.56245923,1.2863059,-0.24461116
1747672411.0205348,0.51856065,0.8091718,0.3717602,0.56245923,1.2863059,-0.24461116
1747672411.0216503,0.51856065,0.8091718,0.3717602,0.56245923,1.2863059,-0.24461116
1747672411.0230439,0.51856065,0.8091718,0.3717602,0.56245923,1.2863059,-0.24461116
1747672411.0238843,0.51856065,0.8091718,0.3717602,0.56245923,1.2863059,-0.24461116
1747672411.0247426,0.52685857,0.78134924,0.3512594,0.5060002,1.400289,-0.2616554
1747672411.025589,0.52685857,0.78134924,0.3512594,0.5060002,1.400289,-0.2616554
1747672411.026369,0.52685857,0.78134924,0.3512594,0.5060002,1.400289,-0.2616554
1747672411.0271282,0.52685857,0.78134924,0.3512594,0.5060002,1.400289,-0.2616554
1747672411.0288165,0.52685857,0.78134924,0.3512594,0.5060002,1.400289,-0.2616554
1747672411.0302234,0.52685857,0.78134924,0.3512594,0.5060002,1.400289,-0.2616554
1747672411.0326085,0.52685857,0.78134924,0.3512594,0.5060002,1.400289,-0.2616554
1747672411.033401,0.52685857,0.78134924,0.3512594,0.5060002,1.400289,-0.2616554
1747672411.0350356,0.52685857,0.78134924,0.3512594,0.5060002,1.400289,-0.2616554
1747672411.0366223,0.52685857,0.78134924,0.3512594,0.5060002,1.400289,-0.2616554
1747672411.0418231,0.48536882,0.767194,0.34784257,0.4601939,1.4588785,-0.29254803
1747672411.043203,0.48536882,0.767194,0.34784257,0.4601939,1.4588785,-0.29254803
1747672411.0449033,0.48536882,0.767194,0.34784257,0.4601939,1.4588785,-0.29254803
1747672411.0471313,0.48536882,0.767194,0.34784257,0.4601939,1.4588785,-0.29254803
1747672411.0479364,0.48536882,0.767194,0.34784257,0.4601939,1.4588785,-0.29254803
1747672411.0492306,0.48536882,0.767194,0.34784257,0.4601939,1.4588785,-0.29254803
1747672411.0509107,0.48536882,0.767194,0.34784257,0.4601939,1.4588785,-0.29254803
1747672411.0518599,0.4131279,0.77012265,0.34296143,0.43036652,1.4588785,-0.29787433
1747672411.0527427,0.4131279,0.77012265,0.34296143,0.43036652,1.4588785,-0.29787433
1747672411.0536442,0.4131279,0.77012265,0.34296143,0.43036652,1.4588785,-0.29787433
1747672411.0545547,0.4131279,0.77012265,0.34296143,0.43036652,1.4588785,-0.29787433
1747672411.0553956,0.37212628,0.7652415,0.34589013,0.43036652,1.4588785,-0.29787433
1747672411.0562723,0.37212628,0.7652415,0.34589013,0.43036652,1.4588785,-0.29787433
1747672411.0578864,0.37212628,0.7652415,0.34589013,0.4165181,1.4343776,-0.27337328
1747672411.0594075,0.37212628,0.7652415,0.34589013,0.4165181,1.4343776,-0.27337328
1747672411.0608575,0.37212628,0.7652415,0.34589013,0.4165181,1.4343776,-0.27337328
1747672411.0616453,0.37212628,0.7652415,0.34589013,0.4165181,1.4343776,-0.27337328
1747672411.0624247,0.37212628,0.7652415,0.34589013,0.4165181,1.4343776,-0.27337328
1747672411.063235,0.37212628,0.7652415,0.34589013,0.4165181,1.4343776,-0.27337328
1747672411.064068,0.37212628,0.7652415,0.34589013,0.4165181,1.4343776,-0.27337328
1747672411.0648453,0.37212628,0.7652415,0.34589013,0.4165181,1.4343776,-0.27337328
1747672411.0656345,0.37212628,0.7652415,0.34589013,0.4165181,1.4343776,-0.27337328
1747672411.06643,0.37212628,0.7652415,0.34589013,0.4165181,1.4343776,-0.27337328
1747672411.067185,0.37163818,0.75352675,0.34393767,0.40586546,1.3928322,-0.24780695
1747672411.0679562,0.37163818,0.75352675,0.34393767,0.40586546,1.3928322,-0.24780695
1747672411.0687122,0.37163818,0.75352675,0.34393767,0.40586546,1.3928322,-0.24780695
1747672411.070255,0.37163818,0.75352675,0.34393767,0.40586546,1.3928322,-0.24780695
1747672411.0715833,0.37163818,0.75352675,0.34393767,0.40586546,1.3928322,-0.24780695
1747672411.072457,0.37163818,0.75352675,0.34393767,0.40586546,1.3928322,-0.24780695
1747672411.0733867,0.37163818,0.75352675,0.34393767,0.40586546,1.3928322,-0.24780695
1747672411.075356,0.37163818,0.75352675,0.34393767,0.40586546,1.3928322,-0.24780695
1747672411.0770478,0.37163818,0.75352675,0.34393767,0.40586546,1.3928322,-0.24780695
1747672411.0805056,0.37163818,0.75352675,0.34393767,0.40586546,1.3928322,-0.24780695
1747672411.0854487,0.37163818,0.75352675,0.34393767,0.40586546,1.3928322,-0.24780695
1747672411.08664,0.34137508,0.7403476,0.3488188,0.4069307,1.335308,-0.211588
1747672411.0875432,0.34137508,0.7403476,0.3488188,0.4069307,1.335308,-0.211588
1747672411.088522,0.34137508,0.7403476,0.3488188,0.4069307,1.335308,-0.211588
1747672411.089747,0.34137508,0.7403476,0.3488188,0.4069307,1.335308,-0.211588
1747672411.0909243,0.34137508,0.7403476,0.3488188,0.4069307,1.335308,-0.211588
1747672411.0917249,0.34137508,0.7403476,0.3488188,0.4069307,1.335308,-0.211588
1747672411.0927882,0.34137508,0.7403476,0.3488188,0.4069307,1.335308,-0.211588
1747672411.0950158,0.3008616,0.76084846,0.3781057,0.4420844,1.2852405,-0.1615206
1747672411.1000867,0.3008616,0.76084846,0.3781057,0.4420844,1.2852405,-0.1615206
1747672411.102582,0.27303904,0.7847661,0.37712947,0.5241097,1.2415648,-0.09334373
1747672411.1033943,0.27303904,0.7847661,0.37712947,0.5241097,1.2415648,-0.09334373
1747672411.1042802,0.29109928,0.80429065,0.36248603,0.5241097,1.2415648,-0.09334373
1747672411.10505,0.29109928,0.80429065,0.36248603,0.5241097,1.2415648,-0.09334373
1747672411.105844,0.29109928,0.80429065,0.36248603,0.5997434,1.2000195,-0.049667917
1747672411.1066065,0.29109928,0.80429065,0.36248603,0.5997434,1.2000195,-0.049667917
1747672411.107336,0.29109928,0.80429065,0.36248603,0.5997434,1.2000195,-0.049667917
1747672411.1080618,0.29109928,0.80429065,0.36248603,0.5997434,1.2000195,-0.049667917
1747672411.1087914,0.29109928,0.80429065,0.36248603,0.5997434,1.2000195,-0.049667917
1747672411.109534,0.29109928,0.80429065,0.36248603,0.5997434,1.2000195,-0.049667917
1747672411.117196,0.29109928,0.80429065,0.36248603,0.5997434,1.2000195,-0.049667917
1747672411.123835,0.311112,0.80965996,0.35028318,0.6274403,1.1691269,-0.045406863
1747672411.1246412,0.311112,0.80965996,0.35028318,0.6274403,1.1691269,-0.045406863
1747672411.1268475,0.311112,0.80965996,0.35028318,0.6274403,1.1691269,-0.045406863
1747672411.1278534,0.311112,0.80965996,0.35028318,0.6274403,1.1691269,-0.045406863
1747672411.1286426,0.311112,0.80965996,0.35028318,0.6274403,1.1691269,-0.045406863
1747672411.1305263,0.3696857,0.81991035,0.24680288,0.6615287,1.0359689,-0.09867004
1747672411.1332989,0.3696857,0.81991035,0.24680288,0.6615287,1.0359689,-0.09867004
1747672411.1384492,0.3696857,0.81991035,0.24680288,0.6615287,1.0359689,-0.09867004
1747672411.139547,0.3696857,0.81991035,0.24680288,0.6615287,1.0359689,-0.09867004
1747672411.1418788,0.37944803,0.81991035,0.20775373,0.5976129,0.99655414,-0.17217323
1747672411.1428196,0.37944803,0.81991035,0.20775373,0.5976129,0.99655414,-0.17217323
1747672411.1439166,0.37944803,0.81991035,0.20775373,0.5976129,0.99655414,-0.17217323
1747672411.1448247,0.37944803,0.81991035,0.20775373,0.5976129,0.99655414,-0.17217323
1747672411.1453416,0.37944803,0.81991035,0.20775373,0.5976129,0.99655414,-0.17217323
1747672411.1461241,0.37944803,0.81991035,0.20775373,0.5976129,0.99655414,-0.17217323
1747672411.1469302,0.37944803,0.81991035,0.20775373,0.5123918,0.99229306,-0.24567643
1747672411.1476896,0.38384104,0.8086837,0.21605167,0.5123918,0.99229306,-0.24567643
1747672411.1489513,0.38384104,0.8086837,0.21605167,0.5123918,0.99229306,-0.24567643
1747672411.149813,0.38384104,0.8086837,0.21605167,0.5123918,0.99229306,-0.24567643
1747672411.1506774,0.38384104,0.8086837,0.21605167,0.5123918,0.99229306,-0.24567643
1747672411.1514778,0.38384104,0.8086837,0.21605167,0.5123918,0.99229306,-0.24567643
1747672411.1522872,0.38384104,0.8086837,0.21605167,0.5123918,0.99229306,-0.24567643
1747672411.1530774,0.38384104,0.8086837,0.21605167,0.5123918,0.99229306,-0.24567643
1747672411.1538644,0.38384104,0.8086837,0.21605167,0.5123918,0.99229306,-0.24567643
1747672411.1546485,0.38384104,0.8086837,0.21605167,0.5123918,0.99229306,-0.24567643
1747672411.1555238,0.38384104,0.8086837,0.21605167,0.5123918,0.99229306,-0.24567643
1747672411.1563165,0.38384104,0.8086837,0.21605167,0.5123918,0.99229306,-0.24567643
1747672411.1571307,0.38384104,0.8086837,0.21605167,0.5123918,0.99229306,-0.24567643
1747672411.158186,0.38384104,0.8086837,0.21605167,0.5123918,0.99229306,-0.24567643
1747672411.1592522,0.35797098,0.7959927,0.27267295,0.4569981,1.0114678,-0.32024488
1747672411.1611578,0.35797098,0.7959927,0.27267295,0.4569981,1.0114678,-0.32024488
1747672411.1637492,0.35797098,0.7959927,0.27267295,0.4569981,1.0114678,-0.32024488
1747672411.1646218,0.35797098,0.7959927,0.27267295,0.4569981,1.0114678,-0.32024488
1747672411.165618,0.35797098,0.7959927,0.27267295,0.4569981,1.0114678,-0.32024488
1747672411.166437,0.35797098,0.7959927,0.27267295,0.4569981,1.0114678,-0.32024488
1747672411.1674352,0.35797098,0.7959927,0.27267295,0.4569981,1.0114678,-0.32024488
1747672411.1683435,0.35797098,0.7959927,0.27267295,0.4569981,1.0114678,-0.32024488
1747672411.169246,0.35797098,0.7959927,0.27267295,0.4569981,1.0114678,-0.32024488
1747672411.1700585,0.35797098,0.7959927,0.27267295,0.4569981,1.0114678,-0.32024488
1747672411.1708338,0.35797098,0.7959927,0.27267295,0.4569981,1.0114678,-0.32024488
1747672411.1716173,0.35797098,0.7959927,0.27267295,0.4569981,1.0114678,-0.32024488
1747672411.1728911,0.35797098,0.7959927,0.27267295,0.4569981,1.0114678,-0.32024488
1747672411.1739247,0.35797098,0.7959927,0.27267295,0.4569981,1.0114678,-0.32024488
1747672411.1749456,0.31257632,0.79843324,0.30195984,0.45060652,1.0380994,-0.35113752
1747672411.175884,0.31257632,0.79843324,0.30195984,0.45060652,1.0380994,-0.35113752
1747672411.176697,0.31257632,0.79843324,0.30195984,0.45060652,1.0380994,-0.35113752
1747672411.177493,0.31257632,0.79843324,0.30195984,0.45060652,1.0380994,-0.35113752
1747672411.178387,0.234478,0.81356484,0.32538933,0.47510758,1.0934931,-0.34581122
1747672411.1792347,0.234478,0.81356484,0.32538933,0.47510758,1.0934931,-0.34581122
1747672411.1800187,0.234478,0.81356484,0.32538933,0.47510758,1.0934931,-0.34581122
1747672411.1808794,0.234478,0.81356484,0.32538933,0.47510758,1.0934931,-0.34581122
1747672411.1816878,0.234478,0.81356484,0.32538933,0.47510758,1.0934931,-0.34581122
1747672411.1824656,0.234478,0.81356484,0.32538933,0.47510758,1.0934931,-0.34581122
1747672411.183218,0.234478,0.81356484,0.32538933,0.47510758,1.0934931,-0.34581122
1747672411.1840048,0.234478,0.81356484,0.32538933,0.47510758,1.0934931,-0.34581122
1747672411.1847453,0.234478,0.81356484,0.32538933,0.47510758,1.0934931,-0.34581122
1747672411.1854944,0.234478,0.81356484,0.32538933,0.47510758,1.0934931,-0.34581122
1747672411.186231,0.234478,0.81356484,0.32538933,0.47510758,1.0934931,-0.34581122
1747672411.1869833,0.234478,0.81356484,0.32538933,0.47510758,1.0934931,-0.34581122
1747672411.1877372,0.19494073,0.82186276,0.32538933,0.5305013,1.1062763,-0.31598383
1747672411.1884763,0.19494073,0.82186276,0.32538933,0.5305013,1.1062763,-0.31598383
1747672411.1892035,0.19494073,0.82186276,0.32538933,0.5305013,1.1062763,-0.31598383
1747672411.189941,0.19494073,0.82186276,0.32538933,0.5305013,1.1062763,-0.31598383
1747672411.1916249,0.19494073,0.82186276,0.32538933,0.5305013,1.1062763,-0.31598383
1747672411.1939058,0.19494073,0.82186276,0.32538933,0.5305013,1.1062763,-0.31598383
1747672411.1947038,0.19494073,0.82186276,0.32538933,0.5305013,1.1062763,-0.31598383
1747672411.1955001,0.19494073,0.82186276,0.32538933,0.5305013,1.1062763,-0.31598383
1747672411.1962981,0.19494073,0.82186276,0.32538933,0.5305013,1.1062763,-0.31598383
1747672411.1971698,0.19494073,0.82186276,0.32538933,0.5305013,1.1062763,-0.31598383
1747672411.197944,0.19494073,0.82186276,0.32538933,0.5305013,1.1062763,-0.31598383
1747672411.1987433,0.19494073,0.82186276,0.32538933,0.5305013,1.1062763,-0.31598383
1747672411.1995566,0.19494073,0.82186276,0.32538933,0.5305013,1.1062763,-0.31598383
1747672411.2003648,0.19494073,0.82186276,0.32538933,0.5305013,1.1062763,-0.31598383
1747672411.201192,0.19494073,0.82186276,0.32538933,0.5305013,1.1062763,-0.31598383
1747672411.202949,0.16955878,0.82039845,0.26583937,0.58269924,1.1467563,-0.25419855
1747672411.2038028,0.16955878,0.82039845,0.26583937,0.58269924,1.1467563,-0.25419855
1747672411.2046318,0.16955878,0.82039845,0.26583937,0.58269924,1.1467563,-0.25419855
1747672411.2057683,0.16955878,0.82039845,0.26583937,0.58269924,1.1467563,-0.25419855
1747672411.2065847,0.16955878,0.82039845,0.26583937,0.58269924,1.1467563,-0.25419855
1747672411.2076497,0.16955878,0.82039845,0.26583937,0.58269924,1.1467563,-0.25419855
1747672411.208527,0.16955878,0.82039845,0.26583937,0.58269924,1.1467563,-0.25419855
1747672411.2094004,0.16955878,0.82039845,0.26583937,0.58269924,1.1467563,-0.25419855
1747672411.2102945,0.16955878,0.82039845,0.26583937,0.58269924,1.1467563,-0.25419855
1747672411.211083,0.16955878,0.82039845,0.26583937,0.58269924,1.1467563,-0.25419855
1747672411.2118661,0.20177433,0.81307673,0.19945578,0.56991607,1.22239,-0.2083922
1747672411.2126799,0.20177433,0.81307673,0.19945578,0.56991607,1.22239,-0.2083922
1747672411.21346,0.20177433,0.81307673,0.19945578,0.56991607,1.22239,-0.2083922
1747672411.2142596,0.20177433,0.81307673,0.19945578,0.56991607,1.22239,-0.2083922
1747672411.2150643,0.20177433,0.81307673,0.19945578,0.53156656,1.2681963,-0.21584904
1747672411.2159529,0.23740669,0.82088655,0.16870458,0.53156656,1.2681963,-0.21584904
1747672411.2167704,0.23740669,0.82088655,0.16870458,0.53156656,1.2681963,-0.21584904
1747672411.2175465,0.23740669,0.82088655,0.16870458,0.53156656,1.2681963,-0.21584904
1747672411.218338,0.23740669,0.82088655,0.16870458,0.53156656,1.2681963,-0.21584904
1747672411.2191494,0.23740669,0.82088655,0.16870458,0.53156656,1.2681963,-0.21584904
1747672411.219949,0.23740669,0.82088655,0.16870458,0.53156656,1.2681963,-0.21584904
1747672411.2209723,0.23740669,0.82088655,0.16870458,0.53156656,1.2681963,-0.21584904
1747672411.221837,0.23740669,0.82088655,0.16870458,0.53156656,1.2681963,-0.21584904
1747672411.2229903,0.23740669,0.82088655,0.16870458,0.53156656,1.2681963,-0.21584904
1747672411.2238193,0.23740669,0.82088655,0.16870458,0.53156656,1.2681963,-0.21584904
1747672411.2249558,0.23740669,0.82088655,0.16870458,0.49747813,1.2895017,-0.25100276
1747672411.2257066,0.23740669,0.82088655,0.16870458,0.49747813,1.2895017,-0.25100276
1747672411.2264779,0.23740669,0.82088655,0.16870458,0.49747813,1.2895017,-0.25100276
1747672411.227262,0.23740669,0.82088655,0.16870458,0.49747813,1.2895017,-0.25100276
1747672411.2280135,0.23740669,0.82088655,0.16870458,0.49747813,1.2895017,-0.25100276
1747672411.2287395,0.23740669,0.82088655,0.16870458,0.49747813,1.2895017,-0.25100276
1747672411.2303796,0.23740669,0.82088655,0.16870458,0.49747813,1.2895017,-0.25100276
1747672411.2312179,0.23740669,0.82088655,0.16870458,0.49747813,1.2895017,-0.25100276
1747672411.2321742,0.23740669,0.82088655,0.16870458,0.49747813,1.2895017,-0.25100276
1747672411.2332034,0.23740669,0.82088655,0.16870458,0.49747813,1.2895017,-0.25100276
1747672411.2339895,0.23740669,0.82088655,0.16870458,0.49747813,1.2895017,-0.25100276
1747672411.2347808,0.23740669,0.82088655,0.16870458,0.49747813,1.2895017,-0.25100276
1747672411.2367022,0.23740669,0.82088655,0.16870458,0.49747813,1.2895017,-0.25100276
1747672411.2379386,0.2583956,0.79501647,0.11794066,0.46445495,1.2852405,-0.30959225
1747672411.238989,0.2583956,0.79501647,0.11794066,0.46445495,1.2852405,-0.30959225
1747672411.2402995,0.2583956,0.79501647,0.11794066,0.46445495,1.2852405,-0.30959225
1747672411.241081,0.2583956,0.79501647,0.11794066,0.46445495,1.2852405,-0.30959225
1747672411.2418833,0.2583956,0.79501647,0.11794066,0.46445495,1.2852405,-0.30959225
1747672411.2426648,0.2583956,0.79501647,0.11794066,0.46445495,1.2852405,-0.30959225
1747672411.2434542,0.2583956,0.79501647,0.11794066,0.46445495,1.2852405,-0.30959225
1747672411.2442508,0.24326405,0.7925759,0.08133208,0.46445495,1.2852405,-0.30959225
1747672411.2450716,0.24326405,0.7925759,0.08133208,0.46445495,1.2852405,-0.30959225
1747672411.2461493,0.24326405,0.7925759,0.08133208,0.4165181,1.2799143,-0.37457332
1747672411.2469325,0.24326405,0.7925759,0.08133208,0.4165181,1.2799143,-0.37457332
1747672411.2477593,0.24326405,0.7925759,0.08133208,0.4165181,1.2799143,-0.37457332
1747672411.2486475,0.24326405,0.7925759,0.08133208,0.4165181,1.2799143,-0.37457332
1747672411.2508996,0.24326405,0.7925759,0.08133208,0.4165181,1.2799143,-0.37457332
1747672411.2523913,0.24326405,0.7925759,0.08133208,0.4165181,1.2799143,-0.37457332
1747672411.2547503,0.24326405,0.7925759,0.08133208,0.4165181,1.2799143,-0.37457332
1747672411.255633,0.24326405,0.7925759,0.08133208,0.4165181,1.2799143,-0.37457332
1747672411.2565217,0.21251285,0.7896472,0.08572511,0.37284228,1.3267859,-0.42037967
1747672411.257369,0.21251285,0.7896472,0.08572511,0.37284228,1.3267859,-0.42037967
1747672411.2582185,0.21251285,0.7896472,0.08572511,0.37284228,1.3267859,-0.42037967
1747672411.259082,0.21251285,0.7896472,0.08572511,0.37284228,1.3267859,-0.42037967
1747672411.2599297,0.21251285,0.7896472,0.08572511,0.37284228,1.3267859,-0.42037967
1747672411.260787,0.21251285,0.7896472,0.08572511,0.37284228,1.3267859,-0.42037967
1747672411.2616587,0.21251285,0.7896472,0.08572511,0.37284228,1.3267859,-0.42037967
1747672411.262526,0.21251285,0.7896472,0.08572511,0.37284228,1.3267859,-0.42037967
1747672411.2633948,0.21251285,0.7896472,0.08572511,0.37284228,1.3267859,-0.42037967
1747672411.2642019,0.21251285,0.7896472,0.08572511,0.37284228,1.3267859,-0.42037967
1747672411.264962,0.21251285,0.7896472,0.08572511,0.37284228,1.3267859,-0.42037967
1747672411.2657046,0.18029729,0.784278,0.10134477,0.35792857,1.3662006,-0.43316284
1747672411.2664511,0.18029729,0.784278,0.10134477,0.35792857,1.3662006,-0.43316284
1747672411.2682676,0.18029729,0.784278,0.10134477,0.35792857,1.3662006,-0.43316284
1747672411.2699308,0.18029729,0.784278,0.10134477,0.35792857,1.3662006,-0.43316284
1747672411.2708564,0.18029729,0.784278,0.10134477,0.35792857,1.3662006,-0.43316284
1747672411.2717755,0.18029729,0.784278,0.10134477,0.35792857,1.3662006,-0.43316284
1747672411.272563,0.18029729,0.784278,0.10134477,0.35792857,1.3662006,-0.43316284
1747672411.2733924,0.18029729,0.784278,0.10134477,0.35792857,1.3662006,-0.43316284
1747672411.2741957,0.18029729,0.784278,0.10134477,0.35792857,1.3662006,-0.43316284
1747672411.2749865,0.18029729,0.784278,0.10134477,0.35792857,1.3662006,-0.43316284
1747672411.2758718,0.18029729,0.784278,0.10134477,0.35792857,1.3662006,-0.43316284
1747672411.2766914,0.18029729,0.784278,0.10134477,0.35792857,1.3662006,-0.43316284
1747672411.2774673,0.18029729,0.784278,0.10134477,0.35792857,1.3662006,-0.43316284
1747672411.2782435,0.18029729,0.784278,0.10134477,0.35792857,1.3662006,-0.43316284
1747672411.2790585,0.18029729,0.784278,0.10134477,0.35792857,1.3662006,-0.43316284
