timestamp,acc_x,acc_y,acc_z,gyro_x,gyro_y,gyro_z
1747672165.1239653,0.19933376,0.21464837,1.176661,-0.5635245,-0.9006804,-0.6313019
1747672165.1247652,0.13734321,0.179016,1.0809906,-0.5635245,-0.9006804,-0.6313019
1747672165.125489,0.13734321,0.179016,1.0809906,-0.5635245,-0.9006804,-0.6313019
1747672165.126276,0.13734321,0.179016,1.0809906,-0.5635245,-0.9006804,-0.6313019
1747672165.1280465,0.13734321,0.179016,1.0809906,-0.5635245,-0.9006804,-0.6313019
1747672165.128812,0.13734321,0.179016,1.0809906,-0.5635245,-0.9006804,-0.6313019
1747672165.1297538,0.13734321,0.179016,1.0809906,-0.5635245,-0.9006804,-0.6313019
1747672165.1307187,0.13734321,0.179016,1.0809906,-0.5635245,-0.9006804,-0.6313019
1747672165.1314425,0.13734321,0.179016,1.0809906,-0.5635245,-0.9006804,-0.6313019
1747672165.1321669,0.14222436,0.19414754,0.9819033,-0.57311183,-0.8687225,-0.542885
1747672165.1329443,0.14222436,0.19414754,0.9819033,-0.57311183,-0.8687225,-0.542885
1747672165.1336715,0.14222436,0.19414754,0.9819033,-0.57311183,-0.8687225,-0.542885
1747672165.1344812,0.14222436,0.19414754,0.9819033,-0.57311183,-0.8687225,-0.542885
1747672165.1352828,0.14222436,0.19414754,0.9819033,-0.57311183,-0.8687225,-0.542885
1747672165.1361597,0.14222436,0.19414754,0.9819033,-0.57311183,-0.8687225,-0.542885
1747672165.136891,0.14222436,0.19414754,0.9819033,-0.57311183,-0.8687225,-0.542885
1747672165.1376076,0.14222436,0.19414754,0.9819033,-0.57311183,-0.8687225,-0.542885
1747672165.1383212,0.14222436,0.19414754,0.9819033,-0.57311183,-0.8687225,-0.542885
1747672165.1390336,0.14222436,0.19414754,0.9819033,-0.57311183,-0.8687225,-0.542885
1747672165.1397452,0.14222436,0.19414754,0.9819033,-0.57311183,-0.8687225,-0.542885
1747672165.1404731,0.14222436,0.19414754,0.9819033,-0.57311183,-0.8687225,-0.542885
1747672165.141419,0.14222436,0.19414754,0.9819033,-0.57311183,-0.8687225,-0.542885
1747672165.1424654,0.14222436,0.19414754,0.9819033,-0.57311183,-0.8687225,-0.542885
1747672165.143515,0.22764441,0.20000492,0.9345562,-0.6817687,-0.6886929,-0.48749128
1747672165.1445014,0.22764441,0.20000492,0.9345562,-0.6817687,-0.6886929,-0.48749128
1747672165.177376,0.39946067,0.2605311,0.98629636,-0.9065394,-0.64501715,-0.5386239
1747672165.1784096,0.39946067,0.2605311,0.98629636,-0.95447624,-0.8037414,-0.6334324
1747672165.1794498,0.39946067,0.2605311,0.98629636,-0.95447624,-0.8037414,-0.6334324
1747672165.1804905,0.39946067,0.2605311,0.98629636,-0.95447624,-0.8037414,-0.6334324
1747672165.1820421,0.39946067,0.2605311,0.98629636,-0.95447624,-0.8037414,-0.6334324
1747672165.1829572,0.39946067,0.2605311,0.98629636,-0.95447624,-0.8037414,-0.6334324
1747672165.1837258,0.39946067,0.2605311,0.98629636,-0.95447624,-0.8037414,-0.6334324
1747672165.1844702,0.39946067,0.2605311,0.98629636,-0.95447624,-0.8037414,-0.6334324
1747672165.185222,0.39946067,0.2605311,0.98629636,-0.95447624,-0.8037414,-0.6334324
1747672165.185945,0.39946067,0.2605311,0.98629636,-0.95447624,-0.8037414,-0.6334324
1747672165.1867456,0.39946067,0.2605311,0.98629636,-0.9289099,-1.024251,-0.817723
1747672165.187512,0.45071274,0.25418562,1.0116783,-0.9289099,-1.024251,-0.817723
1747672165.1882398,0.45071274,0.25418562,1.0116783,-0.9289099,-1.024251,-0.817723
1747672165.1889956,0.45071274,0.25418562,1.0116783,-0.9289099,-1.024251,-0.817723
1747672165.190925,0.45071274,0.25418562,1.0116783,-0.9289099,-1.024251,-0.817723
1747672165.1918905,0.45071274,0.25418562,1.0116783,-0.9289099,-1.024251,-0.817723
1747672165.192831,0.45071274,0.25418562,1.0116783,-0.9289099,-1.024251,-0.817723
1747672165.193973,0.45071274,0.25418562,1.0116783,-0.9289099,-1.024251,-0.817723
1747672165.19486,0.45071274,0.25418562,1.0116783,-0.9289099,-1.024251,-0.817723
1747672165.2298286,0.26230052,0.16827747,1.1273614,-0.75207615,-0.83463407,-1.1916305
1747672165.2318115,0.26230052,0.16827747,1.1273614,-0.75207615,-0.83463407,-1.1916305
1747672165.2328997,0.19786942,0.12825207,1.0429177,-0.6838993,-0.84741724,-1.0765821
1747672165.2336526,0.19786942,0.12825207,1.0429177,-0.6838993,-0.84741724,-1.0765821
1747672165.2346072,0.19786942,0.12825207,1.0429177,-0.6838993,-0.84741724,-1.0765821
1747672165.2353945,0.19786942,0.12825207,1.0429177,-0.6838993,-0.84741724,-1.0765821
1747672165.2642016,0.19201204,0.101405784,0.9272345,-0.606135,-1.1669964,-0.9370325
1747672165.2652829,0.19201204,0.101405784,0.9272345,-0.5539371,-1.6655397,-0.8060051
1747672165.2660964,0.25302637,0.106286936,0.7490727,-0.5305013,-1.9957714,-0.6888261
1747672165.2668693,0.25302637,0.106286936,0.7490727,-0.5305013,-1.9957714,-0.6888261
1747672165.2676344,0.25302637,0.106286936,0.7490727,-0.5305013,-1.9957714,-0.6888261
1747672165.2684195,0.25302637,0.106286936,0.7490727,-0.5305013,-1.9957714,-0.6888261
1747672165.2691777,0.25302637,0.106286936,0.7490727,-0.5305013,-1.9957714,-0.6888261
1747672165.269909,0.25302637,0.106286936,0.7490727,-0.5305013,-1.9957714,-0.6888261
1747672165.2706501,0.25302637,0.106286936,0.7490727,-0.5305013,-1.9957714,-0.6888261
1747672165.2713766,0.25302637,0.106286936,0.7490727,-0.5305013,-1.9957714,-0.6888261
1747672165.272075,0.25302637,0.106286936,0.7490727,-0.5305013,-1.9957714,-0.6888261
1747672165.2727697,0.25302637,0.106286936,0.7490727,-0.5305013,-1.9957714,-0.6888261
1747672165.2734709,0.25302637,0.106286936,0.7490727,-0.5305013,-1.9957714,-0.6888261
1747672165.2742114,0.25302637,0.106286936,0.7490727,-0.5305013,-1.9957714,-0.6888261
1747672165.2749126,0.25302637,0.106286936,0.7490727,-0.5305013,-1.9957714,-0.6888261
1747672165.2756188,0.25302637,0.106286936,0.7490727,-0.5305013,-1.9957714,-0.6888261
1747672165.2763119,0.25302637,0.106286936,0.7490727,-0.5305013,-1.9957714,-0.6888261
1747672165.2769876,0.25302637,0.106286936,0.7490727,-0.5305013,-1.9957714,-0.6888261
1747672165.2776582,0.25302637,0.106286936,0.7490727,-0.5305013,-1.9957714,-0.6888261
1747672165.2783296,0.25302637,0.106286936,0.7490727,-0.5305013,-1.9957714,-0.6888261
1747672165.2789984,0.25302637,0.106286936,0.7490727,-0.5305013,-1.9957714,-0.6888261
1747672165.2796671,0.25302637,0.106286936,0.7490727,-0.5305013,-1.9957714,-0.6888261
1747672165.2803357,0.25302637,0.106286936,0.7490727,-0.5305013,-1.9957714,-0.6888261
1747672165.2810152,0.25302637,0.106286936,0.7490727,-0.5305013,-1.9957714,-0.6888261
1747672165.2817674,0.25302637,0.106286936,0.7490727,-0.5305013,-1.9957714,-0.6888261
1747672165.2825162,0.25302637,0.106286936,0.7490727,-0.5305013,-1.9957714,-0.6888261
1747672165.2832866,0.25302637,0.106286936,0.7490727,-0.5305013,-1.9957714,-0.6888261
1747672165.2840564,0.25302637,0.106286936,0.7490727,-0.5305013,-1.9957714,-0.6888261
1747672165.3104284,0.5390615,-0.071874864,0.4937888,-0.77231616,-2.0000324,-0.77724296
1747672165.3112133,0.5390615,-0.071874864,0.4937888,-0.77231616,-2.0000324,-0.77724296
1747672165.3119736,0.5390615,-0.071874864,0.4937888,-0.77231616,-2.0000324,-0.77724296
1747672165.312685,0.5390615,-0.071874864,0.4937888,-0.8383625,-2.2983062,-0.8997483
1747672165.3133671,0.5390615,-0.071874864,0.4937888,-0.8383625,-2.2983062,-0.8997483
1747672165.3140483,0.5390615,-0.071874864,0.4937888,-0.8383625,-2.2983062,-0.8997483
1747672165.3147786,0.5390615,-0.071874864,0.4937888,-0.8383625,-2.2983062,-0.8997483
1747672165.3155706,0.5390615,-0.071874864,0.4937888,-0.8383625,-2.2983062,-0.8997483
1747672165.338713,0.70404416,-0.23832192,0.41422617,-0.8862994,-2.7020411,-1.0808431
1747672165.3397129,0.71527076,-0.38182756,0.34344956,-0.9874994,-3.0897973,-1.2885696
1747672165.3406498,0.71527076,-0.38182756,0.34344956,-0.9874994,-3.0897973,-1.2885696
1747672165.3413901,0.71527076,-0.38182756,0.34344956,-0.9874994,-3.0897973,-1.2885696
1747672165.3421798,0.71527076,-0.38182756,0.34344956,-0.9874994,-3.0897973,-1.2885696
1747672165.3429205,0.71527076,-0.38182756,0.34344956,-0.9874994,-3.0897973,-1.2885696
1747672165.3436322,0.6654831,-0.5350955,0.2712086,-1.1835079,-3.3667657,-1.4419675
1747672165.3443437,0.6654831,-0.5350955,0.2712086,-1.1835079,-3.3667657,-1.4419675
1747672165.345078,0.6654831,-0.5350955,0.2712086,-1.1835079,-3.3667657,-1.4419675
1747672165.3458405,0.6654831,-0.5350955,0.2712086,-1.1835079,-3.3667657,-1.4419675
1747672165.3467777,0.6654831,-0.5350955,0.2712086,-1.1835079,-3.3667657,-1.4419675
1747672165.371631,0.6654831,-0.5350955,0.2712086,-1.1835079,-3.3667657,-1.4419675
1747672165.3730028,0.6654831,-0.5350955,0.2712086,-1.1835079,-3.3667657,-1.4419675
1747672165.3738458,0.6654831,-0.5350955,0.2712086,-1.1835079,-3.3667657,-1.4419675
1747672165.3746142,0.6654831,-0.5350955,0.2712086,-1.1835079,-3.3667657,-1.4419675
1747672165.3753488,0.6654831,-0.5350955,0.2712086,-1.1835079,-3.3667657,-1.4419675
1747672165.376085,0.6654831,-0.5350955,0.2712086,-1.1835079,-3.3667657,-1.4419675
1747672165.376859,0.6654831,-0.5350955,0.2712086,-1.1835079,-3.3667657,-1.4419675
1747672165.377628,0.6654831,-0.5350955,0.2712086,-1.1835079,-3.3667657,-1.4419675
1747672165.3783734,0.6654831,-0.5350955,0.2712086,-1.1835079,-3.3667657,-1.4419675
1747672165.403453,0.6654831,-0.5350955,0.2712086,-1.1835079,-3.3667657,-1.4419675
1747672165.4043036,0.6654831,-0.5350955,0.2712086,-1.1835079,-3.3667657,-1.4419675
1747672165.4051294,0.3526017,-1.0583543,0.29170942,-2.2370536,-2.9609003,-1.4345107
1747672165.4058619,0.3526017,-1.0583543,0.29170942,-2.411757,-2.9129634,-1.3642032
1747672165.4066565,0.27645585,-1.1071657,0.13697714,-2.411757,-2.9129634,-1.3642032
1747672165.4074628,0.27645585,-1.1071657,0.13697714,-2.738793,-2.9118981,-1.2576768
1747672165.4081957,0.27645585,-1.1071657,0.13697714,-2.738793,-2.9118981,-1.2576768
1747672165.4089394,0.27645585,-1.1071657,0.13697714,-2.738793,-2.9118981,-1.2576768
1747672165.4097555,0.27645585,-1.1071657,0.13697714,-2.738793,-2.9118981,-1.2576768
1747672165.4102864,0.27645585,-1.1071657,0.13697714,-2.738793,-2.9118981,-1.2576768
1747672165.434849,0.31062385,-1.1720849,0.09792797,-3.1095045,-2.9619656,-1.2044137
1747672165.4357953,0.31062385,-1.1720849,0.09792797,-3.1095045,-2.9619656,-1.2044137
1747672165.4366834,0.31355256,-1.2902086,0.21995659,-3.8072522,-3.1025803,-1.3205274
1747672165.437486,0.31355256,-1.2902086,0.21995659,-3.8072522,-3.1025803,-1.3205274
1747672165.4384928,0.31355256,-1.2902086,0.21995659,-3.8072522,-3.1025803,-1.3205274
1747672165.4392557,0.31355256,-1.2902086,0.21995659,-3.8072522,-3.1025803,-1.3205274
1747672165.4400485,0.31355256,-1.2902086,0.21995659,-3.8072522,-3.1025803,-1.3205274
1747672165.4701707,-0.07059356,-1.440548,0.53771913,-4.66692,-3.3039153,-1.0936263
1747672165.4710903,-0.42398846,-1.4849663,0.7422391,-4.66692,-3.3039153,-1.0936263
1747672165.4718778,-0.42398846,-1.4849663,0.7422391,-4.66692,-3.3039153,-1.0936263
1747672165.4726424,-0.42398846,-1.4849663,0.7422391,-4.66692,-3.3039153,-1.0936263
1747672165.47336,-0.42398846,-1.4849663,0.7422391,-4.66692,-3.3039153,-1.0936263
1747672165.474143,-0.42398846,-1.4849663,0.7422391,-4.66692,-3.3039153,-1.0936263
1747672165.4748735,-0.42398846,-1.4849663,0.7422391,-4.66692,-3.3039153,-1.0936263
1747672165.4755752,-0.42398846,-1.4849663,0.7422391,-4.66692,-3.3039153,-1.0936263
1747672165.476319,-0.42398846,-1.4849663,0.7422391,-4.66692,-3.3039153,-1.0936263
1747672165.4770415,-0.42398846,-1.4849663,0.7422391,-4.66692,-3.3039153,-1.0936263
1747672165.4777334,-0.42398846,-1.4849663,0.7422391,-4.66692,-3.3039153,-1.0936263
1747672165.4784458,-0.5757921,-1.4830139,0.9389493,-4.812861,-3.4296162,-0.6099966
1747672165.4791734,-0.5757921,-1.4830139,0.9389493,-4.812861,-3.4296162,-0.6099966
1747672165.479946,-0.5757921,-1.4830139,0.9389493,-4.812861,-3.4296162,-0.6099966
1747672165.480675,-0.5757921,-1.4830139,0.9389493,-4.812861,-3.4296162,-0.6099966
1747672165.481388,-0.5757921,-1.4830139,0.9389493,-4.812861,-3.4296162,-0.6099966
1747672165.4821365,-0.5757921,-1.4830139,0.9389493,-4.812861,-3.4296162,-0.6099966
1747672165.4828677,-0.5757921,-1.4830139,0.9389493,-4.812861,-3.4296162,-0.6099966
1747672165.4835696,-0.5757921,-1.4830139,0.9389493,-4.812861,-3.4296162,-0.6099966
1747672165.4843545,-0.5757921,-1.4830139,0.9389493,-4.812861,-3.4296162,-0.6099966
1747672165.4851167,-0.5757921,-1.4830139,0.9389493,-4.812861,-3.4296162,-0.6099966
1747672165.4858825,-0.5757921,-1.4830139,0.9389493,-4.812861,-3.4296162,-0.6099966
1747672165.4866967,-0.5757921,-1.4830139,0.9389493,-4.812861,-3.4296162,-0.6099966
1747672165.51492,-0.11794066,-0.9270515,2.2251308,-4.452802,-3.5606437,0.8568714
1747672165.516182,-0.11794066,-0.9270515,2.2251308,-3.8498628,-3.3017848,1.5205307
1747672165.5170047,-0.11794066,-0.9270515,2.2251308,-3.8498628,-3.3017848,1.5205307
1747672165.5177639,-0.11794066,-0.9270515,2.2251308,-3.8498628,-3.3017848,1.5205307
1747672165.5185845,0.55907416,-0.4853078,2.4399014,-2.819753,-2.749978,1.8496971
1747672165.5193226,0.55907416,-0.4853078,2.4399014,-2.819753,-2.749978,1.8496971
1747672165.5445294,1.7407993,1.0117394,1.1781254,-1.3028175,-1.6048197,0.8057388
1747672165.5455093,1.7407993,1.0117394,1.1781254,-1.2729901,-0.9773794,0.005725792
1747672165.5463877,1.7407993,1.0117394,1.1781254,-1.2729901,-0.9773794,0.005725792
1747672165.5471654,1.7407993,1.0117394,1.1781254,-1.2729901,-0.9773794,0.005725792
1747672165.5479906,1.7407993,1.0117394,1.1781254,-1.2729901,-0.9773794,0.005725792
1747672165.5487437,1.7407993,1.0117394,1.1781254,-1.2729901,-0.9773794,0.005725792
1747672165.5494943,1.7407993,1.0117394,1.1781254,-1.2729901,-0.9773794,0.005725792
1747672165.5776436,1.6905235,1.4115051,0.5513863,-2.6972475,0.37230965,-1.0265146
1747672165.5784817,1.6905235,1.4115051,0.5513863,-2.6972475,0.37230965,-1.0265146
1747672165.5792363,1.6905235,1.4115051,0.5513863,-2.6972475,0.37230965,-1.0265146
1747672165.5799813,1.6905235,1.4115051,0.5513863,-2.6972475,0.37230965,-1.0265146
1747672165.580718,1.9960833,1.3822182,0.84767187,-3.4514542,0.9198552,-1.2225232
1747672165.5814197,1.9960833,1.3822182,0.84767187,-3.4514542,0.9198552,-1.2225232
1747672165.610465,2.9591331,1.5076636,1.9234762,-3.8647764,1.008272,-1.7466329
1747672165.6117833,3.6986265,1.5681899,2.4535685,-3.6048522,0.86765724,-2.2622204
1747672165.612566,3.6986265,1.5681899,2.4535685,-3.6048522,0.86765724,-2.2622204
1747672165.6133256,3.6986265,1.5681899,2.4535685,-3.6048522,0.86765724,-2.2622204
1747672165.61408,3.6986265,1.5681899,2.4535685,-3.6048522,0.86765724,-2.2622204
1747672165.6148105,3.6986265,1.5681899,2.4535685,-3.6048522,0.86765724,-2.2622204
1747672165.615518,3.6986265,1.5681899,2.4535685,-3.6048522,0.86765724,-2.2622204
1747672165.6162128,3.6986265,1.5681899,2.4535685,-3.6048522,0.86765724,-2.2622204
1747672165.6169279,4.317556,1.6038222,2.7503421,-3.224553,1.2713921,-3.0590377
1747672165.6176462,4.317556,1.6038222,2.7503421,-3.224553,1.2713921,-3.0590377
1747672165.6183517,4.317556,1.6038222,2.7503421,-3.224553,1.2713921,-3.0590377
1747672165.61905,4.317556,1.6038222,2.7503421,-3.224553,1.2713921,-3.0590377
1747672165.6197808,4.317556,1.6038222,2.7503421,-3.224553,1.2713921,-3.0590377
1747672165.6204922,4.317556,1.6038222,2.7503421,-3.224553,1.2713921,-3.0590377
1747672165.6212804,4.317556,1.6038222,2.7503421,-3.224553,1.2713921,-3.0590377
1747672165.622022,4.317556,1.6038222,2.7503421,-3.224553,1.2713921,-3.0590377
1747672165.6227446,4.317556,1.6038222,2.7503421,-3.224553,1.2713921,-3.0590377
1747672165.6234531,4.317556,1.6038222,2.7503421,-3.224553,1.2713921,-3.0590377
1747672165.6241615,4.317556,1.6038222,2.7503421,-3.224553,1.2713921,-3.0590377
1747672165.624865,4.317556,1.6038222,2.7503421,-3.224553,1.2713921,-3.0590377
1747672165.6255667,4.317556,1.6038222,2.7503421,-3.224553,1.2713921,-3.0590377
1747672165.6262605,4.317556,1.6038222,2.7503421,-3.224553,1.2713921,-3.0590377
1747672165.626998,4.317556,1.6038222,2.7503421,-3.224553,1.2713921,-3.0590377
1747672165.627782,4.317556,1.6038222,2.7503421,-3.224553,1.2713921,-3.0590377
1747672165.6396477,4.03689,1.1694002,2.639052,-2.3574286,3.9483998,-5.1714554
1747672165.643389,4.03689,1.1694002,2.639052,-2.3574286,3.9483998,-5.1714554
1747672165.647052,3.653232,0.6876313,2.6751723,-1.971803,4.479966,-5.5634727
1747672165.6482396,3.653232,0.6876313,2.6751723,-1.971803,4.479966,-5.5634727
1747672165.6490717,3.653232,0.6876313,2.6751723,-1.971803,4.479966,-5.5634727
1747672165.6500006,3.653232,0.6876313,2.6751723,-1.971803,4.479966,-5.5634727
1747672165.6509218,3.653232,0.6876313,2.6751723,-1.971803,4.479966,-5.5634727
1747672165.6517985,3.653232,0.6876313,2.6751723,-1.971803,4.479966,-5.5634727
1747672165.65264,3.653232,0.6876313,2.6751723,-1.971803,4.479966,-5.5634727
1747672165.6534276,3.653232,0.6876313,2.6751723,-1.971803,4.479966,-5.5634727
1747672165.6544907,3.3086228,0.2937229,2.9104438,-1.4508891,4.3521347,-5.659346
1747672165.6560218,3.3086228,0.2937229,2.9104438,-1.4508891,4.3521347,-5.659346
1747672165.6569211,3.3086228,0.2937229,2.9104438,-1.4508891,4.3521347,-5.659346
1747672165.6581056,3.3086228,0.2937229,2.9104438,-1.4508891,4.3521347,-5.659346
1747672165.658902,3.3086228,0.2937229,2.9104438,-1.4508891,4.3521347,-5.659346
1747672165.6596737,3.3086228,0.2937229,2.9104438,-1.4508891,4.3521347,-5.659346
1747672165.6606297,3.3086228,0.2937229,2.9104438,-1.4508891,4.3521347,-5.659346
1747672165.661405,3.3086228,0.2937229,2.9104438,-1.4508891,4.3521347,-5.659346
1747672165.6621742,3.3086228,0.2937229,2.9104438,-1.4508891,4.3521347,-5.659346
1747672165.6629388,3.3086228,0.2937229,2.9104438,-1.4508891,4.3521347,-5.659346
1747672165.663664,3.3086228,0.2937229,2.9104438,-0.6796382,3.64693,-5.501687
1747672165.6643546,3.0962932,0.06577343,3.3873317,-0.6796382,3.64693,-5.501687
1747672165.6650484,3.0962932,0.06577343,3.3873317,-0.6796382,3.64693,-5.501687
1747672165.6657267,3.0962932,0.06577343,3.3873317,-0.6796382,3.64693,-5.501687
1747672165.6664996,3.0962932,0.06577343,3.3873317,-0.6796382,3.64693,-5.501687
1747672165.6672406,3.0962932,0.06577343,3.3873317,-0.6796382,3.64693,-5.501687
1747672165.668,3.0962932,0.06577343,3.3873317,-0.6796382,3.64693,-5.501687
1747672165.6688082,3.0962932,0.06577343,3.3873317,-0.6796382,3.64693,-5.501687
1747672165.669525,3.0962932,0.06577343,3.3873317,-0.6796382,3.64693,-5.501687
1747672165.670188,3.0962932,0.06577343,3.3873317,-0.6796382,3.64693,-5.501687
1747672165.6708472,3.0962932,0.06577343,3.3873317,-0.6796382,3.64693,-5.501687
1747672165.671556,3.0962932,0.06577343,3.3873317,-0.6796382,3.64693,-5.501687
1747672165.672287,3.0962932,0.06577343,3.3873317,-0.6796382,3.64693,-5.501687
1747672165.6729765,3.0962932,0.06577343,3.3873317,-0.6796382,3.64693,-5.501687
1747672165.6737254,3.0962932,0.06577343,3.3873317,-0.6796382,3.64693,-5.501687
1747672165.67448,3.0962932,0.06577343,3.3873317,-0.6796382,3.64693,-5.501687
1747672165.6752234,3.0962932,0.06577343,3.3873317,-0.6796382,3.64693,-5.501687
1747672165.6759417,3.0962932,0.06577343,3.3873317,-0.6796382,3.64693,-5.501687
1747672165.6766448,3.0962932,0.06577343,3.3873317,-0.6796382,3.64693,-5.501687
1747672165.677377,3.2451682,-0.19829652,3.7114398,0.30679592,2.729738,-5.218327
1747672165.679964,3.2451682,-0.19829652,3.7114398,0.30679592,2.729738,-5.218327
1747672165.6821687,3.2451682,-0.19829652,3.7114398,0.30679592,2.729738,-5.218327
1747672165.6848722,3.2451682,-0.19829652,3.7114398,0.30679592,2.729738,-5.218327
1747672165.6885552,3.6605537,-0.37255338,3.8002763,1.208009,1.965944,-4.9157925
1747672165.6935725,3.6605537,-0.37255338,3.8002763,1.208009,1.965944,-4.9157925
1747672165.694714,3.6605537,-0.37255338,3.8002763,1.208009,1.965944,-4.9157925
1747672165.6962755,3.6605537,-0.37255338,3.8002763,1.208009,1.965944,-4.9157925
1747672165.6983624,4.177467,-0.5189877,3.7758708,1.7694029,1.6559523,-4.80607
1747672165.6996148,4.177467,-0.5189877,3.7758708,1.7694029,1.6559523,-4.80607
1747672165.7005432,4.177467,-0.5189877,3.7758708,1.7694029,1.6559523,-4.80607
1747672165.7013154,4.177467,-0.5189877,3.7758708,1.7694029,1.6559523,-4.80607
1747672165.7028563,4.177467,-0.5189877,3.7758708,1.7694029,1.6559523,-4.80607
1747672165.7038643,4.177467,-0.5189877,3.7758708,1.7694029,1.6559523,-4.80607
1747672165.7050722,4.177467,-0.5189877,3.7758708,1.7694029,1.6559523,-4.80607
1747672165.7058508,4.177467,-0.5189877,3.7758708,1.7694029,1.6559523,-4.80607
1747672165.7066402,4.177467,-0.5189877,3.7758708,1.7694029,1.6559523,-4.80607
1747672165.7076025,4.8027415,-0.68592286,3.6094236,2.258359,1.8434387,-4.9530764
1747672165.7084148,4.8027415,-0.68592286,3.6094236,2.258359,1.8434387,-4.9530764
1747672165.7091894,4.8027415,-0.68592286,3.6094236,2.258359,1.8434387,-4.9530764
1747672165.7099404,4.8027415,-0.68592286,3.6094236,2.258359,1.8434387,-4.9530764
1747672165.7112224,4.8027415,-0.68592286,3.6094236,2.258359,1.8434387,-4.9530764
1747672165.7120056,4.8027415,-0.68592286,3.6094236,2.258359,1.8434387,-4.9530764
1747672165.7127588,4.8027415,-0.68592286,3.6094236,2.258359,1.8434387,-4.9530764
1747672165.7135093,4.8027415,-0.68592286,3.6094236,2.258359,1.8434387,-4.9530764
1747672165.714226,4.8027415,-0.68592286,3.6094236,2.258359,1.8434387,-4.9530764
1747672165.714969,4.8027415,-0.68592286,3.6094236,2.258359,1.8434387,-4.9530764
1747672165.7156682,5.2078767,-0.82698804,3.3429132,2.537458,2.5039022,-5.3813124
1747672165.716396,5.2078767,-0.82698804,3.3429132,2.537458,2.5039022,-5.3813124
1747672165.717155,5.2078767,-0.82698804,3.3429132,2.537458,2.5039022,-5.3813124
1747672165.717877,5.2078767,-0.82698804,3.3429132,2.537458,2.5039022,-5.3813124
1747672165.7186139,5.2078767,-0.82698804,3.3429132,2.537458,2.5039022,-5.3813124
1747672165.7192922,5.2078767,-0.82698804,3.3429132,2.537458,2.5039022,-5.3813124
1747672165.7199717,5.2078767,-0.82698804,3.3429132,2.537458,2.5039022,-5.3813124
1747672165.720727,5.2078767,-0.82698804,3.3429132,2.537458,2.5039022,-5.3813124
1747672165.7214856,5.2078767,-0.82698804,3.3429132,2.537458,2.5039022,-5.3813124
1747672165.7328715,5.2078767,-0.82698804,3.3429132,2.537458,2.5039022,-5.3813124
1747672165.7338305,5.2078767,-0.82698804,3.3429132,2.537458,2.5039022,-5.3813124
1747672165.7381482,5.2078767,-0.82698804,3.3429132,2.537458,2.5039022,-5.3813124
1747672165.7390964,5.2078767,-0.82698804,3.3429132,2.537458,2.5039022,-5.3813124
1747672165.7399073,4.4059043,-1.3258411,2.208535,2.6003087,3.6490605,-6.196239
1747672165.7409515,4.4059043,-1.3258411,2.208535,2.6003087,3.6490605,-6.196239
1747672165.7417152,4.4059043,-1.3258411,2.208535,2.6003087,3.6490605,-6.196239
1747672165.7424817,4.4059043,-1.3258411,2.208535,2.6003087,3.6490605,-6.196239
1747672165.7435083,3.4121034,-1.5493975,1.8658786,2.6003087,3.6490605,-6.196239
1747672165.7443402,3.4121034,-1.5493975,1.8658786,1.9132135,5.323655,-7.035667
1747672165.745129,3.4121034,-1.5493975,1.8658786,1.9132135,5.323655,-7.035667
1747672165.7459118,3.4121034,-1.5493975,1.8658786,1.9132135,5.323655,-7.035667
1747672165.7466693,3.4121034,-1.5493975,1.8658786,1.9132135,5.323655,-7.035667
1747672165.7474685,3.4121034,-1.5493975,1.8658786,1.9132135,5.323655,-7.035667
1747672165.7491317,3.4121034,-1.5493975,1.8658786,1.9132135,5.323655,-7.035667
1747672165.7531595,3.4121034,-1.5493975,1.8658786,1.9132135,5.323655,-7.035667
1747672165.7542117,3.4121034,-1.5493975,1.8658786,1.9132135,5.323655,-7.035667
1747672165.754994,2.32312,-1.6562945,1.8531877,1.9132135,5.323655,-7.035667
1747672165.7557597,2.32312,-1.6562945,1.8531877,1.9132135,5.323655,-7.035667
1747672165.7564938,2.32312,-1.6562945,1.8531877,1.9132135,5.323655,-7.035667
1747672165.7572646,2.32312,-1.6562945,1.8531877,1.9132135,5.323655,-7.035667
1747672165.7580357,2.32312,-1.6562945,1.8531877,1.9132135,5.323655,-7.035667
1747672165.7587683,2.32312,-1.6562945,1.8531877,1.9132135,5.323655,-7.035667
1747672165.7595482,2.32312,-1.6562945,1.8531877,1.9132135,5.323655,-7.035667
1747672165.760436,2.32312,-1.6562945,1.8531877,1.9132135,5.323655,-7.035667
1747672165.7612054,2.32312,-1.6562945,1.8531877,1.9132135,5.323655,-7.035667
1747672165.7619643,2.32312,-1.6562945,1.8531877,1.9132135,5.323655,-7.035667
1747672165.7626874,2.32312,-1.6562945,1.8531877,1.5531543,5.784914,-6.86629
1747672165.7634418,2.32312,-1.6562945,1.8531877,1.5531543,5.784914,-6.86629
1747672165.7642398,1.6573317,-1.7031536,2.0611243,1.5531543,5.784914,-6.86629
1747672165.7649863,1.6573317,-1.7031536,2.0611243,1.5531543,5.784914,-6.86629
1747672165.7657065,1.6573317,-1.7031536,2.0611243,1.5318491,5.807285,-6.3592243
1747672165.7664201,1.6573317,-1.7031536,2.0611243,1.5318491,5.807285,-6.3592243
1747672165.767206,1.6573317,-1.7031536,2.0611243,1.5318491,5.807285,-6.3592243
1747672165.7680109,1.6573317,-1.7031536,2.0611243,1.5318491,5.807285,-6.3592243
1747672165.7687037,1.6573317,-1.7031536,2.0611243,1.5318491,5.807285,-6.3592243
1747672165.769392,1.6573317,-1.7031536,2.0611243,1.5318491,5.807285,-6.3592243
1747672165.7701068,1.6573317,-1.7031536,2.0611243,1.5318491,5.807285,-6.3592243
1747672165.7707973,1.6573317,-1.7031536,2.0611243,1.5318491,5.807285,-6.3592243
1747672165.771488,1.6573317,-1.7031536,2.0611243,1.5318491,5.807285,-6.3592243
1747672165.772175,1.6573317,-1.7031536,2.0611243,1.5318491,5.807285,-6.3592243
1747672165.7728755,1.6573317,-1.7031536,2.0611243,1.5318491,5.807285,-6.3592243
1747672165.773691,1.6573317,-1.7031536,2.0611243,1.5318491,5.807285,-6.3592243
1747672165.774556,1.6573317,-1.7031536,2.0611243,1.5318491,5.807285,-6.3592243
1747672165.7753172,1.6573317,-1.7031536,2.0611243,1.5318491,5.807285,-6.3592243
1747672165.7760487,1.6573317,-1.7031536,2.0611243,1.5318491,5.807285,-6.3592243
1747672165.776983,1.6573317,-1.7031536,2.0611243,1.5318491,5.807285,-6.3592243
1747672165.7777574,1.6573317,-1.7031536,2.0611243,1.5318491,5.807285,-6.3592243
1747672165.7799115,1.6573317,-1.7031536,2.0611243,1.5318491,5.807285,-6.3592243
1747672165.7882383,1.6573317,-1.7031536,2.0611243,1.5318491,5.807285,-6.3592243
1747672165.7891972,1.6573317,-1.7031536,2.0611243,1.5318491,5.807285,-6.3592243
1747672165.7917523,1.6573317,-1.7031536,2.0611243,1.5318491,5.807285,-6.3592243
1747672165.7931297,1.2653759,-1.7221899,2.2514892,1.6586155,5.6815834,-6.1163445
1747672165.7944887,1.2653759,-1.7221899,2.2514892,1.6586155,5.6815834,-6.1163445
1747672165.7957249,1.2653759,-1.7221899,2.2514892,1.6586155,5.6815834,-6.1163445
1747672165.7968273,1.2653759,-1.7221899,2.2514892,1.6586155,5.6815834,-6.1163445
1747672165.8009531,1.2653759,-1.7221899,2.2514892,1.6586155,5.6815834,-6.1163445
1747672165.8025956,1.2653759,-1.7221899,2.2514892,1.6586155,5.6815834,-6.1163445
1747672165.8037705,1.2653759,-1.7221899,2.2514892,1.6586155,5.6815834,-6.1163445
1747672165.8056228,0.66499496,-1.7065703,2.2251308,3.1510499,4.766522,-4.449207
1747672165.8065913,0.66499496,-1.7065703,2.2251308,3.1510499,4.766522,-4.449207
1747672165.8077757,0.66499496,-1.7065703,2.2251308,3.1510499,4.766522,-4.449207
1747672165.8086019,0.66499496,-1.7065703,2.2251308,3.551589,4.628038,-4.025232
1747672165.8093874,0.66499496,-1.7065703,2.2251308,3.551589,4.628038,-4.025232
1747672165.8102238,0.66499496,-1.7065703,2.2251308,3.551589,4.628038,-4.025232
1747672165.8112578,0.8958731,-1.7207257,2.008408,3.551589,4.628038,-4.025232
1747672165.8120344,0.8958731,-1.7207257,2.008408,3.551589,4.628038,-4.025232
1747672165.8127494,0.8958731,-1.7207257,2.008408,3.551589,4.628038,-4.025232
1747672165.8134677,0.8958731,-1.7207257,2.008408,3.551589,4.628038,-4.025232
1747672165.8142703,0.8958731,-1.7207257,2.008408,3.551589,4.628038,-4.025232
1747672165.815019,0.8958731,-1.7207257,2.008408,3.551589,4.628038,-4.025232
1747672165.8158417,0.8958731,-1.7207257,2.008408,3.551589,4.628038,-4.025232
1747672165.8165905,0.8958731,-1.7207257,2.008408,3.551589,4.628038,-4.025232
1747672165.81733,0.8958731,-1.7207257,2.008408,3.551589,4.628038,-4.025232
1747672165.8180392,0.8958731,-1.7207257,2.008408,3.551589,4.628038,-4.025232
1747672165.818752,0.8958731,-1.7207257,2.008408,3.551589,4.628038,-4.025232
1747672165.8229773,0.8958731,-1.7207257,2.008408,3.551589,4.628038,-4.025232
1747672165.824225,0.8958731,-1.7207257,2.008408,3.551589,4.628038,-4.025232
1747672165.8250964,0.8958731,-1.7207257,2.008408,3.551589,4.628038,-4.025232
1747672165.8267922,0.8958731,-1.7207257,2.008408,3.551589,4.628038,-4.025232
1747672165.8275876,0.8958731,-1.7207257,2.008408,3.551589,4.628038,-4.025232
1747672165.8283632,0.8958731,-1.7207257,2.008408,3.551589,4.628038,-4.025232
1747672165.8324363,0.8958731,-1.7207257,2.008408,3.551589,4.628038,-4.025232
1747672165.8343518,0.8958731,-1.7207257,2.008408,3.551589,4.628038,-4.025232
1747672165.8354173,0.8958731,-1.7207257,2.008408,3.551589,4.628038,-4.025232
1747672165.836258,0.8958731,-1.7207257,2.008408,3.551589,4.628038,-4.025232
1747672165.837695,0.8958731,-1.7207257,2.008408,3.551589,4.628038,-4.025232
1747672165.8385534,0.8958731,-1.7207257,2.008408,3.551589,4.628038,-4.025232
1747672165.8393924,0.8958731,-1.7207257,2.008408,3.551589,4.628038,-4.025232
1747672165.8402143,0.8958731,-1.7207257,2.008408,3.551589,4.628038,-4.025232
1747672165.8410537,0.8958731,-1.7207257,2.008408,3.551589,4.628038,-4.025232
1747672165.8419247,0.8958731,-1.7207257,2.008408,3.551589,4.628038,-4.025232
1747672165.8427176,0.8958731,-1.7207257,2.008408,3.551589,4.628038,-4.025232
1747672165.8436506,0.8958731,-1.7207257,2.008408,3.551589,4.628038,-4.025232
1747672165.8447158,0.8958731,-1.7207257,2.008408,3.551589,4.628038,-4.025232
1747672165.8457856,0.8958731,-1.7207257,2.008408,3.551589,4.628038,-4.025232
1747672165.8466895,0.8958731,-1.7207257,2.008408,3.551589,4.628038,-4.025232
1747672165.8474638,0.8958731,-1.7207257,2.008408,3.551589,4.628038,-4.025232
1747672165.8482363,0.8958731,-1.7207257,2.008408,3.551589,4.628038,-4.025232
1747672165.84902,0.8958731,-1.7207257,2.008408,3.551589,4.628038,-4.025232
1747672165.8497982,0.8958731,-1.7207257,2.008408,3.551589,4.628038,-4.025232
1747672165.8505976,0.8958731,-1.7207257,2.008408,3.551589,4.628038,-4.025232
1747672165.8513923,0.8958731,-1.7207257,2.008408,3.551589,4.628038,-4.025232
1747672165.8521523,0.8958731,-1.7207257,2.008408,3.551589,4.628038,-4.025232
1747672165.852883,0.8958731,-1.7207257,2.008408,3.551589,4.628038,-4.025232
1747672165.8536644,0.8958731,-1.7207257,2.008408,3.551589,4.628038,-4.025232
1747672165.855387,0.8958731,-1.7207257,2.008408,3.551589,4.628038,-4.025232
1747672165.8561773,0.8958731,-1.7207257,2.008408,3.551589,4.628038,-4.025232
1747672165.8569813,0.8958731,-1.7207257,2.008408,3.551589,4.628038,-4.025232
1747672165.8578353,0.8958731,-1.7207257,2.008408,3.551589,4.628038,-4.025232
1747672165.8586268,0.8958731,-1.7207257,2.008408,3.551589,4.628038,-4.025232
1747672165.8594153,0.8958731,-1.7207257,2.008408,3.551589,4.628038,-4.025232
1747672165.8602073,0.8958731,-1.7207257,2.008408,3.551589,4.628038,-4.025232
1747672165.8611789,0.8958731,-1.7207257,2.008408,3.551589,4.628038,-4.025232
1747672165.8634903,0.8958731,-1.7207257,2.008408,3.551589,4.628038,-4.025232
1747672165.8651366,0.8958731,-1.7207257,2.008408,3.551589,4.628038,-4.025232
1747672165.866588,0.8958731,-1.7207257,2.008408,3.551589,4.628038,-4.025232
1747672165.867775,0.8958731,-1.7207257,2.008408,3.551589,4.628038,-4.025232
1747672165.8688984,0.8958731,-1.7207257,2.008408,3.551589,4.628038,-4.025232
1747672165.8698368,0.8958731,-1.7207257,2.008408,3.551589,4.628038,-4.025232
1747672165.8712986,0.8958731,-1.7207257,2.008408,3.551589,4.628038,-4.025232
1747672165.8720992,0.8958731,-1.7207257,2.008408,3.551589,4.628038,-4.025232
1747672165.8731513,0.8958731,-1.7207257,2.008408,3.551589,4.628038,-4.025232
1747672165.8739598,0.8958731,-1.7207257,2.008408,3.551589,4.628038,-4.025232
1747672165.8752532,0.8958731,-1.7207257,2.008408,3.551589,4.628038,-4.025232
1747672165.8761353,0.8958731,-1.7207257,2.008408,3.551589,4.628038,-4.025232
1747672165.8769176,0.8958731,-1.7207257,2.008408,3.551589,4.628038,-4.025232
1747672165.8778725,0.8958731,-1.7207257,2.008408,3.551589,4.628038,-4.025232
1747672165.8786557,0.8958731,-1.7207257,2.008408,3.551589,4.628038,-4.025232
1747672165.8794413,0.8958731,-1.7207257,2.008408,3.551589,4.628038,-4.025232
1747672165.8802211,0.8958731,-1.7207257,2.008408,3.551589,4.628038,-4.025232
1747672165.8810065,0.8958731,-1.7207257,2.008408,3.551589,4.628038,-4.025232
1747672165.8820994,0.8958731,-1.7207257,2.008408,3.551589,4.628038,-4.025232
1747672165.8832438,0.8958731,-1.7207257,2.008408,3.551589,4.628038,-4.025232
1747672165.884058,0.8958731,-1.7207257,2.008408,3.551589,4.628038,-4.025232
1747672165.8848584,0.8958731,-1.7207257,2.008408,3.551589,4.628038,-4.025232
1747672165.8857756,0.8958731,-1.7207257,2.008408,3.551589,4.628038,-4.025232
1747672165.8865573,0.8958731,-1.7207257,2.008408,3.551589,4.628038,-4.025232
1747672165.8873382,0.8958731,-1.7207257,2.008408,3.551589,4.628038,-4.025232
1747672165.8882165,0.8958731,-1.7207257,2.008408,3.551589,4.628038,-4.025232
1747672165.8889852,0.8958731,-1.7207257,2.008408,3.551589,4.628038,-4.025232
1747672165.8897762,0.8958731,-1.7207257,2.008408,3.551589,4.628038,-4.025232
1747672165.8905034,0.8958731,-1.7207257,2.008408,3.551589,4.628038,-4.025232
1747672165.8912117,0.8958731,-1.7207257,2.008408,3.551589,4.628038,-4.025232
1747672165.8927052,0.8958731,-1.7207257,2.008408,3.551589,4.628038,-4.025232
1747672165.8941567,0.8958731,-1.7207257,2.008408,3.551589,4.628038,-4.025232
1747672165.8953183,0.8958731,-1.7207257,2.008408,3.551589,4.628038,-4.025232
1747672165.896354,0.8958731,-1.7207257,2.008408,3.551589,4.628038,-4.025232
1747672165.8994427,0.8958731,-1.7207257,2.008408,3.551589,4.628038,-4.025232
1747672165.900609,0.8958731,-1.7207257,2.008408,3.551589,4.628038,-4.025232
1747672165.9018998,0.8958731,-1.7207257,2.008408,3.551589,4.628038,-4.025232
1747672165.9030416,0.8958731,-1.7207257,2.008408,3.551589,4.628038,-4.025232
1747672165.9039428,0.8958731,-1.7207257,2.008408,3.551589,4.628038,-4.025232
1747672165.9048834,0.8958731,-1.7207257,2.008408,3.551589,4.628038,-4.025232
1747672165.9063327,0.8958731,-1.7207257,2.008408,3.551589,4.628038,-4.025232
1747672165.9073741,0.8958731,-1.7207257,2.008408,3.551589,4.628038,-4.025232
1747672165.908637,0.8958731,-1.7207257,2.008408,3.551589,4.628038,-4.025232
1747672165.9096866,0.8958731,-1.7207257,2.008408,3.551589,4.628038,-4.025232
1747672165.9104915,0.8958731,-1.7207257,2.008408,3.551589,4.628038,-4.025232
1747672165.911849,0.8958731,-1.7207257,2.008408,3.551589,4.628038,-4.025232
1747672165.9139016,0.8958731,-1.7207257,2.008408,3.551589,4.628038,-4.025232
1747672165.9155369,0.8958731,-1.7207257,2.008408,3.551589,4.628038,-4.025232
1747672165.9163504,0.8958731,-1.7207257,2.008408,3.551589,4.628038,-4.025232
1747672165.9172504,0.8958731,-1.7207257,2.008408,3.551589,4.628038,-4.025232
1747672165.9180257,0.8958731,-1.7207257,2.008408,3.551589,4.628038,-4.025232
1747672165.9188147,0.8958731,-1.7207257,2.008408,3.551589,4.628038,-4.025232
1747672165.9196837,0.8958731,-1.7207257,2.008408,3.551589,4.628038,-4.025232
1747672165.920464,0.8958731,-1.7207257,2.008408,3.551589,4.628038,-4.025232
1747672165.9212763,0.8958731,-1.7207257,2.008408,3.551589,4.628038,-4.025232
1747672165.9224374,0.8958731,-1.7207257,2.008408,3.551589,4.628038,-4.025232
1747672165.9236953,0.8958731,-1.7207257,2.008408,3.551589,4.628038,-4.025232
1747672165.924472,0.8958731,-1.7207257,2.008408,3.551589,4.628038,-4.025232
1747672165.9252305,0.8958731,-1.7207257,2.008408,3.551589,4.628038,-4.025232
1747672165.9260705,0.8958731,-1.7207257,2.008408,3.551589,4.628038,-4.025232
1747672165.9268398,0.8958731,-1.7207257,2.008408,3.551589,4.628038,-4.025232
1747672165.9276037,0.8958731,-1.7207257,2.008408,3.551589,4.628038,-4.025232
1747672165.9283502,0.8958731,-1.7207257,2.008408,3.551589,4.628038,-4.025232
1747672165.9298022,0.8958731,-1.7207257,2.008408,3.551589,4.628038,-4.025232
1747672165.9306123,0.8958731,-1.7207257,2.008408,3.551589,4.628038,-4.025232
1747672165.931418,0.8958731,-1.7207257,2.008408,3.551589,4.628038,-4.025232
1747672165.932224,0.8958731,-1.7207257,2.008408,3.551589,4.628038,-4.025232
1747672165.9332922,0.8958731,-1.7207257,2.008408,3.551589,4.628038,-4.025232
1747672165.9341998,0.8958731,-1.7207257,2.008408,3.551589,4.628038,-4.025232
1747672165.9349732,0.8958731,-1.7207257,2.008408,3.551589,4.628038,-4.025232
1747672165.9358454,0.8958731,-1.7207257,2.008408,3.551589,4.628038,-4.025232
1747672165.9368715,0.8958731,-1.7207257,2.008408,3.551589,4.628038,-4.025232
1747672165.9378374,0.8958731,-1.7207257,2.008408,3.551589,4.628038,-4.025232
1747672165.9392054,0.8958731,-1.7207257,2.008408,3.551589,4.628038,-4.025232
1747672165.9401734,0.8958731,-1.7207257,2.008408,3.551589,4.628038,-4.025232
1747672165.9413016,0.8958731,-1.7207257,2.008408,3.551589,4.628038,-4.025232
1747672165.9437873,0.8958731,-1.7207257,2.008408,3.551589,4.628038,-4.025232
1747672165.948857,0.8958731,-1.7207257,2.008408,3.551589,4.628038,-4.025232
1747672165.9497845,0.8958731,-1.7207257,2.008408,3.551589,4.628038,-4.025232
1747672165.9508276,0.8958731,-1.7207257,2.008408,3.551589,4.628038,-4.025232
1747672165.9518402,0.8958731,-1.7207257,2.008408,3.551589,4.628038,-4.025232
1747672165.9528594,0.8958731,-1.7207257,2.008408,3.551589,4.628038,-4.025232
1747672165.95372,0.8958731,-1.7207257,2.008408,3.551589,4.628038,-4.025232
1747672165.9549446,0.8958731,-1.7207257,2.008408,3.551589,4.628038,-4.025232
1747672165.9557986,0.8958731,-1.7207257,2.008408,3.551589,4.628038,-4.025232
1747672165.9566567,0.8958731,-1.7207257,2.008408,3.551589,4.628038,-4.025232
1747672165.9574683,0.8958731,-1.7207257,2.008408,3.551589,4.628038,-4.025232
1747672165.9584095,0.8958731,-1.7207257,2.008408,3.551589,4.628038,-4.025232
1747672165.959257,0.8958731,-1.7207257,2.008408,3.551589,4.628038,-4.025232
1747672165.9600623,0.8958731,-1.7207257,2.008408,3.551589,4.628038,-4.025232
1747672165.9608412,0.8958731,-1.7207257,2.008408,3.551589,4.628038,-4.025232
1747672165.961695,0.8958731,-1.7207257,2.008408,3.551589,4.628038,-4.025232
1747672165.9624493,0.8958731,-1.7207257,2.008408,3.551589,4.628038,-4.025232
1747672165.9632018,0.8958731,-1.7207257,2.008408,3.551589,4.628038,-4.025232
1747672165.963912,0.8958731,-1.7207257,2.008408,3.551589,4.628038,-4.025232
1747672165.9646492,0.8958731,-1.7207257,2.008408,3.551589,4.628038,-4.025232
1747672165.9661636,0.8958731,-1.7207257,2.008408,3.551589,4.628038,-4.025232
1747672165.9671152,0.8958731,-1.7207257,2.008408,3.551589,4.628038,-4.025232
1747672165.9679408,0.8958731,-1.7207257,2.008408,3.551589,4.628038,-4.025232
1747672165.9687488,0.8958731,-1.7207257,2.008408,3.551589,4.628038,-4.025232
1747672165.9695182,0.8958731,-1.7207257,2.008408,3.551589,4.628038,-4.025232
1747672165.9704852,0.8958731,-1.7207257,2.008408,3.551589,4.628038,-4.025232
1747672165.9731333,0.8958731,-1.7207257,2.008408,3.551589,4.628038,-4.025232
1747672165.9748223,0.8958731,-1.7207257,2.008408,3.551589,4.628038,-4.025232
1747672165.9767287,0.8958731,-1.7207257,2.008408,3.551589,4.628038,-4.025232
1747672165.9775221,0.8958731,-1.7207257,2.008408,3.551589,4.628038,-4.025232
1747672165.9784007,0.8958731,-1.7207257,2.008408,3.551589,4.628038,-4.025232
1747672165.9793408,0.8958731,-1.7207257,2.008408,3.551589,4.628038,-4.025232
1747672165.980192,0.8958731,-1.7207257,2.008408,3.551589,4.628038,-4.025232
1747672165.9810257,0.8958731,-1.7207257,2.008408,3.551589,4.628038,-4.025232
1747672165.981845,0.8958731,-1.7207257,2.008408,3.551589,4.628038,-4.025232
1747672165.9826434,0.8958731,-1.7207257,2.008408,3.551589,4.628038,-4.025232
1747672165.984192,0.8958731,-1.7207257,2.008408,3.551589,4.628038,-4.025232
1747672165.9850528,0.8958731,-1.7207257,2.008408,3.551589,4.628038,-4.025232
1747672165.9863365,0.8958731,-1.7207257,2.008408,3.551589,4.628038,-4.025232
1747672165.987123,0.8958731,-1.7207257,2.008408,3.551589,4.628038,-4.025232
1747672165.9879146,0.8958731,-1.7207257,2.008408,3.551589,4.628038,-4.025232
1747672165.9887311,0.8958731,-1.7207257,2.008408,3.551589,4.628038,-4.025232
1747672165.9896915,0.8958731,-1.7207257,2.008408,3.551589,4.628038,-4.025232
1747672165.9905016,0.8958731,-1.7207257,2.008408,3.551589,4.628038,-4.025232
1747672165.9912994,0.8958731,-1.7207257,2.008408,3.551589,4.628038,-4.025232
1747672165.9920897,0.8958731,-1.7207257,2.008408,3.551589,4.628038,-4.025232
1747672165.992882,0.8958731,-1.7207257,2.008408,3.551589,4.628038,-4.025232
1747672165.9936545,0.8958731,-1.7207257,2.008408,3.551589,4.628038,-4.025232
1747672165.994442,0.8958731,-1.7207257,2.008408,3.551589,4.628038,-4.025232
1747672165.9952118,0.8958731,-1.7207257,2.008408,3.551589,4.628038,-4.025232
1747672165.996,0.8958731,-1.7207257,2.008408,3.551589,4.628038,-4.025232
1747672165.996833,0.8958731,-1.7207257,2.008408,3.551589,4.628038,-4.025232
1747672165.9976292,0.8958731,-1.7207257,2.008408,3.551589,4.628038,-4.025232
1747672165.998386,0.8958731,-1.7207257,2.008408,3.551589,4.628038,-4.025232
1747672165.9991531,0.8958731,-1.7207257,2.008408,3.551589,4.628038,-4.025232
1747672165.9999096,0.8958731,-1.7207257,2.008408,3.551589,4.628038,-4.025232
1747672166.001205,0.8958731,-1.7207257,2.008408,3.551589,4.628038,-4.025232
1747672166.00228,0.8958731,-1.7207257,2.008408,3.551589,4.628038,-4.025232
1747672166.0031717,0.8958731,-1.7207257,2.008408,3.551589,4.628038,-4.025232
1747672166.0054338,0.8958731,-1.7207257,2.008408,3.551589,4.628038,-4.025232
1747672166.0069818,0.8958731,-1.7207257,2.008408,3.551589,4.628038,-4.025232
1747672166.008512,0.8958731,-1.7207257,2.008408,3.551589,4.628038,-4.025232
1747672166.0093007,0.8958731,-1.7207257,2.008408,3.551589,4.628038,-4.025232
1747672166.0101242,0.8958731,-1.7207257,2.008408,3.551589,4.628038,-4.025232
1747672166.0109048,0.8958731,-1.7207257,2.008408,3.551589,4.628038,-4.025232
1747672166.0114355,0.8958731,-1.7207257,2.008408,3.551589,4.628038,-4.025232
1747672166.01221,0.8958731,-1.7207257,2.008408,3.551589,4.628038,-4.025232
1747672166.0129964,0.8958731,-1.7207257,2.008408,3.551589,4.628038,-4.025232
1747672166.0137749,0.8958731,-1.7207257,2.008408,3.551589,4.628038,-4.025232
1747672166.0146184,0.8958731,-1.7207257,2.008408,3.551589,4.628038,-4.025232
1747672166.0164728,0.8958731,-1.7207257,2.008408,3.551589,4.628038,-4.025232
1747672166.0172706,0.8958731,-1.7207257,2.008408,3.551589,4.628038,-4.025232
1747672166.0180497,0.8958731,-1.7207257,2.008408,3.551589,4.628038,-4.025232
1747672166.0188658,0.8958731,-1.7207257,2.008408,3.551589,4.628038,-4.025232
1747672166.0196714,0.8958731,-1.7207257,2.008408,3.551589,4.628038,-4.025232
1747672166.02081,0.8958731,-1.7207257,2.008408,3.551589,4.628038,-4.025232
1747672166.021598,0.8958731,-1.7207257,2.008408,3.551589,4.628038,-4.025232
1747672166.022385,0.8958731,-1.7207257,2.008408,3.551589,4.628038,-4.025232
1747672166.0231624,0.8958731,-1.7207257,2.008408,3.551589,4.628038,-4.025232
1747672166.0239718,0.8958731,-1.7207257,2.008408,3.551589,4.628038,-4.025232
1747672166.0248325,0.8958731,-1.7207257,2.008408,3.551589,4.628038,-4.025232
1747672166.0256805,0.8958731,-1.7207257,2.008408,3.551589,4.628038,-4.025232
1747672166.0265296,0.8958731,-1.7207257,2.008408,3.551589,4.628038,-4.025232
1747672166.0274222,0.8958731,-1.7207257,2.008408,3.551589,4.628038,-4.025232
1747672166.028261,0.8958731,-1.7207257,2.008408,3.551589,4.628038,-4.025232
1747672166.0290298,0.8958731,-1.7207257,2.008408,3.551589,4.628038,-4.025232
1747672166.029821,0.8958731,-1.7207257,2.008408,3.551589,4.628038,-4.025232
1747672166.0306063,0.8958731,-1.7207257,2.008408,3.551589,4.628038,-4.025232
1747672166.0320287,0.8958731,-1.7207257,2.008408,3.551589,4.628038,-4.025232
1747672166.0328093,0.8958731,-1.7207257,2.008408,3.551589,4.628038,-4.025232
1747672166.0335746,0.8958731,-1.7207257,2.008408,3.551589,4.628038,-4.025232
1747672166.034404,0.8958731,-1.7207257,2.008408,3.551589,4.628038,-4.025232
1747672166.0351624,0.8958731,-1.7207257,2.008408,3.551589,4.628038,-4.025232
1747672166.0359485,0.8958731,-1.7207257,2.008408,3.551589,4.628038,-4.025232
1747672166.036704,0.8958731,-1.7207257,2.008408,3.551589,4.628038,-4.025232
1747672166.0384333,0.8958731,-1.7207257,2.008408,3.551589,4.628038,-4.025232
1747672166.039319,0.8958731,-1.7207257,2.008408,3.551589,4.628038,-4.025232
1747672166.0401058,0.8958731,-1.7207257,2.008408,3.551589,4.628038,-4.025232
1747672166.0408921,0.8958731,-1.7207257,2.008408,3.551589,4.628038,-4.025232
1747672166.0416694,0.8958731,-1.7207257,2.008408,3.551589,4.628038,-4.025232
1747672166.042453,0.8958731,-1.7207257,2.008408,3.551589,4.628038,-4.025232
1747672166.0433023,0.8958731,-1.7207257,2.008408,3.551589,4.628038,-4.025232
1747672166.0441449,0.8958731,-1.7207257,2.008408,3.551589,4.628038,-4.025232
1747672166.0449464,0.8958731,-1.7207257,2.008408,3.551589,4.628038,-4.025232
1747672166.045749,0.8958731,-1.7207257,2.008408,3.551589,4.628038,-4.025232
1747672166.046588,0.8958731,-1.7207257,2.008408,3.551589,4.628038,-4.025232
1747672166.047712,0.8958731,-1.7207257,2.008408,3.551589,4.628038,-4.025232
1747672166.0486581,0.8958731,-1.7207257,2.008408,3.551589,4.628038,-4.025232
1747672166.0495768,0.8958731,-1.7207257,2.008408,3.551589,4.628038,-4.025232
1747672166.0504951,0.8958731,-1.7207257,2.008408,3.551589,4.628038,-4.025232
1747672166.051279,0.8958731,-1.7207257,2.008408,3.551589,4.628038,-4.025232
1747672166.0521674,0.8958731,-1.7207257,2.008408,3.551589,4.628038,-4.025232
1747672166.0529375,0.8958731,-1.7207257,2.008408,3.551589,4.628038,-4.025232
1747672166.0537157,0.8958731,-1.7207257,2.008408,3.551589,4.628038,-4.025232
1747672166.0544927,0.8958731,-1.7207257,2.008408,3.551589,4.628038,-4.025232
1747672166.0552835,0.8958731,-1.7207257,2.008408,3.551589,4.628038,-4.025232
1747672166.0560694,0.8958731,-1.7207257,2.008408,3.551589,4.628038,-4.025232
1747672166.0569263,0.8958731,-1.7207257,2.008408,3.551589,4.628038,-4.025232
1747672166.0577836,0.8958731,-1.7207257,2.008408,3.551589,4.628038,-4.025232
1747672166.058592,0.8958731,-1.7207257,2.008408,3.551589,4.628038,-4.025232
1747672166.0594049,0.8958731,-1.7207257,2.008408,3.551589,4.628038,-4.025232
1747672166.0602062,0.8958731,-1.7207257,2.008408,3.551589,4.628038,-4.025232
1747672166.0609968,0.8958731,-1.7207257,2.008408,3.551589,4.628038,-4.025232
1747672166.0618877,0.8958731,-1.7207257,2.008408,3.551589,4.628038,-4.025232
1747672166.062783,0.8958731,-1.7207257,2.008408,3.551589,4.628038,-4.025232
1747672166.063926,0.8958731,-1.7207257,2.008408,3.551589,4.628038,-4.025232
1747672166.0648355,0.8958731,-1.7207257,2.008408,3.551589,4.628038,-4.025232
1747672166.0668507,0.8958731,-1.7207257,2.008408,3.551589,4.628038,-4.025232
1747672166.0676367,0.8958731,-1.7207257,2.008408,3.551589,4.628038,-4.025232
1747672166.0684533,0.8958731,-1.7207257,2.008408,3.551589,4.628038,-4.025232
1747672166.069317,0.8958731,-1.7207257,2.008408,3.551589,4.628038,-4.025232
1747672166.0700905,0.8958731,-1.7207257,2.008408,3.551589,4.628038,-4.025232
1747672166.070854,0.8958731,-1.7207257,2.008408,3.551589,4.628038,-4.025232
1747672166.0716288,0.8958731,-1.7207257,2.008408,3.551589,4.628038,-4.025232
1747672166.0723484,0.8958731,-1.7207257,2.008408,3.551589,4.628038,-4.025232
1747672166.0737987,0.8958731,-1.7207257,2.008408,3.551589,4.628038,-4.025232
1747672166.0746748,0.8958731,-1.7207257,2.008408,3.551589,4.628038,-4.025232
1747672166.0754588,0.8958731,-1.7207257,2.008408,3.551589,4.628038,-4.025232
1747672166.0762355,0.8958731,-1.7207257,2.008408,3.551589,4.628038,-4.025232
1747672166.07702,0.8958731,-1.7207257,2.008408,3.551589,4.628038,-4.025232
1747672166.0778296,0.8958731,-1.7207257,2.008408,3.551589,4.628038,-4.025232
1747672166.0786014,0.8958731,-1.7207257,2.008408,3.551589,4.628038,-4.025232
1747672166.0793982,0.8958731,-1.7207257,2.008408,3.551589,4.628038,-4.025232
1747672166.0805466,0.8958731,-1.7207257,2.008408,3.551589,4.628038,-4.025232
1747672166.0814612,0.8958731,-1.7207257,2.008408,3.551589,4.628038,-4.025232
1747672166.0823503,0.8958731,-1.7207257,2.008408,3.551589,4.628038,-4.025232
1747672166.0833297,0.8958731,-1.7207257,2.008408,3.551589,4.628038,-4.025232
1747672166.0842266,0.8958731,-1.7207257,2.008408,3.551589,4.628038,-4.025232
1747672166.085023,0.8958731,-1.7207257,2.008408,3.551589,4.628038,-4.025232
1747672166.085824,0.8958731,-1.7207257,2.008408,3.551589,4.628038,-4.025232
1747672166.0865936,0.8958731,-1.7207257,2.008408,3.551589,4.628038,-4.025232
1747672166.0873692,0.8958731,-1.7207257,2.008408,3.551589,4.628038,-4.025232
1747672166.0883527,0.8958731,-1.7207257,2.008408,3.551589,4.628038,-4.025232
1747672166.0891361,0.8958731,-1.7207257,2.008408,3.551589,4.628038,-4.025232
1747672166.0899248,0.8958731,-1.7207257,2.008408,3.551589,4.628038,-4.025232
1747672166.0907001,0.8958731,-1.7207257,2.008408,3.551589,4.628038,-4.025232
1747672166.0914748,0.8958731,-1.7207257,2.008408,3.551589,4.628038,-4.025232
1747672166.0923975,0.8958731,-1.7207257,2.008408,3.551589,4.628038,-4.025232
1747672166.0936894,0.8958731,-1.7207257,2.008408,3.551589,4.628038,-4.025232
1747672166.0952792,0.8958731,-1.7207257,2.008408,3.551589,4.628038,-4.025232
1747672166.0963027,0.8958731,-1.7207257,2.008408,3.551589,4.628038,-4.025232
1747672166.0972824,0.8958731,-1.7207257,2.008408,3.551589,4.628038,-4.025232
1747672166.098272,0.8958731,-1.7207257,2.008408,3.551589,4.628038,-4.025232
1747672166.0991383,1.2722094,-1.2374923,0.18090743,3.2426624,4.23176,0.3221091
1747672166.1000218,1.2722094,-1.2374923,0.18090743,3.2426624,4.23176,0.3221091
1747672166.101033,1.2722094,-1.2374923,0.18090743,3.2426624,4.23176,0.3221091
1747672166.1019135,1.2722094,-1.2374923,0.18090743,3.2426624,4.23176,0.3221091
1747672166.1027164,1.2722094,-1.2374923,0.18090743,3.2426624,4.23176,0.3221091
1747672166.103515,1.2722094,-1.2374923,0.18090743,3.2426624,4.23176,0.3221091
1747672166.1043122,1.2722094,-1.2374923,0.18090743,2.7899256,2.196041,2.6891248
1747672166.105142,1.2722094,-1.2374923,0.18090743,2.7899256,2.196041,2.6891248
1747672166.1058998,1.2722094,-1.2374923,0.18090743,2.7899256,2.196041,2.6891248
1747672166.1066468,1.3888688,-1.1823354,-0.79825026,2.7899256,2.196041,2.6891248
1747672166.1074004,1.3888688,-1.1823354,-0.79825026,3.1095045,1.5004238,3.0545104
1747672166.1081374,1.3888688,-1.1823354,-0.79825026,3.1095045,1.5004238,3.0545104
1747672166.1088865,1.2722094,-1.2374923,0.18090743,3.1095045,1.5004238,3.0545104
1747672166.1103365,1.2722094,-1.2374923,0.18090743,3.1095045,1.5004238,3.0545104
1747672166.111146,1.2722094,-1.2374923,0.18090743,3.1095045,1.5004238,3.0545104
1747672166.1147606,1.2722094,-1.2374923,0.18090743,3.1095045,1.5004238,3.0545104
1747672166.115662,1.2722094,-1.2374923,0.18090743,3.1095045,1.5004238,3.0545104
1747672166.1164806,1.4562285,-0.86603713,-1.3400573,3.1095045,1.5004238,3.0545104
1747672166.117273,1.4562285,-0.86603713,-1.3400573,3.1095045,1.5004238,3.0545104
1747672166.1180446,1.4562285,-0.86603713,-1.3400573,3.1095045,1.5004238,3.0545104
1747672166.1188369,1.4562285,-0.86603713,-1.3400573,3.1095045,1.5004238,3.0545104
1747672166.1196265,1.4562285,-0.86603713,-1.3400573,3.1095045,1.5004238,3.0545104
1747672166.1205108,1.151157,-0.29103827,-2.0004761,2.028262,4.381962,1.9455708
1747672166.1213036,1.151157,-0.29103827,-2.0004761,2.028262,4.381962,1.9455708
1747672166.1221027,1.151157,-0.29103827,-2.0004761,2.028262,4.381962,1.9455708
1747672166.1228807,1.151157,-0.29103827,-2.0004761,2.028262,4.381962,1.9455708
1747672166.1236713,1.151157,-0.29103827,-2.0004761,2.028262,4.381962,1.9455708
1747672166.124946,1.151157,-0.29103827,-2.0004761,2.028262,4.381962,1.9455708
1747672166.1265068,1.151157,-0.29103827,-2.0004761,1.5052176,4.8048716,1.6654066
1747672166.1289515,1.151157,-0.29103827,-2.0004761,1.5052176,4.8048716,1.6654066
1747672166.1301615,1.151157,-0.29103827,-2.0004761,1.5052176,4.8048716,1.6654066
1747672166.130983,0.39946067,0.055523023,-2.050264,1.5052176,4.8048716,1.6654066
1747672166.1319404,0.39946067,0.055523023,-2.050264,1.5052176,4.8048716,1.6654066
1747672166.1342115,0.8343707,-0.1338654,-2.506651,1.5883081,4.341482,1.7154739
1747672166.1351376,0.8343707,-0.1338654,-2.506651,1.5883081,4.341482,1.7154739
1747672166.136032,0.8343707,-0.1338654,-2.506651,1.5883081,4.341482,1.7154739
1747672166.1371722,0.8343707,-0.1338654,-2.506651,1.5883081,4.341482,1.7154739
1747672166.1384425,0.8343707,-0.1338654,-2.506651,1.5883081,4.341482,1.7154739
1747672166.140316,0.8343707,-0.1338654,-2.506651,1.5883081,4.341482,1.7154739
1747672166.141809,0.8343707,-0.1338654,-2.506651,1.5883081,4.341482,1.7154739
1747672166.1425705,0.8343707,-0.1338654,-2.506651,1.5883081,4.341482,1.7154739
1747672166.1433852,0.8343707,-0.1338654,-2.506651,1.5883081,4.341482,1.7154739
1747672166.144138,0.8343707,-0.1338654,-2.506651,1.5883081,4.341482,1.7154739
1747672166.1448758,0.8343707,-0.1338654,-2.506651,1.5883081,4.341482,1.7154739
1747672166.1455963,0.8343707,-0.1338654,-2.506651,1.5883081,4.341482,1.7154739
1747672166.1473112,0.8343707,-0.1338654,-2.506651,1.5883081,4.341482,1.7154739
1747672166.1483958,2.1264098,0.4425978,-3.4052696,2.18166,1.0657963,1.5226612
1747672166.1492608,2.1264098,0.4425978,-3.4052696,2.18166,1.0657963,1.5226612
1747672166.15033,2.1264098,0.4425978,-3.4052696,2.18166,1.0657963,1.5226612
1747672166.1513274,2.1264098,0.4425978,-3.4052696,2.18166,1.0657963,1.5226612
1747672166.1523018,2.1264098,0.4425978,-3.4052696,2.18166,1.0657963,1.5226612
1747672166.153116,2.1264098,0.4425978,-3.4052696,2.18166,1.0657963,1.5226612
1747672166.1540167,2.1264098,0.4425978,-3.4052696,2.18166,1.0657963,1.5226612
1747672166.155376,2.1264098,0.4425978,-3.4052696,2.18166,1.0657963,1.5226612
1747672166.1616101,2.1264098,0.4425978,-3.4052696,2.052763,0.810133,1.1647326
1747672166.162538,1.6583079,1.1054573,-4.342938,1.1803122,1.0679268,-0.4779039
1747672166.1634314,1.6583079,1.1054573,-4.342938,1.1803122,1.0679268,-0.4779039
1747672166.1642444,1.6583079,1.1054573,-4.342938,1.1803122,1.0679268,-0.4779039
1747672166.1650312,1.6583079,1.1054573,-4.342938,1.1803122,1.0679268,-0.4779039
1747672166.1658378,1.6583079,1.1054573,-4.342938,1.1803122,1.0679268,-0.4779039
1747672166.166625,1.6583079,1.1054573,-4.342938,1.1803122,1.0679268,-0.4779039
1747672166.167489,1.6583079,1.1054573,-4.342938,1.1803122,1.0679268,-0.4779039
1747672166.1682734,1.6583079,1.1054573,-4.342938,1.1803122,1.0679268,-0.4779039
1747672166.1692457,1.6583079,1.1054573,-4.342938,0.5528718,0.6876277,-0.7804388
1747672166.1700292,0.81582236,1.3255969,-4.5542912,0.5528718,0.6876277,-0.7804388
1747672166.17085,0.81582236,1.3255969,-4.5542912,0.5528718,0.6876277,-0.7804388
1747672166.1718276,0.81582236,1.3255969,-4.5542912,0.5528718,0.6876277,-0.7804388
1747672166.172951,0.81582236,1.3255969,-4.5542912,0.5528718,0.6876277,-0.7804388
1747672166.1737552,0.81582236,1.3255969,-4.5542912,0.5528718,0.6876277,-0.7804388
1747672166.1745443,0.81582236,1.3255969,-4.5542912,0.5528718,0.6876277,-0.7804388
1747672166.175374,0.81582236,1.3255969,-4.5542912,0.5528718,0.6876277,-0.7804388
1747672166.1761518,0.81582236,1.3255969,-4.5542912,0.5528718,0.6876277,-0.7804388
1747672166.176944,0.81582236,1.3255969,-4.5542912,0.5528718,0.6876277,-0.7804388
1747672166.1777194,0.81582236,1.3255969,-4.5542912,0.5528718,0.6876277,-0.7804388
1747672166.1785052,0.81582236,1.3255969,-4.5542912,0.5528718,0.6876277,-0.7804388
1747672166.1792753,0.81582236,1.3255969,-4.5542912,0.5528718,0.6876277,-0.7804388
1747672166.180026,0.81582236,1.3255969,-4.5542912,0.5528718,0.6876277,-0.7804388
1747672166.1808074,0.81582236,1.3255969,-4.5542912,0.5528718,0.6876277,-0.7804388
1747672166.1815464,0.28231323,1.5467128,-4.3795466,0.5528718,0.6876277,-0.7804388
1747672166.1822789,0.28231323,1.5467128,-4.3795466,-0.0937432,-0.20186746,-0.8901609
1747672166.18392,0.28231323,1.5467128,-4.3795466,-0.0937432,-0.20186746,-0.8901609
1747672166.1849356,0.28231323,1.5467128,-4.3795466,-0.0937432,-0.20186746,-0.8901609
1747672166.1857536,0.28231323,1.5467128,-4.3795466,-0.0937432,-0.20186746,-0.8901609
1747672166.1867204,0.28231323,1.5467128,-4.3795466,-0.0937432,-0.20186746,-0.8901609
1747672166.1876209,0.28231323,1.5467128,-4.3795466,-0.0937432,-0.20186746,-0.8901609
1747672166.1887739,0.28231323,1.5467128,-4.3795466,-0.0937432,-0.20186746,-0.8901609
1747672166.1898625,0.28231323,1.5467128,-4.3795466,-0.0937432,-0.20186746,-0.8901609
1747672166.1910012,0.027517455,1.7297558,-3.90998,-0.41119176,-0.61518973,-1.1458242
1747672166.1920993,0.027517455,1.7297558,-3.90998,-0.41119176,-0.61518973,-1.1458242
1747672166.193267,0.027517455,1.7297558,-3.90998,-0.41119176,-0.61518973,-1.1458242
1747672166.194201,0.027517455,1.7297558,-3.90998,-0.41119176,-0.61518973,-1.1458242
1747672166.1952572,0.027517455,1.7297558,-3.90998,-0.41119176,-0.61518973,-1.1458242
1747672166.1960564,0.027517455,1.7297558,-3.90998,-0.41119176,-0.61518973,-1.1458242
1747672166.1968987,0.027517455,1.7297558,-3.90998,-0.41119176,-0.61518973,-1.1458242
1747672166.1976964,0.027517455,1.7297558,-3.90998,-0.41119176,-0.61518973,-1.1458242
1747672166.1984842,0.027517455,1.7297558,-3.90998,-0.41119176,-0.61518973,-1.1458242
1747672166.1992593,0.027517455,1.7297558,-3.90998,-0.41119176,-0.61518973,-1.1458242
1747672166.2000518,0.027517455,1.7297558,-3.90998,-0.41119176,-0.61518973,-1.1458242
1747672166.2008915,0.027517455,1.7297558,-3.90998,-0.2428801,-0.71852034,-1.6560855
1747672166.201786,-0.4254528,1.6619078,-3.2100239,-0.2428801,-0.71852034,-1.6560855
1747672166.202732,-0.4254528,1.6619078,-3.2100239,-0.2428801,-0.71852034,-1.6560855
1747672166.2038605,-0.4254528,1.6619078,-3.2100239,-0.2428801,-0.71852034,-1.6560855
1747672166.204656,-0.4254528,1.6619078,-3.2100239,-0.2428801,-0.71852034,-1.6560855
1747672166.2058518,-0.4254528,1.6619078,-3.2100239,-0.2428801,-0.71852034,-1.6560855
1747672166.2066526,-0.4254528,1.6619078,-3.2100239,-0.2428801,-0.71852034,-1.6560855
1747672166.2074313,-0.4254528,1.6619078,-3.2100239,-0.2428801,-0.71852034,-1.6560855
1747672166.2083921,-0.4254528,1.6619078,-3.2100239,-0.2428801,-0.71852034,-1.6560855
1747672166.2091877,-1.1327306,1.3963735,-2.8449144,0.3046654,-0.72917295,-1.7967002
1747672166.2100534,-1.1327306,1.3963735,-2.8449144,0.3046654,-0.72917295,-1.7967002
1747672166.2110267,-1.1327306,1.3963735,-2.8449144,0.3046654,-0.72917295,-1.7967002
1747672166.2115407,-1.1327306,1.3963735,-2.8449144,0.3046654,-0.72917295,-1.7967002
1747672166.2124596,-1.1327306,1.3963735,-2.8449144,0.3046654,-0.72917295,-1.7967002
1747672166.2132404,-1.1327306,1.3963735,-2.8449144,0.3046654,-0.72917295,-1.7967002
1747672166.2140377,-1.1327306,1.3963735,-2.8449144,0.3046654,-0.72917295,-1.7967002
1747672166.2148285,-1.1327306,1.3963735,-2.8449144,0.3046654,-0.72917295,-1.7967002
1747672166.2156367,-1.1327306,1.3963735,-2.8449144,0.3046654,-0.72917295,-1.7967002
1747672166.2163749,-1.6701448,0.9014255,-3.1758559,0.3046654,-0.72917295,-1.7967002
1747672166.217126,-1.6701448,0.9014255,-3.1758559,0.3046654,-0.72917295,-1.7967002
1747672166.2178571,-1.6701448,0.9014255,-3.1758559,0.92997515,-0.8889625,-1.6145402
1747672166.2186422,-1.6701448,0.9014255,-3.1758559,0.92997515,-0.8889625,-1.6145402
1747672166.219349,-1.6701448,0.9014255,-3.1758559,0.92997515,-0.8889625,-1.6145402
1747672166.2201135,-1.6701448,0.9014255,-3.1758559,0.92997515,-0.8889625,-1.6145402
1747672166.2215161,-1.6701448,0.9014255,-3.1758559,0.92997515,-0.8889625,-1.6145402
1747672166.2223904,-1.6701448,0.9014255,-3.1758559,0.92997515,-0.8889625,-1.6145402
1747672166.223271,-1.6701448,0.9014255,-3.1758559,0.92997515,-0.8889625,-1.6145402
1747672166.2243412,-1.6701448,0.9014255,-3.1758559,0.92997515,-0.8889625,-1.6145402
1747672166.2252047,-1.6701448,0.9014255,-3.1758559,0.92997515,-0.8889625,-1.6145402
1747672166.2260168,-1.6701448,0.9014255,-3.1758559,0.92997515,-0.8889625,-1.6145402
1747672166.226802,-1.6701448,0.9014255,-3.1758559,0.92997515,-0.8889625,-1.6145402
1747672166.2275946,-1.6701448,0.9014255,-3.1758559,0.92997515,-0.8889625,-1.6145402
1747672166.2285194,-1.6701448,0.9014255,-3.1758559,0.92997515,-0.8889625,-1.6145402
1747672166.2293577,-2.10115,0.3405819,-3.5941699,1.0631331,-0.9582046,-0.9764473
1747672166.2301605,-2.10115,0.3405819,-3.5941699,1.0631331,-0.9582046,-0.9764473
1747672166.2309508,-2.10115,0.3405819,-3.5941699,1.0631331,-0.9582046,-0.9764473
1747672166.2320178,-2.10115,0.3405819,-3.5941699,1.0631331,-0.9582046,-0.9764473
1747672166.232855,-2.10115,0.3405819,-3.5941699,1.0631331,-0.9582046,-0.9764473
1747672166.2336245,-2.10115,0.3405819,-3.5941699,1.0631331,-0.9582046,-0.9764473
1747672166.2356496,-2.10115,0.3405819,-3.5941699,1.0631331,-0.9582046,-0.9764473
1747672166.2365558,-2.10115,0.3405819,-3.5941699,1.0631331,-0.9582046,-0.9764473
1747672166.2375767,-2.10115,0.3405819,-3.5941699,1.0631331,-0.9582046,-0.9764473
1747672166.2386608,-2.3803513,-0.1275199,-3.9085157,0.6657898,-0.8974846,0.236888
1747672166.2394617,-2.3803513,-0.1275199,-3.9085157,0.6657898,-0.8974846,0.236888
1747672166.240377,-2.3803513,-0.1275199,-3.9085157,0.6657898,-0.8974846,0.236888
1747672166.2414782,-2.3803513,-0.1275199,-3.9085157,0.6657898,-0.8974846,0.236888
1747672166.2422779,-2.3803513,-0.1275199,-3.9085157,0.6657898,-0.8974846,0.236888
1747672166.243056,-2.3803513,-0.1275199,-3.9085157,0.6657898,-0.8974846,0.236888
1747672166.2438436,-2.3803513,-0.1275199,-3.9085157,0.6657898,-0.8974846,0.236888
1747672166.2447054,-2.3803513,-0.1275199,-3.9085157,0.6657898,-0.8974846,0.236888
1747672166.245501,-2.3803513,-0.1275199,-3.9085157,0.6657898,-0.8974846,0.236888
1747672166.24662,-2.3803513,-0.1275199,-3.9085157,0.6657898,-0.8974846,0.236888
1747672166.248727,-1.8839389,-0.3359448,-4.1686807,-0.2727075,-1.3651353,1.6749939
1747672166.2495582,-1.8839389,-0.3359448,-4.1686807,-0.2727075,-1.3651353,1.6749939
1747672166.2512128,-1.8839389,-0.3359448,-4.1686807,-0.2727075,-1.3651353,1.6749939
1747672166.2521589,-1.8839389,-0.3359448,-4.1686807,-0.2727075,-1.3651353,1.6749939
1747672166.2529695,-1.8839389,-0.3359448,-4.1686807,-0.2727075,-1.3651353,1.6749939
1747672166.2537868,-1.8839389,-0.3359448,-4.1686807,-0.2727075,-1.3651353,1.6749939
1747672166.2545488,-1.8839389,-0.3359448,-4.1686807,-0.2727075,-1.3651353,1.6749939
1747672166.255296,-1.8839389,-0.3359448,-4.1686807,-0.2727075,-1.3651353,1.6749939
1747672166.256039,-1.8839389,-0.3359448,-4.1686807,-0.2727075,-1.3651353,1.6749939
1747672166.2567291,-1.8839389,-0.3359448,-4.1686807,-0.2727075,-1.3651353,1.6749939
1747672166.2584007,-1.8839389,-0.3359448,-4.1686807,-0.2727075,-1.3651353,1.6749939
1747672166.2593014,-0.9701886,-0.5790258,-4.0119963,-1.7715335,-3.0546434,3.0118997
1747672166.2602124,-0.9701886,-0.5790258,-4.0119963,-1.7715335,-3.0546434,3.0118997
1747672166.2610278,-0.9701886,-0.5790258,-4.0119963,-1.7715335,-3.0546434,3.0118997
1747672166.2619727,-0.9701886,-0.5790258,-4.0119963,-1.7715335,-3.0546434,3.0118997
1747672166.262873,-0.9701886,-0.5790258,-4.0119963,-1.7715335,-3.0546434,3.0118997
1747672166.2636783,-0.9701886,-0.5790258,-4.0119963,-1.7715335,-3.0546434,3.0118997
1747672166.2647479,-0.9701886,-0.5790258,-4.0119963,-1.7715335,-3.0546434,3.0118997
1747672166.265686,-0.9701886,-0.5790258,-4.0119963,-1.7715335,-3.0546434,3.0118997
1747672166.2664788,-0.9701886,-0.5790258,-4.0119963,-1.7715335,-3.0546434,3.0118997
1747672166.2677202,-0.9701886,-0.5790258,-4.0119963,-1.7715335,-3.0546434,3.0118997
1747672166.268578,-0.9701886,-0.5790258,-4.0119963,-1.7715335,-3.0546434,3.0118997
1747672166.2693808,-0.9701886,-0.5790258,-4.0119963,-1.7715335,-3.0546434,3.0118997
1747672166.2703717,-0.9701886,-0.5790258,-4.0119963,-1.7715335,-3.0546434,3.0118997
1747672166.271321,-0.9701886,-0.5790258,-4.0119963,-1.7715335,-3.0546434,3.0118997
1747672166.2726254,-0.44790605,-0.6659102,-3.5477993,-2.4032347,-4.0655785,3.4902031
1747672166.2736838,-0.44790605,-0.6659102,-3.5477993,-2.4032347,-4.0655785,3.4902031
1747672166.274838,-0.44790605,-0.6659102,-3.5477993,-2.4032347,-4.0655785,3.4902031
1747672166.27593,-0.44790605,-0.6659102,-3.5477993,-2.4032347,-4.0655785,3.4902031
1747672166.277002,-0.44790605,-0.6659102,-3.5477993,-2.4032347,-4.0655785,3.4902031
1747672166.278796,-0.44790605,-0.6659102,-3.5477993,-2.4032347,-4.0655785,3.4902031
1747672166.2798662,-0.44790605,-0.6659102,-3.5477993,-2.9443886,-5.5207286,3.9770286
1747672166.2806711,-0.44790605,-0.6659102,-3.5477993,-2.9443886,-5.5207286,3.9770286
1747672166.2815247,-0.44790605,-0.6659102,-3.5477993,-2.9443886,-5.5207286,3.9770286
1747672166.2823372,0.38969842,-0.7991654,-2.5910947,-2.9443886,-5.5207286,3.9770286
1747672166.2837203,0.38969842,-0.7991654,-2.5910947,-2.9443886,-5.5207286,3.9770286
1747672166.2847774,0.38969842,-0.7991654,-2.5910947,-2.9443886,-5.5207286,3.9770286
1747672166.2857718,0.38969842,-0.7991654,-2.5910947,-2.9443886,-5.5207286,3.9770286
1747672166.2866023,0.38969842,-0.7991654,-2.5910947,-2.9443886,-5.5207286,3.9770286
1747672166.287395,0.38969842,-0.7991654,-2.5910947,-2.9443886,-5.5207286,3.9770286
1747672166.2885027,0.38969842,-0.7991654,-2.5910947,-2.9443886,-5.5207286,3.9770286
1747672166.289294,0.38969842,-0.7991654,-2.5910947,-2.9443886,-5.5207286,3.9770286
1747672166.2901266,0.38969842,-0.7991654,-2.5910947,-2.9443886,-5.5207286,3.9770286
1747672166.290908,0.38969842,-0.7991654,-2.5910947,-2.9443886,-5.5207286,3.9770286
1747672166.2916913,1.1965517,-0.91436046,-1.5992461,-2.7696855,-6.705302,4.0537276
1747672166.292466,1.1965517,-0.91436046,-1.5992461,-2.7696855,-6.705302,4.0537276
1747672166.2932343,1.1965517,-0.91436046,-1.5992461,-2.7696855,-6.705302,4.0537276
1747672166.294034,1.1965517,-0.91436046,-1.5992461,-2.7696855,-6.705302,4.0537276
1747672166.2954524,1.1965517,-0.91436046,-1.5992461,-2.7696855,-6.705302,4.0537276
1747672166.2965436,1.1965517,-0.91436046,-1.5992461,-2.7696855,-6.705302,4.0537276
1747672166.2994688,1.1965517,-0.91436046,-1.5992461,-2.7696855,-6.705302,4.0537276
1747672166.3002853,1.1965517,-0.91436046,-1.5992461,-2.7696855,-6.705302,4.0537276
1747672166.3010774,1.1965517,-0.91436046,-1.5992461,-2.7696855,-6.705302,4.0537276
1747672166.302009,1.1965517,-0.91436046,-1.5992461,-2.7696855,-6.705302,4.0537276
1747672166.3028288,1.1965517,-0.91436046,-1.5992461,-2.7696855,-6.705302,4.0537276
1747672166.3036542,1.1965517,-0.91436046,-1.5992461,-2.7696855,-6.705302,4.0537276
1747672166.3045185,1.1965517,-0.91436046,-1.5992461,-2.7696855,-6.705302,4.0537276
1747672166.305302,1.1965517,-0.91436046,-1.5992461,-2.7696855,-6.705302,4.0537276
1747672166.306081,1.1965517,-0.91436046,-1.5992461,-2.7696855,-6.705302,4.0537276
1747672166.3069694,1.1965517,-0.91436046,-1.5992461,-2.7696855,-6.705302,4.0537276
1747672166.308202,1.1965517,-0.91436046,-1.5992461,-2.7696855,-6.705302,4.0537276
1747672166.3093178,1.9965713,-1.3707476,-1.1165009,-2.356363,-6.995054,3.9141781
1747672166.311118,1.9965713,-1.3707476,-1.1165009,-2.356363,-6.995054,3.9141781
1747672166.3116474,1.9965713,-1.3707476,-1.1165009,-2.356363,-6.995054,3.9141781
1747672166.3125527,1.9965713,-1.3707476,-1.1165009,-2.356363,-6.995054,3.9141781
1747672166.3138018,1.9965713,-1.3707476,-1.1165009,-2.356363,-6.995054,3.9141781
1747672166.314588,1.9965713,-1.3707476,-1.1165009,-2.356363,-6.995054,3.9141781
1747672166.3153803,1.9965713,-1.3707476,-1.1165009,-2.356363,-6.995054,3.9141781
1747672166.316177,1.9965713,-1.3707476,-1.1165009,-2.356363,-6.995054,3.9141781
1747672166.316958,1.9965713,-1.3707476,-1.1165009,-2.356363,-6.995054,3.9141781
1747672166.317753,2.1532562,-1.6855814,-1.508945,-1.7619461,-6.560426,3.0843377
1747672166.318807,2.1532562,-1.6855814,-1.508945,-1.7619461,-6.560426,3.0843377
1747672166.3198028,2.1532562,-1.6855814,-1.508945,-1.7619461,-6.560426,3.0843377
1747672166.3205905,2.1532562,-1.6855814,-1.508945,-1.7619461,-6.560426,3.0843377
1747672166.3217335,2.1532562,-1.6855814,-1.508945,-1.7619461,-6.560426,3.0843377
1747672166.3227947,2.1532562,-1.6855814,-1.508945,-1.7619461,-6.560426,3.0843377
1747672166.3238428,2.1532562,-1.6855814,-1.508945,-1.7619461,-6.560426,3.0843377
1747672166.3246286,2.1532562,-1.6855814,-1.508945,-1.7619461,-6.560426,3.0843377
1747672166.3256686,2.1532562,-1.6855814,-1.508945,-1.7619461,-6.560426,3.0843377
1747672166.326448,2.1532562,-1.6855814,-1.508945,-1.7619461,-6.560426,3.0843377
1747672166.3272238,2.1532562,-1.6855814,-1.508945,-1.7619461,-6.560426,3.0843377
1747672166.3281202,2.1532562,-1.6855814,-1.508945,-1.7619461,-6.560426,3.0843377
1747672166.3289063,2.1532562,-1.6855814,-1.508945,-1.7619461,-6.560426,3.0843377
1747672166.3296611,2.1532562,-1.6855814,-1.508945,-1.7619461,-6.560426,3.0843377
1747672166.3304608,2.1815667,-1.9838194,-1.7661812,-2.2881863,-6.297306,2.790325
1747672166.3311927,2.1815667,-1.9838194,-1.7661812,-2.2881863,-6.297306,2.790325
1747672166.3319588,2.1815667,-1.9838194,-1.7661812,-2.2881863,-6.297306,2.790325
1747672166.332654,2.1815667,-1.9838194,-1.7661812,-2.2881863,-6.297306,2.790325
1747672166.3342638,2.1815667,-1.9838194,-1.7661812,-2.2881863,-6.297306,2.790325
1747672166.3350542,2.1815667,-1.9838194,-1.7661812,-2.2881863,-6.297306,2.790325
1747672166.335856,2.195234,-2.4582667,-1.6504982,-3.6229618,-5.868005,2.4899206
1747672166.3369787,2.195234,-2.4582667,-1.6504982,-3.6229618,-5.868005,2.4899206
1747672166.3384447,2.195234,-2.4582667,-1.6504982,-3.6229618,-5.868005,2.4899206
1747672166.3395867,2.195234,-2.4582667,-1.6504982,-3.6229618,-5.868005,2.4899206
1747672166.3403804,2.195234,-2.4582667,-1.6504982,-3.6229618,-5.868005,2.4899206
1747672166.3412685,2.195234,-2.4582667,-1.6504982,-3.6229618,-5.868005,2.4899206
1747672166.342052,2.195234,-2.4582667,-1.6504982,-3.6229618,-5.868005,2.4899206
1747672166.3428311,2.195234,-2.4582667,-1.6504982,-3.6229618,-5.868005,2.4899206
1747672166.3436158,2.195234,-2.4582667,-1.6504982,-3.6229618,-5.868005,2.4899206
1747672166.3443973,2.195234,-2.4582667,-1.6504982,-3.6229618,-5.868005,2.4899206
1747672166.3457215,2.195234,-2.4582667,-1.6504982,-3.6229618,-5.868005,2.4899206
1747672166.3466527,2.195234,-2.4582667,-1.6504982,-3.6229618,-5.868005,2.4899206
1747672166.3475177,2.195234,-2.4582667,-1.6504982,-3.6229618,-5.868005,2.4899206
1747672166.348533,2.195234,-2.4582667,-1.6504982,-3.6229618,-5.868005,2.4899206
1747672166.3493683,2.1371484,-2.941012,-1.2697688,-4.796882,-5.5217943,2.4281354
1747672166.3501866,2.1371484,-2.941012,-1.2697688,-4.796882,-5.5217943,2.4281354
1747672166.3512716,2.1371484,-2.941012,-1.2697688,-4.796882,-5.5217943,2.4281354
1747672166.3522348,2.1371484,-2.941012,-1.2697688,-4.796882,-5.5217943,2.4281354
1747672166.3533459,2.1371484,-2.941012,-1.2697688,-4.796882,-5.5217943,2.4281354
1747672166.3541374,2.1371484,-2.941012,-1.2697688,-4.796882,-5.5217943,2.4281354
1747672166.3549333,2.1371484,-2.941012,-1.2697688,-4.796882,-5.5217943,2.4281354
1747672166.3557181,2.1371484,-2.941012,-1.2697688,-4.796882,-5.5217943,2.4281354
1747672166.3566575,1.9599628,-3.4193642,-0.7421171,-5.8568196,-5.0062065,2.6880596
1747672166.3575196,1.9599628,-3.4193642,-0.7421171,-5.8568196,-5.0062065,2.6880596
1747672166.35846,1.9599628,-3.4193642,-0.7421171,-5.8568196,-5.0062065,2.6880596
1747672166.3603997,1.9599628,-3.4193642,-0.7421171,-5.8568196,-5.0062065,2.6880596
1747672166.3611808,1.9599628,-3.4193642,-0.7421171,-5.8568196,-5.0062065,2.6880596
1747672166.361983,1.9599628,-3.4193642,-0.7421171,-5.8568196,-5.0062065,2.6880596
1747672166.3627546,1.9599628,-3.4193642,-0.7421171,-5.8568196,-5.0062065,2.6880596
1747672166.3635314,1.9599628,-3.4193642,-0.7421171,-5.8568196,-5.0062065,2.6880596
1747672166.3643484,1.9599628,-3.4193642,-0.7421171,-5.8568196,-5.0062065,2.6880596
1747672166.365132,1.9599628,-3.4193642,-0.7421171,-5.8568196,-5.0062065,2.6880596
1747672166.366007,1.9599628,-3.4193642,-0.7421171,-5.8568196,-5.0062065,2.6880596
1747672166.3667858,1.9599628,-3.4193642,-0.7421171,-5.8568196,-5.0062065,2.6880596
1747672166.3675897,1.701262,-3.67416,-0.29939723,-6.5716114,-4.4522696,3.2111042
1747672166.36841,1.701262,-3.67416,-0.29939723,-6.5716114,-4.4522696,3.2111042
1747672166.369295,1.701262,-3.67416,-0.29939723,-6.5716114,-4.4522696,3.2111042
1747672166.3700986,1.701262,-3.67416,-0.29939723,-6.5716114,-4.4522696,3.2111042
1747672166.370885,1.701262,-3.67416,-0.29939723,-6.5716114,-4.4522696,3.2111042
1747672166.3724532,1.701262,-3.67416,-0.29939723,-6.5716114,-4.4522696,3.2111042
1747672166.3733923,1.701262,-3.67416,-0.29939723,-6.5716114,-4.4522696,3.2111042
1747672166.374184,1.701262,-3.67416,-0.29939723,-6.5716114,-4.4522696,3.2111042
1747672166.3751063,1.701262,-3.67416,-0.29939723,-6.5716114,-4.4522696,3.2111042
1747672166.3760638,1.701262,-3.67416,-0.29939723,-6.5716114,-4.4522696,3.2111042
1747672166.3772514,1.701262,-3.67416,-0.29939723,-6.5716114,-4.4522696,3.2111042
1747672166.3783,1.701262,-3.67416,-0.29939723,-6.5716114,-4.4522696,3.2111042
1747672166.3792088,1.701262,-3.67416,-0.29939723,-6.5716114,-4.4522696,3.2111042
1747672166.3802412,1.701262,-3.67416,-0.29939723,-6.5716114,-4.4522696,3.2111042
1747672166.3813217,1.4894204,-3.8567147,0.25851765,-7.217161,-3.7545216,4.2145824
1747672166.382255,1.4894204,-3.8567147,0.25851765,-7.217161,-3.7545216,4.2145824
1747672166.3831444,1.4894204,-3.8567147,0.25851765,-7.217161,-3.7545216,4.2145824
1747672166.384084,1.4894204,-3.8567147,0.25851765,-7.217161,-3.7545216,4.2145824
1747672166.384869,1.4894204,-3.8567147,0.25851765,-7.217161,-3.7545216,4.2145824
1747672166.385686,1.4894204,-3.8567147,0.25851765,-7.217161,-3.7545216,4.2145824
1747672166.3864493,1.4894204,-3.8567147,0.25851765,-7.217161,-3.7545216,4.2145824
1747672166.3872612,1.4894204,-3.8567147,0.25851765,-7.217161,-3.7545216,4.2145824
1747672166.388042,1.4894204,-3.8567147,0.25851765,-7.217161,-3.7545216,4.2145824
1747672166.3889604,1.4894204,-3.8567147,0.25851765,-7.217161,-3.7545216,4.2145824
1747672166.3904998,1.4894204,-3.8567147,0.25851765,-7.217161,-3.7545216,4.2145824
1747672166.3914146,1.4894204,-3.8567147,0.25851765,-7.217161,-3.7545216,4.2145824
1747672166.3926382,1.7393351,-3.9279792,0.81350386,-7.579351,-3.0589046,5.222322
1747672166.3934178,1.7393351,-3.9279792,0.81350386,-7.579351,-3.0589046,5.222322
1747672166.3942533,1.7393351,-3.9279792,0.81350386,-7.579351,-3.0589046,5.222322
1747672166.3950872,1.7393351,-3.9279792,0.81350386,-7.579351,-3.0589046,5.222322
1747672166.3959236,1.7393351,-3.9279792,0.81350386,-7.579351,-3.0589046,5.222322
1747672166.3967185,1.7393351,-3.9279792,0.81350386,-7.579351,-3.0589046,5.222322
1747672166.3976333,1.7393351,-3.9279792,0.81350386,-7.579351,-3.0589046,5.222322
1747672166.3987677,1.7393351,-3.9279792,0.81350386,-7.579351,-3.0589046,5.222322
1747672166.3997822,2.464673,-3.7454243,1.3601921,-7.579351,-3.0589046,5.222322
1747672166.4011438,2.464673,-3.7454243,1.3601921,-7.579351,-3.0589046,5.222322
1747672166.4025936,2.464673,-3.7454243,1.3601921,-7.603852,-2.4335947,5.688907
1747672166.403456,2.464673,-3.7454243,1.3601921,-7.603852,-2.4335947,5.688907
1747672166.4042845,2.464673,-3.7454243,1.3601921,-7.603852,-2.4335947,5.688907
1747672166.4051232,2.464673,-3.7454243,1.3601921,-7.603852,-2.4335947,5.688907
1747672166.4058821,2.464673,-3.7454243,1.3601921,-7.603852,-2.4335947,5.688907
1747672166.406622,2.464673,-3.7454243,1.3601921,-7.603852,-2.4335947,5.688907
1747672166.40732,2.464673,-3.7454243,1.3601921,-7.603852,-2.4335947,5.688907
1747672166.4080408,2.464673,-3.7454243,1.3601921,-7.603852,-2.4335947,5.688907
1747672166.408804,2.464673,-3.7454243,1.3601921,-7.603852,-2.4335947,5.688907
1747672166.4104128,2.464673,-3.7454243,1.3601921,-7.603852,-2.4335947,5.688907
1747672166.4115076,2.464673,-3.7454243,1.3601921,-7.603852,-2.4335947,5.688907
1747672166.4125075,2.464673,-3.7454243,1.3601921,-7.603852,-2.4335947,5.688907
1747672166.4136078,2.464673,-3.7454243,1.3601921,-7.603852,-2.4335947,5.688907
1747672166.414721,2.464673,-3.7454243,1.3601921,-7.603852,-2.4335947,5.688907
1747672166.4157054,3.1104486,-3.4901407,1.6750259,-7.285338,-2.1481042,5.2106037
1747672166.4164934,3.1104486,-3.4901407,1.6750259,-7.285338,-2.1481042,5.2106037
1747672166.4173083,3.1104486,-3.4901407,1.6750259,-7.285338,-2.1481042,5.2106037
1747672166.4180875,3.1104486,-3.4901407,1.6750259,-7.285338,-2.1481042,5.2106037
1747672166.4188795,3.3623157,-3.3144195,1.790221,-6.942323,-2.1992369,4.514987
1747672166.4198024,3.3623157,-3.3144195,1.790221,-6.942323,-2.1992369,4.514987
1747672166.420621,3.3623157,-3.3144195,1.790221,-6.942323,-2.1992369,4.514987
1747672166.4214027,3.3623157,-3.3144195,1.790221,-6.942323,-2.1992369,4.514987
1747672166.422218,3.3623157,-3.3144195,1.790221,-6.942323,-2.1992369,4.514987
1747672166.423414,3.3623157,-3.3144195,1.790221,-6.942323,-2.1992369,4.514987
1747672166.4242327,3.3623157,-3.3144195,1.790221,-6.942323,-2.1992369,4.514987
1747672166.425051,3.3623157,-3.3144195,1.790221,-6.942323,-2.1992369,4.514987
1747672166.4259696,3.2534661,-3.1235666,1.8507471,-6.4554977,-2.6615613,3.5115085
1747672166.426857,3.2534661,-3.1235666,1.8507471,-6.4554977,-2.6615613,3.5115085
1747672166.4278886,3.2534661,-3.1235666,1.8507471,-6.4554977,-2.6615613,3.5115085
1747672166.42867,3.2534661,-3.1235666,1.8507471,-6.4554977,-2.6615613,3.5115085
1747672166.4296277,3.2534661,-3.1235666,1.8507471,-6.4554977,-2.6615613,3.5115085
1747672166.4316983,3.2534661,-3.1235666,1.8507471,-6.4554977,-2.6615613,3.5115085
1747672166.4325225,3.2534661,-3.1235666,1.8507471,-6.4554977,-2.6615613,3.5115085
1747672166.433538,3.2534661,-3.1235666,1.8507471,-6.4554977,-2.6615613,3.5115085
1747672166.4343448,3.2534661,-3.1235666,1.8507471,-6.4554977,-2.6615613,3.5115085
1747672166.4353454,3.2534661,-3.1235666,1.8507471,-6.4554977,-2.6615613,3.5115085
1747672166.4361463,3.2534661,-3.1235666,1.8507471,-6.4554977,-2.6615613,3.5115085
1747672166.4369452,3.2534661,-3.1235666,1.8507471,-6.4554977,-2.6615613,3.5115085
1747672166.4389465,3.2534661,-3.1235666,1.8507471,-6.4554977,-2.6615613,3.5115085
1747672166.439761,3.2534661,-3.1235666,1.8507471,-6.4554977,-2.6615613,3.5115085
1747672166.4406219,3.2534661,-3.1235666,1.8507471,-5.9526935,-3.4136374,2.7594323
1747672166.4415605,3.2534661,-3.1235666,1.8507471,-5.9526935,-3.4136374,2.7594323
1747672166.4425452,3.2534661,-3.1235666,1.8507471,-5.9526935,-3.4136374,2.7594323
1747672166.4433262,3.2534661,-3.1235666,1.8507471,-5.9526935,-3.4136374,2.7594323
1747672166.4441729,3.2534661,-3.1235666,1.8507471,-5.9526935,-3.4136374,2.7594323
1747672166.4449654,3.2534661,-3.1235666,1.8507471,-5.9526935,-3.4136374,2.7594323
1747672166.4457598,3.2534661,-3.1235666,1.8507471,-5.9526935,-3.4136374,2.7594323
1747672166.4465203,3.2534661,-3.1235666,1.8507471,-5.9526935,-3.4136374,2.7594323
1747672166.4472961,2.3114052,-2.9659057,1.7555648,-5.491434,-4.175301,2.4707458
1747672166.4490166,2.3114052,-2.9659057,1.7555648,-5.491434,-4.175301,2.4707458
1747672166.450514,2.3114052,-2.9659057,1.7555648,-5.491434,-4.175301,2.4707458
1747672166.451491,2.3114052,-2.9659057,1.7555648,-5.491434,-4.175301,2.4707458
1747672166.4529645,2.3114052,-2.9659057,1.7555648,-5.491434,-4.175301,2.4707458
1747672166.4544284,2.3114052,-2.9659057,1.7555648,-5.491434,-4.175301,2.4707458
1747672166.4556162,2.3114052,-2.9659057,1.7555648,-5.491434,-4.175301,2.4707458
1747672166.4580812,2.3114052,-2.9659057,1.7555648,-5.491434,-4.175301,2.4707458
1747672166.4589698,2.3114052,-2.9659057,1.7555648,-5.491434,-4.175301,2.4707458
1747672166.459943,2.3114052,-2.9659057,1.7555648,-5.491434,-4.175301,2.4707458
1747672166.4609914,1.9189612,-2.907332,1.6320719,-5.1654634,-4.587558,2.6017733
1747672166.4623013,1.9189612,-2.907332,1.6320719,-5.1654634,-4.587558,2.6017733
1747672166.4630933,1.9189612,-2.907332,1.6320719,-5.1654634,-4.587558,2.6017733
1747672166.4640255,1.9189612,-2.907332,1.6320719,-5.1654634,-4.587558,2.6017733
1747672166.464982,1.9189612,-2.907332,1.6320719,-5.1654634,-4.587558,2.6017733
1747672166.4658158,1.9189612,-2.907332,1.6320719,-5.1654634,-4.587558,2.6017733
1747672166.4666421,1.9189612,-2.907332,1.6320719,-5.1654634,-4.587558,2.6017733
1747672166.4675167,1.6841781,-2.8824382,1.5398183,-5.1654634,-4.587558,2.6017733
1747672166.4690382,1.6841781,-2.8824382,1.5398183,-4.9960866,-4.728173,2.9746156
1747672166.4705012,1.6841781,-2.8824382,1.5398183,-4.9960866,-4.728173,2.9746156
1747672166.471452,1.6841781,-2.8824382,1.5398183,-4.9960866,-4.728173,2.9746156
1747672166.4755707,1.6841781,-2.8824382,1.5398183,-4.9960866,-4.728173,2.9746156
1747672166.4790452,1.6841781,-2.8824382,1.5398183,-4.9726505,-4.6099286,3.3613062
1747672166.4810305,1.551899,-2.8614492,1.4885662,-4.9726505,-4.6099286,3.3613062
1747672166.4818518,1.551899,-2.8614492,1.4885662,-4.9726505,-4.6099286,3.3613062
1747672166.4825761,1.551899,-2.8614492,1.4885662,-4.9726505,-4.6099286,3.3613062
1747672166.4831226,1.551899,-2.8614492,1.4885662,-4.9726505,-4.6099286,3.3613062
1747672166.4836802,1.551899,-2.8614492,1.4885662,-4.9726505,-4.6099286,3.3613062
1747672166.4842257,1.551899,-2.8614492,1.4885662,-4.9726505,-4.6099286,3.3613062
1747672166.4847763,1.551899,-2.8614492,1.4885662,-4.9726505,-4.6099286,3.3613062
1747672166.485322,1.551899,-2.8614492,1.4885662,-4.9726505,-4.6099286,3.3613062
1747672166.4858675,1.551899,-2.8614492,1.4885662,-4.9726505,-4.6099286,3.3613062
1747672166.491186,1.4176675,-2.7848153,1.4680654,-4.9726505,-4.6099286,3.3613062
1747672166.4917095,1.4176675,-2.7848153,1.4680654,-4.9726505,-4.6099286,3.3613062
1747672166.4923236,1.4176675,-2.7848153,1.4680654,-4.9726505,-4.6099286,3.3613062
1747672166.4929328,1.4176675,-2.7848153,1.4680654,-4.9726505,-4.6099286,3.3613062
1747672166.4936028,1.4176675,-2.7848153,1.4680654,-5.095156,-4.261587,3.9152434
1747672166.4942226,1.4176675,-2.7848153,1.4680654,-5.095156,-4.261587,3.9152434
1747672166.4947567,1.4176675,-2.7848153,1.4680654,-5.095156,-4.261587,3.9152434
1747672166.4954722,1.4176675,-2.7848153,1.4680654,-5.095156,-4.261587,3.9152434
1747672166.496469,1.4176675,-2.7848153,1.4680654,-5.095156,-4.261587,3.9152434
1747672166.4970906,1.4176675,-2.7848153,1.4680654,-5.095156,-4.261587,3.9152434
1747672166.4977334,1.4176675,-2.7848153,1.4680654,-5.095156,-4.261587,3.9152434
1747672166.4983947,1.4176675,-2.7848153,1.4680654,-5.095156,-4.261587,3.9152434
1747672166.5014071,1.5084568,-2.7613857,1.7179799,-5.2879686,-3.7225637,4.44681
1747672166.5021262,1.5084568,-2.7613857,1.7179799,-5.2879686,-3.7225637,4.44681
1747672166.503477,1.5084568,-2.7613857,1.7179799,-5.2879686,-3.7225637,4.44681
1747672166.5043921,1.5084568,-2.7613857,1.7179799,-5.2879686,-3.7225637,4.44681
1747672166.5050204,1.5084568,-2.7613857,1.7179799,-5.2879686,-3.7225637,4.44681
1747672166.5093362,1.5084568,-2.7613857,1.7179799,-5.2879686,-3.7225637,4.44681
1747672166.5100887,1.7061431,-2.7399087,2.0313494,-5.2879686,-3.7225637,4.44681
1747672166.510694,1.7061431,-2.7399087,2.0313494,-5.2879686,-3.7225637,4.44681
1747672166.511834,1.7061431,-2.7399087,2.0313494,-5.2879686,-3.7225637,4.44681
1747672166.5124485,1.7061431,-2.7399087,2.0313494,-5.2879686,-3.7225637,4.44681
1747672166.5131369,1.7061431,-2.7399087,2.0313494,-5.2879686,-3.7225637,4.44681
1747672166.514112,1.7061431,-2.7399087,2.0313494,-5.2666636,-2.887397,4.7887597
1747672166.5155017,1.8476964,-2.625202,2.3271468,-4.9034085,-2.3643527,4.806869
1747672166.5173795,1.8476964,-2.625202,2.3271468,-4.9034085,-2.3643527,4.806869
1747672166.5182052,1.8476964,-2.625202,2.3271468,-4.9034085,-2.3643527,4.806869
1747672166.5189724,1.8476964,-2.625202,2.3271468,-4.9034085,-2.3643527,4.806869
1747672166.519912,1.8476964,-2.625202,2.3271468,-4.9034085,-2.3643527,4.806869
1747672166.520466,1.8476964,-2.625202,2.3271468,-4.9034085,-2.3643527,4.806869
1747672166.52104,1.8476964,-2.625202,2.3271468,-4.9034085,-2.3643527,4.806869
1747672166.521588,1.8476964,-2.625202,2.3271468,-4.9034085,-2.3643527,4.806869
1747672166.5221415,1.8476964,-2.625202,2.3271468,-4.9034085,-2.3643527,4.806869
1747672166.522686,1.8476964,-2.625202,2.3271468,-4.9034085,-2.3643527,4.806869
1747672166.5232487,1.8476964,-2.625202,2.3271468,-4.9034085,-2.3643527,4.806869
1747672166.5237892,1.8476964,-2.625202,2.3271468,-4.9034085,-2.3643527,4.806869
1747672166.525224,1.8476964,-2.625202,2.3271468,-4.9034085,-2.3643527,4.806869
1747672166.5259285,1.9248186,-2.4611952,2.485784,-4.2248354,-2.2461083,4.684364
1747672166.5272832,1.9248186,-2.4611952,2.485784,-4.2248354,-2.2461083,4.684364
1747672166.529326,1.9248186,-2.4611952,2.485784,-4.2248354,-2.2461083,4.684364
1747672166.531011,1.9248186,-2.4611952,2.485784,-4.2248354,-2.2461083,4.684364
1747672166.5315542,1.9248186,-2.4611952,2.485784,-4.2248354,-2.2461083,4.684364
1747672166.5321083,1.9248186,-2.4611952,2.485784,-4.2248354,-2.2461083,4.684364
1747672166.5372715,1.9248186,-2.4611952,2.485784,-4.2248354,-2.2461083,4.684364
1747672166.5397449,1.8662447,-2.3162253,2.459426,-3.35345,-2.4687486,4.5586624
1747672166.5409567,1.8662447,-2.3162253,2.459426,-3.35345,-2.4687486,4.5586624
1747672166.5416007,1.8662447,-2.3162253,2.459426,-3.35345,-2.4687486,4.5586624
1747672166.5427763,1.8662447,-2.3162253,2.459426,-3.35345,-2.4687486,4.5586624
1747672166.5433083,1.8662447,-2.3162253,2.459426,-3.35345,-2.4687486,4.5586624
1747672166.5438628,1.8662447,-2.3162253,2.459426,-3.35345,-2.4687486,4.5586624
1747672166.544826,1.8662447,-2.3162253,2.459426,-3.35345,-2.4687486,4.5586624
1747672166.5458322,1.8662447,-2.3162253,2.459426,-2.5001738,-3.0344036,4.5075297
1747672166.54649,1.8662447,-2.3162253,2.459426,-2.5001738,-3.0344036,4.5075297
1747672166.5485096,1.8662447,-2.3162253,2.459426,-2.5001738,-3.0344036,4.5075297
1747672166.5495782,1.8662447,-2.3162253,2.459426,-2.5001738,-3.0344036,4.5075297
1747672166.550228,1.8662447,-2.3162253,2.459426,-2.5001738,-3.0344036,4.5075297
1747672166.5509074,1.8662447,-2.3162253,2.459426,-2.5001738,-3.0344036,4.5075297
1747672166.5520878,1.8662447,-2.3162253,2.459426,-2.5001738,-3.0344036,4.5075297
1747672166.553254,1.8662447,-2.3162253,2.459426,-2.5001738,-3.0344036,4.5075297
1747672166.5539196,1.8662447,-2.3162253,2.459426,-2.5001738,-3.0344036,4.5075297
1747672166.554548,1.8662447,-2.3162253,2.459426,-2.5001738,-3.0344036,4.5075297
1747672166.5558145,1.8662447,-2.3162253,2.459426,-2.5001738,-3.0344036,4.5075297
1747672166.55643,1.8662447,-2.3162253,2.459426,-2.5001738,-3.0344036,4.5075297
1747672166.5575733,1.5299338,-1.9716165,1.8507471,-2.0090873,-3.5425344,4.5629234
1747672166.55812,1.5299338,-1.9716165,1.8507471,-2.0090873,-3.5425344,4.5629234
1747672166.5586843,1.5299338,-1.9716165,1.8507471,-2.0090873,-3.5425344,4.5629234
1747672166.5592244,1.5299338,-1.9716165,1.8507471,-2.0090873,-3.5425344,4.5629234
1747672166.559775,1.5299338,-1.9716165,1.8507471,-2.0090873,-3.5425344,4.5629234
1747672166.560317,1.5299338,-1.9716165,1.8507471,-2.0090873,-3.5425344,4.5629234
1747672166.5608628,1.5299338,-1.9716165,1.8507471,-2.0090873,-3.5425344,4.5629234
1747672166.5614073,1.5299338,-1.9716165,1.8507471,-2.0090873,-3.5425344,4.5629234
1747672166.5619497,1.5299338,-1.9716165,1.8507471,-2.0090873,-3.5425344,4.5629234
1747672166.563373,1.5299338,-1.9716165,1.8507471,-2.0090873,-3.5425344,4.5629234
1747672166.5687556,1.3307831,-1.7807637,1.4177896,-1.8120135,-3.650126,4.7876945
1747672166.5704372,1.3307831,-1.7807637,1.4177896,-1.8120135,-3.650126,4.7876945
1747672166.571087,1.3307831,-1.7807637,1.4177896,-1.8120135,-3.650126,4.7876945
1747672166.5717087,1.3307831,-1.7807637,1.4177896,-1.8120135,-3.650126,4.7876945
1747672166.5723357,1.3307831,-1.7807637,1.4177896,-1.8120135,-3.650126,4.7876945
1747672166.5729535,1.3307831,-1.7807637,1.4177896,-1.8120135,-3.650126,4.7876945
1747672166.5736294,1.3307831,-1.7807637,1.4177896,-1.8120135,-3.650126,4.7876945
1747672166.5742524,1.3307831,-1.7807637,1.4177896,-1.8120135,-3.650126,4.7876945
1747672166.574858,1.3307831,-1.7807637,1.4177896,-1.8120135,-3.650126,4.7876945
1747672166.5754893,1.3307831,-1.7807637,1.4177896,-1.8120135,-3.650126,4.7876945
1747672166.5761292,1.3307831,-1.7807637,1.4177896,-1.8120135,-3.650126,4.7876945
1747672166.576753,1.3307831,-1.7807637,1.4177896,-1.8120135,-3.650126,4.7876945
1747672166.5779483,1.3307831,-1.7807637,1.4177896,-1.8120135,-3.650126,4.7876945
1747672166.5794628,1.1252869,-1.3336508,0.8588985,-2.3169484,-2.9651613,5.2894335
1747672166.5807745,1.1252869,-1.3336508,0.8588985,-2.3169484,-2.9651613,5.2894335
1747672166.5819592,1.1252869,-1.3336508,0.8588985,-2.3169484,-2.9651613,5.2894335
1747672166.5831382,1.1252869,-1.3336508,0.8588985,-2.3169484,-2.9651613,5.2894335
1747672166.5838032,1.1252869,-1.3336508,0.8588985,-2.3169484,-2.9651613,5.2894335
1747672166.584953,1.1252869,-1.3336508,0.8588985,-2.3169484,-2.9651613,5.2894335
1747672166.5861702,1.1252869,-1.3336508,0.8588985,-2.3169484,-2.9651613,5.2894335
1747672166.5873957,1.1252869,-1.3336508,0.8588985,-2.3169484,-2.9651613,5.2894335
1747672166.5880215,1.1252869,-1.3336508,0.8588985,-2.3169484,-2.9651613,5.2894335
1747672166.5891702,1.1252869,-1.3336508,0.8588985,-2.3169484,-2.9651613,5.2894335
1747672166.5903053,1.1252869,-1.3336508,0.8588985,-2.3169484,-2.9651613,5.2894335
1747672166.5914574,1.1872776,-1.0080785,0.74858457,-2.3169484,-2.9651613,5.2894335
1747672166.5920334,1.1872776,-1.0080785,0.74858457,-2.977412,-2.2833927,5.6558843
1747672166.592584,1.1872776,-1.0080785,0.74858457,-2.977412,-2.2833927,5.6558843
1747672166.5931392,1.1872776,-1.0080785,0.74858457,-2.977412,-2.2833927,5.6558843
1747672166.593698,1.1872776,-1.0080785,0.74858457,-2.977412,-2.2833927,5.6558843
1747672166.594253,1.1872776,-1.0080785,0.74858457,-2.977412,-2.2833927,5.6558843
1747672166.594808,1.1872776,-1.0080785,0.74858457,-2.977412,-2.2833927,5.6558843
1747672166.5953712,1.1872776,-1.0080785,0.74858457,-2.977412,-2.2833927,5.6558843
1747672166.5959349,1.1872776,-1.0080785,0.74858457,-2.977412,-2.2833927,5.6558843
1747672166.5987406,1.1872776,-1.0080785,0.74858457,-2.977412,-2.2833927,5.6558843
1747672166.6003473,1.6363429,-0.6288135,0.7554182,-3.9574544,-1.2980237,6.068141
1747672166.601475,1.6363429,-0.6288135,0.7554182,-3.9574544,-1.2980237,6.068141
1747672166.6023388,1.6363429,-0.6288135,0.7554182,-3.9574544,-1.2980237,6.068141
1747672166.6034217,1.6363429,-0.6288135,0.7554182,-3.9574544,-1.2980237,6.068141
1747672166.604565,1.6363429,-0.6288135,0.7554182,-3.9574544,-1.2980237,6.068141
1747672166.6056514,1.6363429,-0.6288135,0.7554182,-3.9574544,-1.2980237,6.068141
1747672166.606719,1.6363429,-0.6288135,0.7554182,-3.9574544,-1.2980237,6.068141
1747672166.607748,1.6363429,-0.6288135,0.7554182,-3.9574544,-1.2980237,6.068141
1747672166.6087255,1.6363429,-0.6288135,0.7554182,-3.9574544,-1.2980237,6.068141
1747672166.6102355,1.6363429,-0.6288135,0.7554182,-3.9574544,-1.2980237,6.068141
1747672166.6114895,2.8253899,-0.35546938,1.014607,-5.281577,-0.48948863,6.0404444
1747672166.6120687,2.8253899,-0.35546938,1.014607,-5.281577,-0.48948863,6.0404444
1747672166.6130927,2.8253899,-0.35546938,1.014607,-5.281577,-0.48948863,6.0404444
1747672166.6140516,2.8253899,-0.35546938,1.014607,-5.281577,-0.48948863,6.0404444
1747672166.615049,2.8253899,-0.35546938,1.014607,-5.281577,-0.48948863,6.0404444
1747672166.6160517,2.8253899,-0.35546938,1.014607,-5.281577,-0.48948863,6.0404444
1747672166.617048,2.8253899,-0.35546938,1.014607,-5.281577,-0.48948863,6.0404444
1747672166.6180444,2.8253899,-0.35546938,1.014607,-5.281577,-0.48948863,6.0404444
1747672166.619044,2.8253899,-0.35546938,1.014607,-5.281577,-0.48948863,6.0404444
1747672166.6200445,2.8253899,-0.35546938,1.014607,-5.281577,-0.48948863,6.0404444
1747672166.6210456,2.8253899,-0.35546938,1.014607,-5.281577,-0.48948863,6.0404444
1747672166.6220508,2.8253899,-0.35546938,1.014607,-5.281577,-0.48948863,6.0404444
1747672166.623045,2.8253899,-0.35546938,1.014607,-5.281577,-0.48948863,6.0404444
1747672166.6240506,2.8253899,-0.35546938,1.014607,-5.281577,-0.48948863,6.0404444
1747672166.62505,2.8253899,-0.35546938,1.014607,-5.281577,-0.48948863,6.0404444
1747672166.6260474,2.8253899,-0.35546938,1.014607,-5.281577,-0.48948863,6.0404444
1747672166.6270466,4.5240283,0.3308196,2.8787162,-6.4384537,-0.73876035,4.7237782
1747672166.6280599,4.5240283,0.3308196,2.8787162,-6.4384537,-0.73876035,4.7237782
1747672166.6290793,4.5240283,0.3308196,2.8787162,-6.4384537,-0.73876035,4.7237782
1747672166.6300619,4.5240283,0.3308196,2.8787162,-6.4384537,-0.73876035,4.7237782
1747672166.6310525,4.5240283,0.3308196,2.8787162,-6.4384537,-0.73876035,4.7237782
1747672166.6320438,4.5240283,0.3308196,2.8787162,-6.4384537,-0.73876035,4.7237782
1747672166.6334076,4.5240283,0.3308196,2.8787162,-6.4384537,-0.73876035,4.7237782
1747672166.6340504,4.5240283,0.3308196,2.8787162,-6.4384537,-0.73876035,4.7237782
1747672166.6350446,4.5240283,0.3308196,2.8787162,-6.4384537,-0.73876035,4.7237782
1747672166.6360466,4.5240283,0.3308196,2.8787162,-6.4384537,-0.73876035,4.7237782
1747672166.6370497,4.5240283,0.3308196,2.8787162,-6.190247,-1.0135983,3.5477273
1747672166.6380446,4.5240283,0.3308196,2.8787162,-6.190247,-1.0135983,3.5477273
1747672166.6390452,4.5240283,0.3308196,2.8787162,-6.190247,-1.0135983,3.5477273
1747672166.6400506,4.5240283,0.3308196,2.8787162,-6.190247,-1.0135983,3.5477273
1747672166.6410468,4.5240283,0.3308196,2.8787162,-6.190247,-1.0135983,3.5477273
1747672166.6420672,5.376276,0.6529752,3.5879467,-6.190247,-1.0135983,3.5477273
1747672166.643807,5.376276,0.6529752,3.5879467,-6.190247,-1.0135983,3.5477273
1747672166.644934,5.376276,0.6529752,3.5879467,-6.190247,-1.0135983,3.5477273
1747672166.6457586,5.376276,0.6529752,3.5879467,-6.190247,-1.0135983,3.5477273
1747672166.6469219,5.606178,0.65834445,4.011142,-5.7684026,-0.9582046,1.9082867
1747672166.6477542,5.606178,0.65834445,4.011142,-5.7684026,-0.9582046,1.9082867
1747672166.6489315,5.606178,0.65834445,4.011142,-5.7684026,-0.9582046,1.9082867
1747672166.650027,5.606178,0.65834445,4.011142,-5.7684026,-0.9582046,1.9082867
1747672166.6510456,5.606178,0.65834445,4.011142,-5.7684026,-0.9582046,1.9082867
1747672166.6525602,5.606178,0.65834445,4.011142,-5.7684026,-0.9582046,1.9082867
1747672166.6536164,5.606178,0.65834445,4.011142,-5.7684026,-0.9582046,1.9082867
1747672166.654412,5.606178,0.65834445,4.011142,-5.7684026,-0.9582046,1.9082867
1747672166.6551998,5.606178,0.65834445,4.011142,-5.7684026,-0.9582046,1.9082867
1747672166.6565306,5.606178,0.65834445,4.011142,-5.7684026,-0.9582046,1.9082867
1747672166.6579325,4.8144565,0.29567537,4.4480042,-5.2517495,-0.85913515,0.604404
1747672166.6587138,4.8144565,0.29567537,4.4480042,-5.2517495,-0.85913515,0.604404
1747672166.6598969,4.8144565,0.29567537,4.4480042,-5.2517495,-0.85913515,0.604404
1747672166.6610727,4.8144565,0.29567537,4.4480042,-5.2517495,-0.85913515,0.604404
1747672166.6622634,4.8144565,0.29567537,4.4480042,-5.2517495,-0.85913515,0.604404
1747672166.6631157,4.8144565,0.29567537,4.4480042,-5.2517495,-0.85913515,0.604404
1747672166.6638913,4.8144565,0.29567537,4.4480042,-5.2517495,-0.85913515,0.604404
1747672166.6646936,4.8144565,0.29567537,4.4480042,-5.2517495,-0.85913515,0.604404
1747672166.665558,4.8144565,0.29567537,4.4480042,-5.2517495,-0.85913515,0.604404
1747672166.6663864,3.7938087,0.037950903,4.9990854,-4.4666505,-1.0998847,0.5671197
1747672166.6671324,3.7938087,0.037950903,4.9990854,-4.4666505,-1.0998847,0.5671197
1747672166.6679034,3.7938087,0.037950903,4.9990854,-4.4666505,-1.0998847,0.5671197
1747672166.668628,3.7938087,0.037950903,4.9990854,-4.4666505,-1.0998847,0.5671197
1747672166.6693213,3.7938087,0.037950903,4.9990854,-4.4666505,-1.0998847,0.5671197
1747672166.6710477,3.7938087,0.037950903,4.9990854,-4.4666505,-1.0998847,0.5671197
1747672166.67186,3.7938087,0.037950903,4.9990854,-4.4666505,-1.0998847,0.5671197
1747672166.6726737,3.7938087,0.037950903,4.9990854,-4.4666505,-1.0998847,0.5671197
1747672166.6740637,3.7938087,0.037950903,4.9990854,-4.4666505,-1.0998847,0.5671197
1747672166.6751256,3.7938087,0.037950903,4.9990854,-4.4666505,-1.0998847,0.5671197
1747672166.6766772,3.7938087,0.037950903,4.9990854,-4.4666505,-1.0998847,0.5671197
1747672166.6778228,3.7938087,0.037950903,4.9990854,-4.4666505,-1.0998847,0.5671197
1747672166.6789155,3.7938087,0.037950903,4.9990854,-4.4666505,-1.0998847,0.5671197
1747672166.6797044,3.7938087,0.037950903,4.9990854,-4.4666505,-1.0998847,0.5671197
1747672166.6806667,3.7938087,0.037950903,4.9990854,-4.4666505,-1.0998847,0.5671197
1747672166.6814492,3.7938087,0.037950903,4.9990854,-4.4666505,-1.0998847,0.5671197
1747672166.6822407,3.7938087,0.037950903,4.9990854,-4.4666505,-1.0998847,0.5671197
1747672166.6830366,3.7938087,0.037950903,4.9990854,-4.4666505,-1.0998847,0.5671197
1747672166.6839523,3.7938087,0.037950903,4.9990854,-4.4666505,-1.0998847,0.5671197
1747672166.6847746,3.7938087,0.037950903,4.9990854,-4.4666505,-1.0998847,0.5671197
1747672166.6855547,3.7938087,0.037950903,4.9990854,-4.4666505,-1.0998847,0.5671197
1747672166.6864998,3.7938087,0.037950903,4.9990854,-4.4666505,-1.0998847,0.5671197
1747672166.6872923,4.5557556,-0.041123647,5.6512065,-3.3055131,-1.9936409,1.4470274
1747672166.6880782,5.204948,0.007199689,5.788855,-2.2455757,-2.5848622,1.9327878
1747672166.689419,5.204948,0.007199689,5.788855,-2.2455757,-2.5848622,1.9327878
1747672166.6904845,5.204948,0.007199689,5.788855,-2.2455757,-2.5848622,1.9327878
1747672166.692085,5.204948,0.007199689,5.788855,-2.2455757,-2.5848622,1.9327878
1747672166.693145,5.204948,0.007199689,5.788855,-2.2455757,-2.5848622,1.9327878
1747672166.6939647,5.204948,0.007199689,5.788855,-2.2455757,-2.5848622,1.9327878
1747672166.6947663,5.204948,0.007199689,5.788855,-2.2455757,-2.5848622,1.9327878
1747672166.695563,5.204948,0.007199689,5.788855,-2.2455757,-2.5848622,1.9327878
1747672166.6963584,5.204948,0.007199689,5.788855,-2.2455757,-2.5848622,1.9327878
1747672166.697164,5.204948,0.007199689,5.788855,-2.2455757,-2.5848622,1.9327878
1747672166.6980836,5.204948,0.007199689,5.788855,-2.2455757,-2.5848622,1.9327878
1747672166.6988943,5.204948,0.007199689,5.788855,-2.2455757,-2.5848622,1.9327878
1747672166.699829,5.204948,0.007199689,5.788855,-2.2455757,-2.5848622,1.9327878
1747672166.7006338,5.204948,0.007199689,5.788855,-0.99708676,-2.3792663,1.6302528
1747672166.701416,5.204948,0.007199689,5.788855,-0.99708676,-2.3792663,1.6302528
1747672166.702402,5.204948,0.007199689,5.788855,-0.99708676,-2.3792663,1.6302528
1747672166.7031982,5.204948,0.007199689,5.788855,-0.99708676,-2.3792663,1.6302528
1747672166.7039819,5.204948,0.007199689,5.788855,-0.99708676,-2.3792663,1.6302528
1747672166.70478,5.204948,0.007199689,5.788855,-0.99708676,-2.3792663,1.6302528
1747672166.705592,5.204948,0.007199689,5.788855,-0.99708676,-2.3792663,1.6302528
1747672166.7063708,5.204948,0.007199689,5.788855,-0.99708676,-2.3792663,1.6302528
1747672166.7071357,5.204948,0.007199689,5.788855,-0.99708676,-2.3792663,1.6302528
1747672166.7078779,5.204948,0.007199689,5.788855,-0.99708676,-2.3792663,1.6302528
1747672166.708624,7.8095264,0.6807977,6.01534,-0.99708676,-2.3792663,1.6302528
1747672166.7093616,7.8095264,0.6807977,6.01534,-0.99708676,-2.3792663,1.6302528
1747672166.7100792,7.8095264,0.6807977,6.01534,0.06604634,-1.1520827,0.40519965
1747672166.7113106,7.8095264,0.6807977,6.01534,0.06604634,-1.1520827,0.40519965
1747672166.7118733,7.8095264,0.6807977,6.01534,0.06604634,-1.1520827,0.40519965
1747672166.7128723,7.8095264,0.6807977,6.01534,0.06604634,-1.1520827,0.40519965
1747672166.7138858,7.8095264,0.6807977,6.01534,0.06604634,-1.1520827,0.40519965
1747672166.714875,7.8095264,0.6807977,6.01534,0.06604634,-1.1520827,0.40519965
1747672166.7158723,7.8095264,0.6807977,6.01534,0.06604634,-1.1520827,0.40519965
1747672166.716878,7.8095264,0.6807977,6.01534,0.06604634,-1.1520827,0.40519965
1747672166.7178714,7.8095264,0.6807977,6.01534,0.06604634,-1.1520827,0.40519965
1747672166.7188725,7.8095264,0.6807977,6.01534,0.06604634,-1.1520827,0.40519965
1747672166.719872,7.8095264,0.6807977,6.01534,0.06604634,-1.1520827,0.40519965
1747672166.7212083,7.8095264,0.6807977,6.01534,0.06604634,-1.1520827,0.40519965
1747672166.7246609,7.349723,0.42990685,5.935777,1.3731248,0.8420909,-1.5580813
1747672166.7254555,7.349723,0.42990685,5.935777,1.3731248,0.8420909,-1.5580813
1747672166.7262745,6.164093,-0.27004936,5.5701795,2.690856,1.8317208,-2.6989787
1747672166.727086,6.164093,-0.27004936,5.5701795,2.690856,1.8317208,-2.6989787
1747672166.7278626,6.164093,-0.27004936,5.5701795,2.690856,1.8317208,-2.6989787
1747672166.7286465,6.164093,-0.27004936,5.5701795,2.690856,1.8317208,-2.6989787
1747672166.7294283,6.164093,-0.27004936,5.5701795,2.690856,1.8317208,-2.6989787
1747672166.730209,6.164093,-0.27004936,5.5701795,2.690856,1.8317208,-2.6989787
1747672166.7310317,6.164093,-0.27004936,5.5701795,2.690856,1.8317208,-2.6989787
1747672166.731815,6.164093,-0.27004936,5.5701795,2.690856,1.8317208,-2.6989787
1747672166.732823,6.164093,-0.27004936,5.5701795,2.690856,1.8317208,-2.6989787
1747672166.7336028,6.164093,-0.27004936,5.5701795,2.690856,1.8317208,-2.6989787
1747672166.734587,6.164093,-0.27004936,5.5701795,2.690856,1.8317208,-2.6989787
1747672166.7358515,6.164093,-0.27004936,5.5701795,2.690856,1.8317208,-2.6989787
1747672166.7368124,6.164093,-0.27004936,5.5701795,2.690856,1.8317208,-2.6989787
1747672166.7375853,6.164093,-0.27004936,5.5701795,2.690856,1.8317208,-2.6989787
1747672166.738376,6.164093,-0.27004936,5.5701795,2.690856,1.8317208,-2.6989787
1747672166.7391841,6.164093,-0.27004936,5.5701795,2.690856,1.8317208,-2.6989787
1747672166.7399774,6.164093,-0.27004936,5.5701795,2.690856,1.8317208,-2.6989787
1747672166.7407892,6.164093,-0.27004936,5.5701795,2.690856,1.8317208,-2.6989787
1747672166.7415657,6.164093,-0.27004936,5.5701795,2.690856,1.8317208,-2.6989787
1747672166.7423449,6.164093,-0.27004936,5.5701795,4.2780986,2.1374514,-3.0632987
1747672166.7431316,4.8227544,-0.95731455,4.6866927,4.2780986,2.1374514,-3.0632987
1747672166.7439125,4.8227544,-0.95731455,4.6866927,4.2780986,2.1374514,-3.0632987
1747672166.7446637,4.8227544,-0.95731455,4.6866927,4.2780986,2.1374514,-3.0632987
1747672166.7454157,4.8227544,-0.95731455,4.6866927,4.961998,2.27274,-2.818288
1747672166.746158,4.368808,-1.0476158,3.7919784,4.961998,2.27274,-2.818288
1747672166.7477028,4.368808,-1.0476158,3.7919784,4.961998,2.27274,-2.818288
1747672166.748523,4.368808,-1.0476158,3.7919784,4.961998,2.27274,-2.818288
1747672166.7493117,4.368808,-1.0476158,3.7919784,4.961998,2.27274,-2.818288
1747672166.7501228,4.368808,-1.0476158,3.7919784,4.961998,2.27274,-2.818288
1747672166.7513728,4.368808,-1.0476158,3.7919784,4.961998,2.27274,-2.818288
1747672166.7522418,4.368808,-1.0476158,3.7919784,4.961998,2.27274,-2.818288
1747672166.7543542,4.368808,-1.0476158,3.7919784,4.961998,2.27274,-2.818288
1747672166.7553782,4.368808,-1.0476158,3.7919784,4.961998,2.27274,-2.818288
1747672166.756362,4.368808,-1.0476158,3.7919784,4.961998,2.27274,-2.818288
1747672166.7578409,4.368808,-1.0476158,3.7919784,4.961998,2.27274,-2.818288
1747672166.7588027,4.368808,-1.0476158,3.7919784,4.961998,2.27274,-2.818288
1747672166.7604482,4.368808,-1.0476158,3.7919784,4.961998,2.27274,-2.818288
1747672166.7614126,4.6060314,-0.8928834,2.6385639,4.9833035,2.656235,-2.5562332
1747672166.762207,4.6060314,-0.8928834,2.6385639,4.9833035,2.656235,-2.5562332
1747672166.763012,4.6060314,-0.8928834,2.6385639,4.9833035,2.656235,-2.5562332
1747672166.763791,4.6060314,-0.8928834,2.6385639,4.9833035,2.656235,-2.5562332
1747672166.7647822,5.0726686,-0.8421196,1.8517234,4.205661,3.3603742,-2.8885956
1747672166.7655933,5.0726686,-0.8421196,1.8517234,4.205661,3.3603742,-2.8885956
1747672166.7664135,5.0726686,-0.8421196,1.8517234,4.205661,3.3603742,-2.8885956
1747672166.7677033,5.0726686,-0.8421196,1.8517234,4.205661,3.3603742,-2.8885956
1747672166.7685218,5.0726686,-0.8421196,1.8517234,4.205661,3.3603742,-2.8885956
1747672166.769322,5.0726686,-0.8421196,1.8517234,4.205661,3.3603742,-2.8885956
1747672166.770123,5.0726686,-0.8421196,1.8517234,4.205661,3.3603742,-2.8885956
1747672166.7709014,5.0726686,-0.8421196,1.8517234,4.205661,3.3603742,-2.8885956
1747672166.7717075,5.0726686,-0.8421196,1.8517234,4.205661,3.3603742,-2.8885956
1747672166.7731128,5.0726686,-0.8421196,1.8517234,4.205661,3.3603742,-2.8885956
1747672166.7738922,5.0726686,-0.8421196,1.8517234,4.205661,3.3603742,-2.8885956
1747672166.7747018,5.0726686,-0.8421196,1.8517234,4.205661,3.3603742,-2.8885956
1747672166.7754858,5.0726686,-0.8421196,1.8517234,4.205661,3.3603742,-2.8885956
1747672166.776499,5.064371,-0.94706416,1.6393934,3.1222878,4.4895535,-3.6001916
1747672166.7772887,5.064371,-0.94706416,1.6393934,3.1222878,4.4895535,-3.6001916
1747672166.7780979,5.064371,-0.94706416,1.6393934,3.1222878,4.4895535,-3.6001916
1747672166.7790997,5.064371,-0.94706416,1.6393934,3.1222878,4.4895535,-3.6001916
1747672166.7798734,5.064371,-0.94706416,1.6393934,3.1222878,4.4895535,-3.6001916
1747672166.7806532,5.064371,-0.94706416,1.6393934,3.1222878,4.4895535,-3.6001916
1747672166.781366,5.064371,-0.94706416,1.6393934,3.1222878,4.4895535,-3.6001916
1747672166.7820876,5.064371,-0.94706416,1.6393934,3.1222878,4.4895535,-3.6001916
1747672166.7847228,5.064371,-0.94706416,1.6393934,3.1222878,4.4895535,-3.6001916
1747672166.786424,5.064371,-0.94706416,1.6393934,3.1222878,4.4895535,-3.6001916
1747672166.7872508,4.5440407,-1.1574415,1.9390959,2.3734074,5.6645393,-4.2425456
1747672166.7882035,4.5440407,-1.1574415,1.9390959,2.3734074,5.6645393,-4.2425456
1747672166.788985,4.5440407,-1.1574415,1.9390959,2.3734074,5.6645393,-4.2425456
1747672166.7901123,4.5440407,-1.1574415,1.9390959,2.3734074,5.6645393,-4.2425456
1747672166.7908983,4.5440407,-1.1574415,1.9390959,2.3734074,5.6645393,-4.2425456
1747672166.7916863,4.5440407,-1.1574415,1.9390959,2.3734074,5.6645393,-4.2425456
1747672166.7924726,4.5440407,-1.1574415,1.9390959,2.3734074,5.6645393,-4.2425456
1747672166.793281,4.5440407,-1.1574415,1.9390959,2.3734074,5.6645393,-4.2425456
1747672166.7940605,4.5440407,-1.1574415,1.9390959,2.3734074,5.6645393,-4.2425456
1747672166.7948465,4.5440407,-1.1574415,1.9390959,2.3734074,5.6645393,-4.2425456
1747672166.795637,4.5440407,-1.1574415,1.9390959,2.3734074,5.6645393,-4.2425456
1747672166.7981718,4.117917,-1.3116857,2.14508,2.2232053,6.2152805,-4.4971437
1747672166.799007,4.117917,-1.3116857,2.14508,2.2232053,6.2152805,-4.4971437
1747672166.799799,4.117917,-1.3116857,2.14508,2.2232053,6.2152805,-4.4971437
1747672166.8008022,4.117917,-1.3116857,2.14508,2.2232053,6.2152805,-4.4971437
1747672166.8018637,4.117917,-1.3116857,2.14508,2.2232053,6.2152805,-4.4971437
1747672166.8030875,4.117917,-1.3116857,2.14508,2.2232053,6.2152805,-4.4971437
1747672166.8046508,4.117917,-1.3116857,2.14508,2.2232053,6.2152805,-4.4971437
1747672166.8058724,4.117917,-1.3116857,2.14508,2.2232053,6.2152805,-4.4971437
1747672166.8070126,4.117917,-1.3116857,2.14508,2.2232053,6.2152805,-4.4971437
1747672166.808039,4.117917,-1.3116857,2.14508,2.2232053,6.2152805,-4.4971437
1747672166.808825,4.117917,-1.3116857,2.14508,2.2232053,6.2152805,-4.4971437
1747672166.8097584,4.117917,-1.3116857,2.14508,2.2232053,6.2152805,-4.4971437
1747672166.8111374,4.117917,-1.3116857,2.14508,2.2232053,6.2152805,-4.4971437
1747672166.8121507,4.117917,-1.3116857,2.14508,2.2232053,6.2152805,-4.4971437
1747672166.8138742,3.4218657,-1.5850298,2.328123,2.4362578,6.826742,-4.647346
1747672166.814739,3.4218657,-1.5850298,2.328123,2.4362578,6.826742,-4.647346
1747672166.81585,3.4218657,-1.5850298,2.328123,2.4362578,6.826742,-4.647346
1747672166.8167727,3.4218657,-1.5850298,2.328123,2.4362578,6.826742,-4.647346
1747672166.8176181,3.4218657,-1.5850298,2.328123,2.4362578,6.826742,-4.647346
1747672166.8183806,3.4218657,-1.5850298,2.328123,2.4362578,6.826742,-4.647346
1747672166.819135,3.4218657,-1.5850298,2.328123,2.4362578,6.826742,-4.647346
1747672166.8198335,3.4218657,-1.5850298,2.328123,2.4362578,6.826742,-4.647346
1747672166.820536,3.0128257,-1.6899744,2.4472232,3.0967214,6.8054366,-4.5525374
1747672166.8223877,3.0128257,-1.6899744,2.4472232,3.0967214,6.8054366,-4.5525374
1747672166.82318,3.0128257,-1.6899744,2.4472232,3.0967214,6.8054366,-4.5525374
1747672166.8239903,3.0128257,-1.6899744,2.4472232,3.0967214,6.8054366,-4.5525374
1747672166.8247721,3.0128257,-1.6899744,2.4472232,3.0967214,6.8054366,-4.5525374
1747672166.8255422,3.0128257,-1.6899744,2.4472232,3.0967214,6.8054366,-4.5525374
1747672166.826357,3.0128257,-1.6899744,2.4472232,3.0967214,6.8054366,-4.5525374
1747672166.8271596,3.0128257,-1.6899744,2.4472232,3.0967214,6.8054366,-4.5525374
1747672166.8280303,3.0128257,-1.6899744,2.4472232,3.0967214,6.8054366,-4.5525374
1747672166.8308468,3.0128257,-1.6899744,2.4472232,3.0967214,6.8054366,-4.5525374
1747672166.831751,3.0128257,-1.6899744,2.4472232,3.0967214,6.8054366,-4.5525374
1747672166.8327754,3.0128257,-1.6899744,2.4472232,3.0967214,6.8054366,-4.5525374
1747672166.833656,3.0128257,-1.6899744,2.4472232,3.0967214,6.8054366,-4.5525374
1747672166.8344479,2.771697,-1.8037051,2.4223292,3.9063218,6.6179504,-4.4076614
1747672166.8352406,2.771697,-1.8037051,2.4223292,3.9063218,6.6179504,-4.4076614
1747672166.8360593,2.7546132,-2.0170112,2.3686366,4.823514,6.221672,-4.3671813
1747672166.8369339,2.7546132,-2.0170112,2.3686366,4.823514,6.221672,-4.3671813
1747672166.8378453,2.7546132,-2.0170112,2.3686366,4.823514,6.221672,-4.3671813
1747672166.838621,2.7546132,-2.0170112,2.3686366,4.823514,6.221672,-4.3671813
1747672166.8394258,2.7546132,-2.0170112,2.3686366,4.823514,6.221672,-4.3671813
1747672166.8402388,2.7546132,-2.0170112,2.3686366,4.823514,6.221672,-4.3671813
1747672166.8410556,2.7546132,-2.0170112,2.3686366,4.823514,6.221672,-4.3671813
1747672166.8420365,2.7546132,-2.0170112,2.3686366,4.823514,6.221672,-4.3671813
1747672166.8428218,2.7546132,-2.0170112,2.3686366,4.823514,6.221672,-4.3671813
1747672166.8440828,2.7546132,-2.0170112,2.3686366,4.823514,6.221672,-4.3671813
1747672166.845887,2.6535735,-2.255211,2.2270834,4.823514,6.221672,-4.3671813
1747672166.846694,2.6535735,-2.255211,2.2270834,5.8088827,5.6890407,-4.426836
1747672166.8475022,2.6535735,-2.255211,2.2270834,5.8088827,5.6890407,-4.426836
1747672166.8483014,2.6535735,-2.255211,2.2270834,5.8088827,5.6890407,-4.426836
1747672166.8490946,2.6535735,-2.255211,2.2270834,5.8088827,5.6890407,-4.426836
1747672166.8498838,2.6535735,-2.255211,2.2270834,5.8088827,5.6890407,-4.426836
1747672166.8507197,2.6535735,-2.255211,2.2270834,5.8088827,5.6890407,-4.426836
1747672166.8515003,2.6535735,-2.255211,2.2270834,5.8088827,5.6890407,-4.426836
1747672166.85231,2.6535735,-2.255211,2.2270834,5.8088827,5.6890407,-4.426836
1747672166.853092,2.6535735,-2.255211,2.2270834,5.8088827,5.6890407,-4.426836
1747672166.8538682,2.6535735,-2.255211,2.2270834,5.8088827,5.6890407,-4.426836
1747672166.8546164,2.6535735,-2.255211,2.2270834,5.8088827,5.6890407,-4.426836
1747672166.8553646,2.6535735,-2.255211,2.2270834,5.8088827,5.6890407,-4.426836
1747672166.8561902,2.5832849,-2.5202572,1.9171307,6.7079654,5.029642,-4.5163183
1747672166.8569338,2.5832849,-2.5202572,1.9171307,6.7079654,5.029642,-4.5163183
1747672166.857649,2.5832849,-2.5202572,1.9171307,6.7079654,5.029642,-4.5163183
1747672166.859058,2.5832849,-2.5202572,1.9171307,6.7079654,5.029642,-4.5163183
1747672166.8600566,2.5832849,-2.5202572,1.9171307,6.7079654,5.029642,-4.5163183
1747672166.862923,2.5832849,-2.5202572,1.9171307,6.7079654,5.029642,-4.5163183
1747672166.8637125,2.5832849,-2.5202572,1.9171307,6.7079654,5.029642,-4.5163183
1747672166.864642,2.5832849,-2.5202572,1.9171307,6.7079654,5.029642,-4.5163183
1747672166.8654866,2.5832849,-2.5202572,1.9171307,6.7079654,5.029642,-4.5163183
1747672166.869565,2.5832849,-2.5202572,1.9171307,6.7079654,5.029642,-4.5163183
1747672166.8703651,2.5832849,-2.5202572,1.9171307,6.7079654,5.029642,-4.5163183
1747672166.871236,2.5271518,-2.7486947,1.449517,7.316231,4.4203115,-4.6345625
1747672166.8720274,2.5271518,-2.7486947,1.449517,7.316231,4.4203115,-4.6345625
1747672166.8730292,2.5271518,-2.7486947,1.449517,7.316231,4.4203115,-4.6345625
1747672166.8739517,2.5271518,-2.7486947,1.449517,7.316231,4.4203115,-4.6345625
1747672166.874776,2.5271518,-2.7486947,1.449517,7.316231,4.4203115,-4.6345625
1747672166.8763778,2.5271518,-2.7486947,1.449517,7.316231,4.4203115,-4.6345625
1747672166.8773253,2.5271518,-2.7486947,1.449517,7.316231,4.4203115,-4.6345625
1747672166.8781168,2.455399,-2.8663304,0.8061821,7.4003863,4.2669134,-4.764525
1747672166.8788893,2.455399,-2.8663304,0.8061821,7.4003863,4.2669134,-4.764525
1747672166.8796878,2.455399,-2.8663304,0.8061821,7.4003863,4.2669134,-4.764525
1747672166.8805065,2.455399,-2.8663304,0.8061821,7.4003863,4.2669134,-4.764525
1747672166.8812923,2.455399,-2.8663304,0.8061821,7.4003863,4.2669134,-4.764525
1747672166.8820682,2.455399,-2.8663304,0.8061821,7.4003863,4.2669134,-4.764525
1747672166.8828504,2.455399,-2.8663304,0.8061821,7.4003863,4.2669134,-4.764525
1747672166.8836386,2.455399,-2.8663304,0.8061821,7.4003863,4.2669134,-4.764525
1747672166.8844345,2.455399,-2.8663304,0.8061821,7.4003863,4.2669134,-4.764525
1747672166.8852186,2.4368508,-2.8965933,0.25656518,6.905039,4.7558694,-4.8518763
1747672166.8860002,2.4368508,-2.8965933,0.25656518,6.905039,4.7558694,-4.8518763
1747672166.8867872,2.4368508,-2.8965933,0.25656518,6.905039,4.7558694,-4.8518763
1747672166.88757,2.4368508,-2.8965933,0.25656518,6.905039,4.7558694,-4.8518763
1747672166.8884745,2.4368508,-2.8965933,0.25656518,6.905039,4.7558694,-4.8518763
1747672166.8892493,2.4368508,-2.8965933,0.25656518,6.905039,4.7558694,-4.8518763
1747672166.890045,2.4368508,-2.8965933,0.25656518,6.905039,4.7558694,-4.8518763
1747672166.8912158,2.4368508,-2.8965933,0.25656518,6.905039,4.7558694,-4.8518763
1747672166.8925133,2.4368508,-2.8965933,0.25656518,6.905039,4.7558694,-4.8518763
1747672166.8932946,2.4368508,-2.8965933,0.25656518,6.905039,4.7558694,-4.8518763
1747672166.8940072,2.4368508,-2.8965933,0.25656518,6.905039,4.7558694,-4.8518763
1747672166.8947468,2.4368508,-2.8965933,0.25656518,6.905039,4.7558694,-4.8518763
1747672166.8954637,2.2689393,-2.8492463,-0.07925759,6.905039,4.7558694,-4.8518763
1747672166.896164,2.2689393,-2.8492463,-0.07925759,6.905039,4.7558694,-4.8518763
1747672166.89782,2.2689393,-2.8492463,-0.07925759,6.905039,4.7558694,-4.8518763
1747672166.8987474,2.2689393,-2.8492463,-0.07925759,6.094373,5.68691,-4.8635945
1747672166.8995676,2.2689393,-2.8492463,-0.07925759,6.094373,5.68691,-4.8635945
1747672166.9005756,2.2689393,-2.8492463,-0.07925759,6.094373,5.68691,-4.8635945
1747672166.9013925,2.2689393,-2.8492463,-0.07925759,6.094373,5.68691,-4.8635945
1747672166.9022982,2.2689393,-2.8492463,-0.07925759,6.094373,5.68691,-4.8635945
1747672166.9031003,2.2689393,-2.8492463,-0.07925759,6.094373,5.68691,-4.8635945
1747672166.903897,2.2689393,-2.8492463,-0.07925759,6.094373,5.68691,-4.8635945
1747672166.90474,2.2689393,-2.8492463,-0.07925759,6.094373,5.68691,-4.8635945
1747672166.9055595,2.2689393,-2.8492463,-0.07925759,6.094373,5.68691,-4.8635945
1747672166.9065092,2.2689393,-2.8492463,-0.07925759,6.094373,5.68691,-4.8635945
1747672166.9072983,2.2689393,-2.8492463,-0.07925759,6.094373,5.68691,-4.8635945
1747672166.9084423,2.2689393,-2.8492463,-0.07925759,6.094373,5.68691,-4.8635945
1747672166.9096272,2.2689393,-2.8492463,-0.07925759,6.094373,5.68691,-4.8635945
1747672166.9105108,2.2689393,-2.8492463,-0.07925759,6.094373,5.68691,-4.8635945
1747672166.9122186,2.0644193,-2.775053,-0.18273787,5.3753204,6.423007,-4.7442846
1747672166.913297,2.0644193,-2.775053,-0.18273787,5.3753204,6.423007,-4.7442846
1747672166.9143822,2.0644193,-2.775053,-0.18273787,5.3753204,6.423007,-4.7442846
1747672166.915183,2.0644193,-2.775053,-0.18273787,5.3753204,6.423007,-4.7442846
1747672166.9159925,2.0644193,-2.775053,-0.18273787,5.3753204,6.423007,-4.7442846
1747672166.9169476,2.0644193,-2.775053,-0.18273787,5.3753204,6.423007,-4.7442846
1747672166.9177885,2.0644193,-2.775053,-0.18273787,5.3753204,6.423007,-4.7442846
1747672166.918589,2.0644193,-2.775053,-0.18273787,4.6125917,6.922616,-4.466251
1747672166.9193723,2.0644193,-2.775053,-0.18273787,4.6125917,6.922616,-4.466251
1747672166.9201584,2.0644193,-2.775053,-0.18273787,4.6125917,6.922616,-4.466251
1747672166.921461,2.0644193,-2.775053,-0.18273787,4.6125917,6.922616,-4.466251
1747672166.9223132,2.0644193,-2.775053,-0.18273787,4.6125917,6.922616,-4.466251
1747672166.9238627,2.0644193,-2.775053,-0.18273787,4.6125917,6.922616,-4.466251
1747672166.9254332,2.0644193,-2.775053,-0.18273787,4.6125917,6.922616,-4.466251
1747672166.9267452,2.0644193,-2.775053,-0.18273787,4.6125917,6.922616,-4.466251
1747672166.9275692,2.0644193,-2.775053,-0.18273787,4.6125917,6.922616,-4.466251
1747672166.9284015,2.0644193,-2.775053,-0.18273787,4.6125917,6.922616,-4.466251
1747672166.9291894,2.0644193,-2.775053,-0.18273787,4.6125917,6.922616,-4.466251
1747672166.9300036,2.0644193,-2.775053,-0.18273787,4.6125917,6.922616,-4.466251
1747672166.930863,2.0644193,-2.775053,-0.18273787,4.6125917,6.922616,-4.466251
1747672166.9316168,2.0644193,-2.775053,-0.18273787,4.1843557,6.987597,-4.16052
1747672166.9323342,1.7315252,-2.6247137,0.27511355,4.1843557,6.987597,-4.16052
1747672166.9330378,1.7315252,-2.6247137,0.27511355,4.1843557,6.987597,-4.16052
1747672166.9346292,1.7315252,-2.6247137,0.27511355,4.1843557,6.987597,-4.16052
1747672166.93543,1.7315252,-2.6247137,0.27511355,4.1843557,6.987597,-4.16052
1747672166.936255,1.7315252,-2.6247137,0.27511355,4.1843557,6.987597,-4.16052
1747672166.9372067,1.7315252,-2.6247137,0.27511355,4.1843557,6.987597,-4.16052
1747672166.9389029,1.7315252,-2.6247137,0.27511355,4.1843557,6.987597,-4.16052
1747672166.9405315,1.7315252,-2.6247137,0.27511355,4.1843557,6.987597,-4.16052
1747672166.9414132,1.7315252,-2.6247137,0.27511355,4.1843557,6.987597,-4.16052
1747672166.942237,1.7315252,-2.6247137,0.27511355,4.1843557,6.987597,-4.16052
1747672166.9430876,1.7315252,-2.6247137,0.27511355,4.1843557,6.987597,-4.16052
1747672166.943897,1.7315252,-2.6247137,0.27511355,4.1843557,6.987597,-4.16052
1747672166.9446757,1.6417121,-2.6086059,0.6172818,4.098069,6.6626916,-3.8068528
1747672166.9455507,1.6417121,-2.6086059,0.6172818,4.098069,6.6626916,-3.8068528
1747672166.9463658,1.6417121,-2.6086059,0.6172818,4.098069,6.6626916,-3.8068528
1747672166.9471586,1.5123618,-2.5802953,0.79788417,4.24188,6.1502995,-3.5149705
1747672166.9479582,1.5123618,-2.5802953,0.79788417,4.24188,6.1502995,-3.5149705
1747672166.9487636,1.5123618,-2.5802953,0.79788417,4.24188,6.1502995,-3.5149705
1747672166.9495766,1.5123618,-2.5802953,0.79788417,4.24188,6.1502995,-3.5149705
1747672166.9504342,1.5123618,-2.5802953,0.79788417,4.24188,6.1502995,-3.5149705
1747672166.951225,1.5123618,-2.5802953,0.79788417,4.24188,6.1502995,-3.5149705
1747672166.9520657,1.5123618,-2.5802953,0.79788417,4.24188,6.1502995,-3.5149705
1747672166.9541352,1.5123618,-2.5802953,0.79788417,4.24188,6.1502995,-3.5149705
1747672166.9549189,1.5123618,-2.5802953,0.79788417,4.24188,6.1502995,-3.5149705
1747672166.955758,1.5123618,-2.5802953,0.79788417,4.24188,6.1502995,-3.5149705
1747672166.9567273,1.5123618,-2.5802953,0.79788417,4.24188,6.1502995,-3.5149705
1747672166.9574895,1.5123618,-2.5802953,0.79788417,4.24188,6.1502995,-3.5149705
1747672166.9582744,1.5123618,-2.5802953,0.79788417,4.24188,6.1502995,-3.5149705
1747672166.9590764,1.5123618,-2.5802953,0.79788417,4.24188,6.1502995,-3.5149705
1747672166.9598572,1.5123618,-2.5802953,0.79788417,4.24188,6.1502995,-3.5149705
1747672166.9606311,1.5123618,-2.5802953,0.79788417,4.24188,6.1502995,-3.5149705
1747672166.9616377,1.5123618,-2.5802953,0.79788417,4.24188,6.1502995,-3.5149705
1747672166.9625907,1.5123618,-2.5802953,0.79788417,4.24188,6.1502995,-3.5149705
1747672166.9634004,1.5123618,-2.5802953,0.79788417,4.24188,6.1502995,-3.5149705
1747672166.9642062,1.5123618,-2.5802953,0.79788417,4.24188,6.1502995,-3.5149705
1747672166.9650104,1.5123618,-2.5802953,0.79788417,4.24188,6.1502995,-3.5149705
1747672166.965839,1.356165,-2.5519845,0.852553,4.408061,5.634712,-3.1591725
1747672166.9666185,1.356165,-2.5519845,0.852553,4.408061,5.634712,-3.1591725
1747672166.967381,1.356165,-2.5519845,0.852553,4.408061,5.634712,-3.1591725
1747672166.9681602,1.3317593,-2.528067,0.8379096,4.5028696,5.3204594,-2.7213492
1747672166.9688811,1.3317593,-2.528067,0.8379096,4.5028696,5.3204594,-2.7213492
1747672166.9696307,1.3317593,-2.528067,0.8379096,4.5028696,5.3204594,-2.7213492
1747672166.9703653,1.3317593,-2.528067,0.8379096,4.5028696,5.3204594,-2.7213492
1747672166.9711175,1.3317593,-2.528067,0.8379096,4.5028696,5.3204594,-2.7213492
1747672166.9718633,1.3317593,-2.528067,0.8379096,4.5028696,5.3204594,-2.7213492
