timestamp,acc_x,acc_y,acc_z,gyro_x,gyro_y,gyro_z
1747679238.510148,-0.21409921,0.405013,0.8222898,-0.18615483,-0.6396908,-0.3832286
1747679238.5107052,-0.21409921,0.405013,0.8222898,-0.18615483,-0.6396908,-0.3832286
1747679238.5112326,-0.21409921,0.405013,0.8222898,-0.18615483,-0.6396908,-0.3832286
1747679238.5117517,-0.21409921,0.405013,0.8222898,-0.18615483,-0.6396908,-0.3832286
1747679238.5122707,-0.21409921,0.405013,0.8222898,-0.18615483,-0.6396908,-0.3832286
1747679238.51279,-0.21409921,0.405013,0.8222898,-0.18615483,-0.6396908,-0.3832286
1747679238.513308,-0.21409921,0.405013,0.8222898,-0.18615483,-0.6396908,-0.3832286
1747679238.5138261,-0.21409921,0.405013,0.8222898,-0.18615483,-0.6396908,-0.3832286
1747679238.514375,-0.21409921,0.405013,0.8222898,-0.18615483,-0.6396908,-0.3832286
1747679238.5149302,-0.21409921,0.405013,0.8222898,-0.18615483,-0.6396908,-0.3832286
1747679238.5154529,-0.21409921,0.405013,0.8222898,-0.18615483,-0.6396908,-0.3832286
1747679238.515972,-0.21409921,0.405013,0.8222898,-0.18615483,-0.6396908,-0.3832286
1747679238.5164897,-0.21409921,0.405013,0.8222898,-0.18615483,-0.6396908,-0.3832286
1747679238.5170166,-0.21409921,0.405013,0.8222898,-0.18615483,-0.6396908,-0.3832286
1747679238.517567,-0.21409921,0.405013,0.8222898,-0.18615483,-0.6396908,-0.3832286
1747679238.518116,-0.21409921,0.405013,0.8222898,-0.18615483,-0.6396908,-0.3832286
1747679238.5186572,-0.21409921,0.405013,0.8222898,-0.18615483,-0.6396908,-0.3832286
1747679238.5191813,-0.08279642,0.38353595,0.865244,-0.25859275,-0.6503435,-0.28202856
1747679238.5197003,-0.08279642,0.38353595,0.865244,-0.25859275,-0.6503435,-0.28202856
1747679238.5202188,-0.08279642,0.38353595,0.865244,-0.25859275,-0.6503435,-0.28202856
1747679238.5207372,-0.08279642,0.38353595,0.865244,-0.25859275,-0.6503435,-0.28202856
1747679238.5212555,-0.08279642,0.38353595,0.865244,-0.25859275,-0.6503435,-0.28202856
1747679238.5217736,-0.08279642,0.38353595,0.865244,-0.25859275,-0.6503435,-0.28202856
1747679238.5222914,-0.08279642,0.38353595,0.865244,-0.25859275,-0.6503435,-0.28202856
1747679238.5228093,-0.08279642,0.38353595,0.865244,-0.25859275,-0.6503435,-0.28202856
1747679238.5233285,-0.08279642,0.38353595,0.865244,-0.25859275,-0.6503435,-0.28202856
1747679238.523864,-0.08279642,0.38353595,0.865244,-0.25859275,-0.6503435,-0.28202856
1747679238.52446,-0.08279642,0.38353595,0.865244,-0.25859275,-0.6503435,-0.28202856
1747679238.525185,-0.08279642,0.38353595,0.865244,-0.25859275,-0.6503435,-0.28202856
1747679238.525742,-0.08279642,0.38353595,0.865244,-0.25859275,-0.6503435,-0.28202856
1747679238.5262992,-0.08279642,0.38353595,0.865244,-0.25859275,-0.6503435,-0.28202856
1747679238.5268438,-0.08279642,0.38353595,0.865244,-0.25859275,-0.6503435,-0.28202856
1747679238.527377,-0.08279642,0.38353595,0.865244,-0.25859275,-0.6503435,-0.28202856
1747679238.5278986,-0.08279642,0.38353595,0.865244,-0.25859275,-0.6503435,-0.28202856
1747679238.5284467,-0.08279642,0.38353595,0.865244,-0.25859275,-0.6503435,-0.28202856
1747679238.5289702,0.030934256,0.4055011,0.9472472,-0.25859275,-0.6503435,-0.28202856
1747679238.5294912,0.030934256,0.4055011,0.9472472,-0.28202856,-0.5949497,-0.2894854
1747679238.5300095,0.030934256,0.4055011,0.9472472,-0.28202856,-0.5949497,-0.2894854
1747679238.530545,0.030934256,0.4055011,0.9472472,-0.28202856,-0.5949497,-0.2894854
1747679238.5311015,0.030934256,0.4055011,0.9472472,-0.28202856,-0.5949497,-0.2894854
1747679238.5316386,0.030934256,0.4055011,0.9472472,-0.28202856,-0.5949497,-0.2894854
1747679238.5321903,0.030934256,0.4055011,0.9472472,-0.28202856,-0.5949497,-0.2894854
1747679238.5327444,0.030934256,0.4055011,0.9472472,-0.28202856,-0.5949497,-0.2894854
1747679238.5332959,0.030934256,0.4055011,0.9472472,-0.28202856,-0.5949497,-0.2894854
1747679238.5338507,0.030934256,0.4055011,0.9472472,-0.28202856,-0.5949497,-0.2894854
1747679238.5344083,0.030934256,0.4055011,0.9472472,-0.28202856,-0.5949497,-0.2894854
1747679238.534963,0.030934256,0.4055011,0.9472472,-0.28202856,-0.5949497,-0.2894854
1747679238.5355182,0.030934256,0.4055011,0.9472472,-0.28202856,-0.5949497,-0.2894854
1747679238.5360677,0.030934256,0.4055011,0.9472472,-0.28202856,-0.5949497,-0.2894854
1747679238.536612,0.030934256,0.4055011,0.9472472,-0.28202856,-0.5949497,-0.2894854
1747679238.5371516,0.030934256,0.4055011,0.9472472,-0.28202856,-0.5949497,-0.2894854
1747679238.537689,0.030934256,0.4055011,0.9472472,-0.28202856,-0.5949497,-0.2894854
1747679238.5382288,0.030934256,0.4055011,0.9472472,-0.28202856,-0.5949497,-0.2894854
1747679238.5387821,0.030934256,0.4055011,0.9472472,-0.28202856,-0.5949497,-0.2894854
1747679238.5393422,0.030934256,0.4055011,0.9472472,-0.28202856,-0.5949497,-0.2894854
1747679238.5590382,0.1739518,0.41575152,0.9574976,-0.27457172,-0.1155811,-0.50147283
1747679238.5596128,0.1739518,0.41575152,0.9574976,-0.27457172,-0.1155811,-0.50147283
1747679238.5602663,0.1739518,0.41575152,0.9574976,-0.27457172,-0.1155811,-0.50147283
1747679238.5608344,0.1739518,0.41575152,0.9574976,-0.27457172,-0.1155811,-0.50147283
1747679238.5613992,0.1739518,0.41575152,0.9574976,-0.27457172,-0.1155811,-0.50147283
1747679238.5619774,0.1739518,0.41575152,0.9574976,-0.27457172,-0.1155811,-0.50147283
1747679238.5625222,0.13783133,0.422097,0.8691489,-0.27457172,-0.1155811,-0.50147283
1747679238.5630534,0.13783133,0.422097,0.8691489,-0.30226856,-0.025033696,-0.667654
1747679238.5635757,0.13783133,0.422097,0.8691489,-0.30226856,-0.025033696,-0.667654
1747679238.5641477,0.13783133,0.422097,0.8691489,-0.30226856,-0.025033696,-0.667654
1747679238.5647295,0.13783133,0.422097,0.8691489,-0.30226856,-0.025033696,-0.667654
1747679238.5652668,0.13783133,0.422097,0.8691489,-0.30226856,-0.025033696,-0.667654
1747679238.5657952,0.13783133,0.422097,0.8691489,-0.30226856,-0.025033696,-0.667654
1747679238.566322,0.13783133,0.422097,0.8691489,-0.30226856,-0.025033696,-0.667654
1747679238.566849,0.13783133,0.422097,0.8691489,-0.30226856,-0.025033696,-0.667654
1747679238.567376,0.13783133,0.422097,0.8691489,-0.30226856,-0.025033696,-0.667654
1747679238.567903,0.13783133,0.422097,0.8691489,-0.30226856,-0.025033696,-0.667654
1747679238.5684297,0.13783133,0.422097,0.8691489,-0.30226856,-0.025033696,-0.667654
1747679238.568957,0.13783133,0.422097,0.8691489,-0.30226856,-0.025033696,-0.667654
1747679238.5694838,0.13783133,0.422097,0.8691489,-0.30226856,-0.025033696,-0.667654
1747679238.5700107,0.13783133,0.422097,0.8691489,-0.30226856,-0.025033696,-0.667654
1747679238.570538,0.13783133,0.422097,0.8691489,-0.30226856,-0.025033696,-0.667654
1747679238.5710738,0.13783133,0.422097,0.8691489,-0.30226856,-0.025033696,-0.667654
1747679238.571601,0.13783133,0.422097,0.8691489,-0.30226856,-0.025033696,-0.667654
1747679238.5721285,0.13783133,0.422097,0.8691489,-0.30226856,-0.025033696,-0.667654
1747679238.5726573,0.13783133,0.422097,0.8691489,-0.30226856,-0.025033696,-0.667654
1747679238.5731962,0.056316208,0.4289306,0.754442,-0.35766226,-0.34674332,-0.7571361
1747679238.5737655,0.056316208,0.4289306,0.754442,-0.35766226,-0.34674332,-0.7571361
1747679238.5743191,0.056316208,0.4289306,0.754442,-0.35766226,-0.34674332,-0.7571361
1747679238.5748532,0.056316208,0.4289306,0.754442,-0.35766226,-0.34674332,-0.7571361
1747679238.5753822,0.056316208,0.4289306,0.754442,-0.35766226,-0.34674332,-0.7571361
1747679238.5759242,0.056316208,0.4289306,0.754442,-0.35766226,-0.34674332,-0.7571361
1747679238.5764613,0.056316208,0.4289306,0.754442,-0.35766226,-0.34674332,-0.7571361
1747679238.5769844,0.056316208,0.4289306,0.754442,-0.35766226,-0.34674332,-0.7571361
1747679238.5775044,0.056316208,0.4289306,0.754442,-0.35766226,-0.34674332,-0.7571361
1747679238.5780249,0.056316208,0.4289306,0.754442,-0.35766226,-0.34674332,-0.7571361
1747679238.5785623,0.056316208,0.4289306,0.754442,-0.35766226,-0.34674332,-0.7571361
1747679238.5791218,0.0060404167,0.4352761,0.67878425,-0.35766226,-0.34674332,-0.7571361
1747679238.5796907,0.0060404167,0.4352761,0.67878425,-0.4567318,-1.1520827,-0.8114646
1747679238.58023,0.0060404167,0.4352761,0.67878425,-0.4567318,-1.1520827,-0.8114646
1747679238.5807583,0.0060404167,0.4352761,0.67878425,-0.4567318,-1.1520827,-0.8114646
1747679238.5812871,0.0060404167,0.4352761,0.67878425,-0.4567318,-1.1520827,-0.8114646
1747679238.5818143,0.0060404167,0.4352761,0.67878425,-0.4567318,-1.1520827,-0.8114646
1747679238.5823414,0.0060404167,0.4352761,0.67878425,-0.4567318,-1.1520827,-0.8114646
1747679238.5828831,0.0060404167,0.4352761,0.67878425,-0.4567318,-1.1520827,-0.8114646
1747679238.5834222,0.0060404167,0.4352761,0.67878425,-0.4567318,-1.1520827,-0.8114646
1747679238.5839708,0.0060404167,0.4352761,0.67878425,-0.4567318,-1.1520827,-0.8114646
1747679238.5845203,0.0060404167,0.4352761,0.67878425,-0.4567318,-1.1520827,-0.8114646
1747679238.5850453,0.0060404167,0.4352761,0.67878425,-0.4567318,-1.1520827,-0.8114646
1747679238.5856047,0.0060404167,0.4352761,0.67878425,-0.4567318,-1.1520827,-0.8114646
1747679238.5861654,0.0060404167,0.4352761,0.67878425,-0.4567318,-1.1520827,-0.8114646
1747679238.5867288,0.0060404167,0.4352761,0.67878425,-0.4567318,-1.1520827,-0.8114646
1747679238.5872939,0.0060404167,0.4352761,0.67878425,-0.4567318,-1.1520827,-0.8114646
1747679238.5878518,0.0060404167,0.4352761,0.67878425,-0.4567318,-1.1520827,-0.8114646
1747679238.5895438,0.0060404167,0.4352761,0.67878425,-0.4567318,-1.1520827,-0.8114646
1747679238.590112,0.0060404167,0.4352761,0.67878425,-0.550475,-1.8061545,-0.78909403
1747679238.5906537,0.0060404167,0.4352761,0.67878425,-0.550475,-1.8061545,-0.78909403
1747679238.591198,-0.06815299,0.45577693,0.7700617,-0.550475,-1.8061545,-0.78909403
1747679238.591727,-0.06815299,0.45577693,0.7700617,-0.550475,-1.8061545,-0.78909403
1747679238.5922785,-0.06815299,0.45577693,0.7700617,-0.550475,-1.8061545,-0.78909403
1747679238.592814,-0.06815299,0.45577693,0.7700617,-0.550475,-1.8061545,-0.78909403
1747679238.5933383,-0.06815299,0.45577693,0.7700617,-0.550475,-1.8061545,-0.78909403
1747679238.5938601,-0.06815299,0.45577693,0.7700617,-0.550475,-1.8061545,-0.78909403
1747679238.594387,-0.06815299,0.45577693,0.7700617,-0.550475,-1.8061545,-0.78909403
1747679238.5949407,-0.06815299,0.45577693,0.7700617,-0.550475,-1.8061545,-0.78909403
1747679238.5955036,-0.06815299,0.45577693,0.7700617,-0.550475,-1.8061545,-0.78909403
1747679238.59607,-0.06815299,0.45577693,0.7700617,-0.550475,-1.8061545,-0.78909403
1747679238.5966241,-0.06815299,0.45577693,0.7700617,-0.550475,-1.8061545,-0.78909403
1747679238.5971682,-0.06815299,0.45577693,0.7700617,-0.550475,-1.8061545,-0.78909403
1747679238.5977123,-0.06815299,0.45577693,0.7700617,-0.550475,-1.8061545,-0.78909403
1747679238.5982487,-0.06815299,0.45577693,0.7700617,-0.550475,-1.8061545,-0.78909403
1747679238.5987766,-0.06815299,0.45577693,0.7700617,-0.550475,-1.8061545,-0.78909403
1747679238.5993235,-0.06815299,0.45577693,0.7700617,-0.550475,-1.8061545,-0.78909403
1747679238.599871,-0.06815299,0.45577693,0.7700617,-0.550475,-1.8061545,-0.78909403
1747679238.6004171,-0.06815299,0.45577693,0.7700617,-0.550475,-1.8061545,-0.78909403
1747679238.600958,-0.06815299,0.45577693,0.7700617,-0.61332554,-2.00962,-0.7368961
1747679238.6014946,-0.06815299,0.45577693,0.7700617,-0.61332554,-2.00962,-0.7368961
1747679238.6020157,-0.027639484,0.41868022,0.8237542,-0.61332554,-2.00962,-0.7368961
1747679238.602534,-0.027639484,0.41868022,0.8237542,-0.61332554,-2.00962,-0.7368961
1747679238.6030524,-0.027639484,0.41868022,0.8237542,-0.61332554,-2.00962,-0.7368961
1747679238.6036031,-0.027639484,0.41868022,0.8237542,-0.61332554,-2.00962,-0.7368961
1747679238.6041603,-0.027639484,0.41868022,0.8237542,-0.61332554,-2.00962,-0.7368961
1747679238.6046827,-0.027639484,0.41868022,0.8237542,-0.61332554,-2.00962,-0.7368961
1747679238.6052015,-0.027639484,0.41868022,0.8237542,-0.61332554,-2.00962,-0.7368961
1747679238.6057193,-0.027639484,0.41868022,0.8237542,-0.61332554,-2.00962,-0.7368961
1747679238.6062372,-0.027639484,0.41868022,0.8237542,-0.61332554,-2.00962,-0.7368961
1747679238.6067553,-0.027639484,0.41868022,0.8237542,-0.61332554,-2.00962,-0.7368961
1747679238.6072729,-0.027639484,0.41868022,0.8237542,-0.61332554,-2.00962,-0.7368961
1747679238.607791,-0.027639484,0.41868022,0.8237542,-0.61332554,-2.00962,-0.7368961
1747679238.6083088,-0.027639484,0.41868022,0.8237542,-0.61332554,-2.00962,-0.7368961
1747679238.6088579,-0.027639484,0.41868022,0.8237542,-0.61332554,-2.00962,-0.7368961
1747679238.609379,-0.027639484,0.41868022,0.8237542,-0.61332554,-2.00962,-0.7368961
1747679238.6098976,-0.027639484,0.41868022,0.8237542,-0.61332554,-2.00962,-0.7368961
1747679238.6104257,-0.027639484,0.41868022,0.8237542,-0.61332554,-2.00962,-0.7368961
1747679238.6109896,-0.027639484,0.41868022,0.8237542,-0.61332554,-2.00962,-0.7368961
1747679238.61155,0.025564997,0.39720318,0.86866075,-0.724113,-1.864744,-0.67404556
1747679238.6121304,0.025564997,0.39720318,0.86866075,-0.724113,-1.864744,-0.67404556
1747679238.6126826,0.025564997,0.39720318,0.86866075,-0.724113,-1.864744,-0.67404556
1747679238.613225,0.025564997,0.39720318,0.86866075,-0.724113,-1.864744,-0.67404556
1747679238.6137836,0.025564997,0.39720318,0.86866075,-0.724113,-1.864744,-0.67404556
1747679238.6143365,0.025564997,0.39720318,0.86866075,-0.724113,-1.864744,-0.67404556
1747679238.6148653,0.025564997,0.39720318,0.86866075,-0.724113,-1.864744,-0.67404556
1747679238.6153848,0.025564997,0.39720318,0.86866075,-0.724113,-1.864744,-0.67404556
1747679238.6159735,0.025564997,0.39720318,0.86866075,-0.724113,-1.864744,-0.67404556
1747679238.6165297,0.025564997,0.39720318,0.86866075,-0.724113,-1.864744,-0.67404556
1747679238.6170814,0.025564997,0.39720318,0.86866075,-0.724113,-1.864744,-0.67404556
1747679238.6176305,0.025564997,0.39720318,0.86866075,-0.724113,-1.864744,-0.67404556
1747679238.6181674,0.025564997,0.39720318,0.86866075,-0.724113,-1.864744,-0.67404556
1747679238.618698,0.025564997,0.39720318,0.86866075,-0.79868144,-1.6378429,-0.6442182
1747679238.619251,0.029469911,0.4357642,0.90380496,-0.79868144,-1.6378429,-0.6442182
1747679238.6198044,0.029469911,0.4357642,0.90380496,-0.79868144,-1.6378429,-0.6442182
1747679238.6203458,0.029469911,0.4357642,0.90380496,-0.79868144,-1.6378429,-0.6442182
1747679238.6208858,0.029469911,0.4357642,0.90380496,-0.79868144,-1.6378429,-0.6442182
1747679238.6214132,0.029469911,0.4357642,0.90380496,-0.79868144,-1.6378429,-0.6442182
1747679238.6219325,0.029469911,0.4357642,0.90380496,-0.79868144,-1.6378429,-0.6442182
1747679238.6224506,0.029469911,0.4357642,0.90380496,-0.79868144,-1.6378429,-0.6442182
1747679238.622969,0.029469911,0.4357642,0.90380496,-0.79868144,-1.6378429,-0.6442182
1747679238.6234868,0.029469911,0.4357642,0.90380496,-0.79868144,-1.6378429,-0.6442182
1747679238.624037,0.029469911,0.4357642,0.90380496,-0.79868144,-1.6378429,-0.6442182
1747679238.6245878,0.029469911,0.4357642,0.90380496,-0.79868144,-1.6378429,-0.6442182
1747679238.6251125,0.029469911,0.4357642,0.90380496,-0.79868144,-1.6378429,-0.6442182
1747679238.6256313,0.029469911,0.4357642,0.90380496,-0.79868144,-1.6378429,-0.6442182
1747679238.626159,0.029469911,0.4357642,0.90380496,-0.79868144,-1.6378429,-0.6442182
1747679238.6267116,0.029469911,0.4357642,0.90380496,-0.79868144,-1.6378429,-0.6442182
1747679238.6272674,0.029469911,0.4357642,0.90380496,-0.79868144,-1.6378429,-0.6442182
1747679238.627826,0.029469911,0.4357642,0.90380496,-0.79868144,-1.6378429,-0.6442182
1747679238.6283786,0.029469911,0.4357642,0.90380496,-0.79868144,-1.6378429,-0.6442182
1747679238.6289246,0.029469911,0.4357642,0.90380496,-0.79868144,-1.6378429,-0.6442182
1747679238.6294832,0.029958028,0.5504711,1.031691,-0.8487488,-1.3768532,-0.60906446
1747679238.6300044,0.029958028,0.5504711,1.031691,-0.8487488,-1.3768532,-0.60906446
1747679238.6305234,0.029958028,0.5504711,1.031691,-0.8487488,-1.3768532,-0.60906446
1747679238.6310601,0.029958028,0.5504711,1.031691,-0.8487488,-1.3768532,-0.60906446
1747679238.631588,0.029958028,0.5504711,1.031691,-0.8487488,-1.3768532,-0.60906446
1747679238.6321094,0.029958028,0.5504711,1.031691,-0.8487488,-1.3768532,-0.60906446
1747679238.6326272,0.029958028,0.5504711,1.031691,-0.8487488,-1.3768532,-0.60906446
1747679238.6331453,0.029958028,0.5504711,1.031691,-0.8487488,-1.3768532,-0.60906446
1747679238.6336632,0.029958028,0.5504711,1.031691,-0.8487488,-1.3768532,-0.60906446
1747679238.6342134,0.029958028,0.5504711,1.031691,-0.8487488,-1.3768532,-0.60906446
1747679238.634768,0.029958028,0.5504711,1.031691,-0.8487488,-1.3768532,-0.60906446
1747679238.6352901,0.029958028,0.5504711,1.031691,-0.8487488,-1.3768532,-0.60906446
1747679238.6358087,0.029958028,0.5504711,1.031691,-0.8487488,-1.3768532,-0.60906446
1747679238.636327,0.029958028,0.5504711,1.031691,-0.8487488,-1.3768532,-0.60906446
1747679238.6368449,0.029958028,0.5504711,1.031691,-0.8487488,-1.3768532,-0.60906446
1747679238.6374102,0.029958028,0.5504711,1.031691,-0.8487488,-1.3768532,-0.60906446
1747679238.6379318,0.029958028,0.5504711,1.031691,-0.8487488,-1.3768532,-0.60906446
1747679238.6384525,0.07242399,0.63101,1.1581126,-0.8487488,-1.3768532,-0.60906446
1747679238.63899,0.07242399,0.63101,1.1581126,-0.7912246,-1.2852405,-0.6016076
1747679238.6395106,0.07242399,0.63101,1.1581126,-0.7912246,-1.2852405,-0.6016076
1747679238.6400306,0.07242399,0.63101,1.1581126,-0.7912246,-1.2852405,-0.6016076
1747679238.6405597,0.07242399,0.63101,1.1581126,-0.7912246,-1.2852405,-0.6016076
1747679238.641092,0.07242399,0.63101,1.1581126,-0.7912246,-1.2852405,-0.6016076
1747679238.6416287,0.07242399,0.63101,1.1581126,-0.7912246,-1.2852405,-0.6016076
1747679238.6421807,0.07242399,0.63101,1.1581126,-0.7912246,-1.2852405,-0.6016076
1747679238.6427345,0.07242399,0.63101,1.1581126,-0.7912246,-1.2852405,-0.6016076
1747679238.6432865,0.07242399,0.63101,1.1581126,-0.7912246,-1.2852405,-0.6016076
1747679238.643839,0.07242399,0.63101,1.1581126,-0.7912246,-1.2852405,-0.6016076
1747679238.6443796,0.07242399,0.63101,1.1581126,-0.7912246,-1.2852405,-0.6016076
1747679238.6449125,0.07242399,0.63101,1.1581126,-0.7912246,-1.2852405,-0.6016076
1747679238.6454322,0.07242399,0.63101,1.1581126,-0.7912246,-1.2852405,-0.6016076
1747679238.6459508,0.07242399,0.63101,1.1581126,-0.7912246,-1.2852405,-0.6016076
1747679238.6464908,0.07242399,0.63101,1.1581126,-0.7912246,-1.2852405,-0.6016076
1747679238.647036,0.07242399,0.63101,1.1581126,-0.7912246,-1.2852405,-0.6016076
1747679238.6475725,0.07242399,0.63101,1.1581126,-0.7912246,-1.2852405,-0.6016076
1747679238.6481001,0.07242399,0.63101,1.1581126,-0.7912246,-1.2852405,-0.6016076
1747679238.6486487,0.07242399,0.63101,1.1581126,-0.7912246,-1.2852405,-0.6016076
1747679238.6492019,0.07242399,0.63101,1.1581126,-0.7912246,-1.2852405,-0.6016076
1747679238.6497378,0.07242399,0.63101,1.1581126,-0.7912246,-1.2852405,-0.6016076
1747679238.6502595,0.07242399,0.63101,1.1581126,-0.7912246,-1.2852405,-0.6016076
1747679238.650781,0.07242399,0.63101,1.1581126,-0.7912246,-1.2852405,-0.6016076
1747679238.6513019,0.07242399,0.63101,1.1581126,-0.7912246,-1.2852405,-0.6016076
1747679238.6518266,0.07242399,0.63101,1.1581126,-0.7912246,-1.2852405,-0.6016076
1747679238.65235,0.07242399,0.63101,1.1581126,-0.7912246,-1.2852405,-0.6016076
1747679238.6528714,0.07242399,0.63101,1.1581126,-0.7912246,-1.2852405,-0.6016076
1747679238.653408,0.07242399,0.63101,1.1581126,-0.7912246,-1.2852405,-0.6016076
1747679238.6539633,0.07242399,0.63101,1.1581126,-0.6815024,-1.339569,-0.6484792
1747679238.654494,0.07242399,0.63101,1.1581126,-0.6815024,-1.339569,-0.6484792
1747679238.6550176,0.16516574,0.703251,1.2611048,-0.6815024,-1.339569,-0.6484792
1747679238.655539,0.16516574,0.703251,1.2611048,-0.6815024,-1.339569,-0.6484792
1747679238.6560795,0.16516574,0.703251,1.2611048,-0.6815024,-1.339569,-0.6484792
1747679238.6566007,0.16516574,0.703251,1.2611048,-0.6815024,-1.339569,-0.6484792
1747679238.657131,0.16516574,0.703251,1.2611048,-0.6815024,-1.339569,-0.6484792
1747679238.657689,0.16516574,0.703251,1.2611048,-0.6815024,-1.339569,-0.6484792
1747679238.658242,0.16516574,0.703251,1.2611048,-0.6815024,-1.339569,-0.6484792
1747679238.658782,0.16516574,0.703251,1.2611048,-0.6815024,-1.339569,-0.6484792
1747679238.6593173,0.16516574,0.703251,1.2611048,-0.6815024,-1.339569,-0.6484792
1747679238.6598535,0.16516574,0.703251,1.2611048,-0.6815024,-1.339569,-0.6484792
1747679238.660396,0.16516574,0.703251,1.2611048,-0.6815024,-1.339569,-0.6484792
1747679238.660939,0.16516574,0.703251,1.2611048,-0.6815024,-1.339569,-0.6484792
1747679238.661494,0.16516574,0.703251,1.2611048,-0.6815024,-1.339569,-0.6484792
1747679238.6621375,0.16516574,0.703251,1.2611048,-0.6815024,-1.339569,-0.6484792
1747679238.6626997,0.31989804,0.81014806,1.4046105,-0.4769718,-1.7443693,-0.8636625
1747679238.663282,0.31989804,0.81014806,1.4046105,-0.4769718,-1.7443693,-0.8636625
1747679238.6638026,0.31989804,0.81014806,1.4046105,-0.4769718,-1.7443693,-0.8636625
1747679238.6643536,0.31989804,0.81014806,1.4046105,-0.4769718,-1.7443693,-0.8636625
1747679238.6648796,0.31989804,0.81014806,1.4046105,-0.4769718,-1.7443693,-0.8636625
1747679238.6653986,0.31989804,0.81014806,1.4046105,-0.4769718,-1.7443693,-0.8636625
1747679238.665917,0.31989804,0.81014806,1.4046105,-0.4769718,-1.7443693,-0.8636625
1747679238.666435,0.31989804,0.81014806,1.4046105,-0.4769718,-1.7443693,-0.8636625
1747679238.6669526,0.31989804,0.81014806,1.4046105,-0.4769718,-1.7443693,-0.8636625
1747679238.6674705,0.31989804,0.81014806,1.4046105,-0.4769718,-1.7443693,-0.8636625
1747679238.6679883,0.31989804,0.81014806,1.4046105,-0.4769718,-1.7443693,-0.8636625
1747679238.6685057,0.31989804,0.81014806,1.4046105,-0.4769718,-1.7443693,-0.8636625
1747679238.6690235,0.31989804,0.81014806,1.4046105,-0.4769718,-1.7443693,-0.8636625
1747679238.6695416,0.31989804,0.81014806,1.4046105,-0.4769718,-1.7443693,-0.8636625
1747679238.6700594,0.31989804,0.81014806,1.4046105,-0.4769718,-1.7443693,-0.8636625
1747679238.670577,0.31989804,0.81014806,1.4046105,-0.4769718,-1.7443693,-0.8636625
1747679238.6710951,0.31989804,0.81014806,1.4046105,-0.4769718,-1.7443693,-0.8636625
1747679238.6716127,0.31989804,0.81014806,1.4046105,-0.4769718,-1.7443693,-0.8636625
1747679238.6721303,0.31989804,0.81014806,1.4046105,-0.4769718,-1.7443693,-0.8636625
1747679238.672648,0.31989804,0.81014806,1.4046105,-0.4769718,-1.7443693,-0.8636625
1747679238.6731799,0.31989804,0.81014806,1.4046105,-0.4769718,-1.7443693,-0.8636625
1747679238.6737375,0.36870947,0.8692098,1.568617,-0.4769718,-1.7443693,-0.8636625
1747679238.674331,0.36870947,0.8692098,1.568617,-0.2830938,-2.3313296,-1.1459574
1747679238.6748767,0.36870947,0.8692098,1.568617,-0.2830938,-2.3313296,-1.1459574
1747679238.6754193,0.36870947,0.8692098,1.568617,-0.2830938,-2.3313296,-1.1459574
1747679238.6759465,0.36870947,0.8692098,1.568617,-0.2830938,-2.3313296,-1.1459574
1747679238.6764734,0.36870947,0.8692098,1.568617,-0.2830938,-2.3313296,-1.1459574
1747679238.6770105,0.36870947,0.8692098,1.568617,-0.2830938,-2.3313296,-1.1459574
1747679238.6775668,0.36870947,0.8692098,1.568617,-0.2830938,-2.3313296,-1.1459574
1747679238.678123,0.36870947,0.8692098,1.568617,-0.2830938,-2.3313296,-1.1459574
1747679238.6786745,0.36870947,0.8692098,1.568617,-0.2830938,-2.3313296,-1.1459574
1747679238.6792314,0.36870947,0.8692098,1.568617,-0.2830938,-2.3313296,-1.1459574
1747679238.679783,0.36870947,0.8692098,1.568617,-0.2830938,-2.3313296,-1.1459574
1747679238.6803162,0.36870947,0.8692098,1.568617,-0.2830938,-2.3313296,-1.1459574
1747679238.6808357,0.36870947,0.8692098,1.568617,-0.2830938,-2.3313296,-1.1459574
1747679238.681354,0.36870947,0.8692098,1.568617,-0.2830938,-2.3313296,-1.1459574
1747679238.6818724,0.36870947,0.8692098,1.568617,-0.2830938,-2.3313296,-1.1459574
1747679238.6823907,0.36870947,0.8692098,1.568617,-0.2830938,-2.3313296,-1.1459574
1747679238.682909,0.36870947,0.8692098,1.568617,-0.2830938,-2.3313296,-1.1459574
1747679238.6834612,0.36870947,0.8692098,1.568617,-0.2830938,-2.3313296,-1.1459574
1747679238.6840246,0.36870947,0.8692098,1.568617,-0.021038957,-3.0663614,-1.4474269
1747679238.6845531,0.36870947,0.8692098,1.568617,-0.021038957,-3.0663614,-1.4474269
1747679238.6850736,0.29598042,0.9160689,1.7980309,-0.021038957,-3.0663614,-1.4474269
1747679238.6855927,0.29598042,0.9160689,1.7980309,-0.021038957,-3.0663614,-1.4474269
1747679238.686111,0.29598042,0.9160689,1.7980309,-0.021038957,-3.0663614,-1.4474269
1747679238.686629,0.29598042,0.9160689,1.7980309,-0.021038957,-3.0663614,-1.4474269
1747679238.6871476,0.29598042,0.9160689,1.7980309,-0.021038957,-3.0663614,-1.4474269
1747679238.6876776,0.29598042,0.9160689,1.7980309,-0.021038957,-3.0663614,-1.4474269
1747679238.6882117,0.20323867,0.94291514,1.969847,-0.021038957,-3.0663614,-1.4474269
1747679238.688752,0.20323867,0.94291514,1.969847,-0.021038957,-3.0663614,-1.4474269
1747679238.689298,0.20323867,0.94291514,1.969847,-0.021038957,-3.0663614,-1.4474269
1747679238.6898422,0.20323867,0.94291514,1.969847,0.19201377,-3.226151,-1.5411701
1747679238.6903768,0.20323867,0.94291514,1.969847,0.19201377,-3.226151,-1.5411701
1747679238.6908987,0.20323867,0.94291514,1.969847,0.19201377,-3.226151,-1.5411701
1747679238.6914177,0.20323867,0.94291514,1.969847,0.19201377,-3.226151,-1.5411701
1747679238.691936,0.20323867,0.94291514,1.969847,0.19201377,-3.226151,-1.5411701
1747679238.6924787,0.20323867,0.94291514,1.969847,0.19201377,-3.226151,-1.5411701
1747679238.6930146,0.20323867,0.94291514,1.969847,0.19201377,-3.226151,-1.5411701
1747679238.6935465,0.20323867,0.94291514,1.969847,0.19201377,-3.226151,-1.5411701
1747679238.694082,0.20323867,0.94291514,1.969847,0.19201377,-3.226151,-1.5411701
1747679238.6946034,0.20323867,0.94291514,1.969847,0.19201377,-3.226151,-1.5411701
1747679238.695122,0.20323867,0.94291514,1.969847,0.19201377,-3.226151,-1.5411701
1747679238.6956403,0.20323867,0.94291514,1.969847,0.19201377,-3.226151,-1.5411701
1747679238.6961584,0.20323867,0.94291514,1.969847,0.19201377,-3.226151,-1.5411701
1747679238.6967049,0.20323867,0.94291514,1.969847,0.19201377,-3.226151,-1.5411701
1747679238.6972232,0.20323867,0.94291514,1.969847,0.19201377,-3.226151,-1.5411701
1747679238.697741,0.20323867,0.94291514,1.969847,0.19201377,-3.226151,-1.5411701
1747679238.6982589,0.20323867,0.94291514,1.969847,0.19201377,-3.226151,-1.5411701
1747679238.6987777,0.20323867,0.94291514,1.969847,0.19201377,-3.226151,-1.5411701
1747679238.6992958,0.20323867,0.94291514,1.969847,0.19201377,-3.226151,-1.5411701
1747679238.6998143,0.136367,0.97366637,2.051362,0.19201377,-3.226151,-1.5411701
1747679238.7003326,0.136367,0.97366637,2.051362,0.19201377,-3.226151,-1.5411701
1747679238.700851,0.136367,0.97366637,2.051362,0.44128546,-3.0045762,-1.5390396
1747679238.701369,0.136367,0.97366637,2.051362,0.44128546,-3.0045762,-1.5390396
1747679238.701887,0.136367,0.97366637,2.051362,0.44128546,-3.0045762,-1.5390396
1747679238.7024045,0.136367,0.97366637,2.051362,0.44128546,-3.0045762,-1.5390396
1747679238.7029223,0.136367,0.97366637,2.051362,0.44128546,-3.0045762,-1.5390396
1747679238.7034519,0.136367,0.97366637,2.051362,0.44128546,-3.0045762,-1.5390396
1747679238.7040067,0.136367,0.97366637,2.051362,0.44128546,-3.0045762,-1.5390396
1747679238.7045553,0.136367,0.97366637,2.051362,0.44128546,-3.0045762,-1.5390396
1747679238.7050886,0.136367,0.97366637,2.051362,0.44128546,-3.0045762,-1.5390396
1747679238.7056081,0.136367,0.97366637,2.051362,0.44128546,-3.0045762,-1.5390396
1747679238.7061267,0.136367,0.97366637,2.051362,0.44128546,-3.0045762,-1.5390396
1747679238.706645,0.136367,0.97366637,2.051362,0.44128546,-3.0045762,-1.5390396
1747679238.7071629,0.136367,0.97366637,2.051362,0.44128546,-3.0045762,-1.5390396
1747679238.7077115,0.136367,0.97366637,2.051362,0.44128546,-3.0045762,-1.5390396
1747679238.7082715,0.136367,0.97366637,2.051362,0.44128546,-3.0045762,-1.5390396
1747679238.7088106,0.136367,0.97366637,2.051362,0.44128546,-3.0045762,-1.5390396
1747679238.7093563,0.136367,0.97366637,2.051362,0.44128546,-3.0045762,-1.5390396
1747679238.709909,0.136367,0.97366637,2.051362,0.44128546,-3.0045762,-1.5390396
1747679238.7104425,0.09780595,1.0454192,2.0908995,0.58935714,-2.4037673,-1.4239912
1747679238.7109618,0.09780595,1.0454192,2.0908995,0.58935714,-2.4037673,-1.4239912
1747679238.7114804,0.09780595,1.0454192,2.0908995,0.58935714,-2.4037673,-1.4239912
1747679238.7119985,0.09780595,1.0454192,2.0908995,0.58935714,-2.4037673,-1.4239912
1747679238.7125163,0.09780595,1.0454192,2.0908995,0.58935714,-2.4037673,-1.4239912
1747679238.7130349,0.09780595,1.0454192,2.0908995,0.58935714,-2.4037673,-1.4239912
1747679238.7135525,0.09780595,1.0454192,2.0908995,0.58935714,-2.4037673,-1.4239912
1747679238.714105,0.09780595,1.0454192,2.0908995,0.58935714,-2.4037673,-1.4239912
1747679238.7146704,0.09780595,1.0454192,2.0908995,0.58935714,-2.4037673,-1.4239912
1747679238.7151983,0.09780595,1.0454192,2.0908995,0.58935714,-2.4037673,-1.4239912
1747679238.7157178,0.09780595,1.0454192,2.0908995,0.58935714,-2.4037673,-1.4239912
1747679238.716236,0.09780595,1.0454192,2.0908995,0.58935714,-2.4037673,-1.4239912
1747679238.7167542,0.09780595,1.0454192,2.0908995,0.58935714,-2.4037673,-1.4239912
1747679238.7172723,0.09780595,1.0454192,2.0908995,0.58935714,-2.4037673,-1.4239912
1747679238.7177901,0.09780595,1.0454192,2.0908995,0.58935714,-2.4037673,-1.4239912
1747679238.7183082,0.09780595,1.0454192,2.0908995,0.58935714,-2.4037673,-1.4239912
1747679238.718826,0.09780595,1.0454192,2.0908995,0.58935714,-2.4037673,-1.4239912
1747679238.7193568,0.09780595,1.0454192,2.0908995,0.58935714,-2.4037673,-1.4239912
1747679238.7199166,0.09780595,1.0454192,2.0908995,0.58935714,-2.4037673,-1.4239912
1747679238.7204654,0.09780595,1.0454192,2.0908995,0.58935714,-2.4037673,-1.4239912
1747679238.7209988,0.08462685,1.117172,2.110424,0.58935714,-2.4037673,-1.4239912
1747679238.7215195,0.08462685,1.117172,2.110424,0.5414202,-2.030925,-1.3494227
1747679238.7220378,0.08462685,1.117172,2.110424,0.5414202,-2.030925,-1.3494227
1747679238.722556,0.08462685,1.117172,2.110424,0.5414202,-2.030925,-1.3494227
1747679238.723089,0.08462685,1.117172,2.110424,0.5414202,-2.030925,-1.3494227
1747679238.7236283,0.08462685,1.117172,2.110424,0.5414202,-2.030925,-1.3494227
1747679238.7241685,0.08462685,1.117172,2.110424,0.5414202,-2.030925,-1.3494227
1747679238.7247093,0.08462685,1.117172,2.110424,0.5414202,-2.030925,-1.3494227
1747679238.72523,0.08462685,1.117172,2.110424,0.5414202,-2.030925,-1.3494227
1747679238.725749,0.08462685,1.117172,2.110424,0.5414202,-2.030925,-1.3494227
1747679238.7262673,0.08462685,1.117172,2.110424,0.5414202,-2.030925,-1.3494227
1747679238.7267854,0.08462685,1.117172,2.110424,0.5414202,-2.030925,-1.3494227
1747679238.727304,0.08462685,1.117172,2.110424,0.5414202,-2.030925,-1.3494227
1747679238.7278218,0.08462685,1.117172,2.110424,0.5414202,-2.030925,-1.3494227
1747679238.7283401,0.12221167,1.1630548,2.2217143,0.5414202,-2.030925,-1.3494227
1747679238.728859,0.12221167,1.1630548,2.2217143,0.5414202,-2.030925,-1.3494227
1747679238.7293851,0.12221167,1.1630548,2.2217143,0.43382862,-1.6144071,-1.350488
1747679238.7299044,0.12221167,1.1630548,2.2217143,0.43382862,-1.6144071,-1.350488
1747679238.7304227,0.12221167,1.1630548,2.2217143,0.43382862,-1.6144071,-1.350488
1747679238.7309408,0.12221167,1.1630548,2.2217143,0.43382862,-1.6144071,-1.350488
1747679238.731459,0.12221167,1.1630548,2.2217143,0.43382862,-1.6144071,-1.350488
1747679238.7319772,0.12221167,1.1630548,2.2217143,0.43382862,-1.6144071,-1.350488
1747679238.7324953,0.12221167,1.1630548,2.2217143,0.43382862,-1.6144071,-1.350488
1747679238.7330134,0.12221167,1.1630548,2.2217143,0.43382862,-1.6144071,-1.350488
1747679238.7335489,0.12221167,1.1630548,2.2217143,0.43382862,-1.6144071,-1.350488
1747679238.7340877,0.12221167,1.1630548,2.2217143,0.43382862,-1.6144071,-1.350488
1747679238.734608,0.12221167,1.1630548,2.2217143,0.43382862,-1.6144071,-1.350488
1747679238.7351356,0.12221167,1.1630548,2.2217143,0.43382862,-1.6144071,-1.350488
1747679238.7356875,0.12221167,1.1630548,2.2217143,0.43382862,-1.6144071,-1.350488
1747679238.7362373,0.12221167,1.1630548,2.2217143,0.43382862,-1.6144071,-1.350488
1747679238.7367704,0.12221167,1.1630548,2.2217143,0.43382862,-1.6144071,-1.350488
1747679238.73729,0.12221167,1.1630548,2.2217143,0.43382862,-1.6144071,-1.350488
1747679238.7378087,0.12221167,1.1630548,2.2217143,0.43382862,-1.6144071,-1.350488
1747679238.7383435,0.13441454,1.0864209,2.3247063,0.28682223,-1.4492912,-1.4026859
1747679238.7388935,0.13441454,1.0864209,2.3247063,0.28682223,-1.4492912,-1.4026859
1747679238.7394323,0.13441454,1.0864209,2.3247063,0.28682223,-1.4492912,-1.4026859
1747679238.7399626,0.13441454,1.0864209,2.3247063,0.28682223,-1.4492912,-1.4026859
1747679238.7404966,0.13441454,1.0864209,2.3247063,0.28682223,-1.4492912,-1.4026859
1747679238.7410293,0.13441454,1.0864209,2.3247063,0.28682223,-1.4492912,-1.4026859
1747679238.7415493,0.13441454,1.0864209,2.3247063,0.28682223,-1.4492912,-1.4026859
1747679238.7420678,0.13441454,1.0864209,2.3247063,0.28682223,-1.4492912,-1.4026859
1747679238.742586,0.13441454,1.0864209,2.3247063,0.28682223,-1.4492912,-1.4026859
1747679238.7431037,0.13441454,1.0864209,2.3247063,0.28682223,-1.4492912,-1.4026859
1747679238.7436552,0.13441454,1.0864209,2.3247063,0.28682223,-1.4492912,-1.4026859
1747679238.7442188,0.13441454,1.0864209,2.3247063,0.28682223,-1.4492912,-1.4026859
1747679238.744748,0.13441454,1.0864209,2.3247063,0.28682223,-1.4492912,-1.4026859
1747679238.7453036,0.13441454,1.0864209,2.3247063,0.28682223,-1.4492912,-1.4026859
1747679238.7458222,0.13441454,1.0864209,2.3247063,0.28682223,-1.4492912,-1.4026859
1747679238.7463405,0.13441454,1.0864209,2.3247063,0.28682223,-1.4492912,-1.4026859
1747679238.7468593,0.13441454,1.0864209,2.3247063,0.28682223,-1.4492912,-1.4026859
1747679238.7473774,0.13441454,1.0864209,2.3247063,0.28682223,-1.4492912,-1.4026859
1747679238.7478952,0.13441454,1.0864209,2.3247063,0.28682223,-1.4492912,-1.4026859
1747679238.7484162,0.13441454,1.0864209,2.3247063,0.28682223,-1.4492912,-1.4026859
1747679238.7489374,0.13441454,1.0864209,2.3247063,0.28682223,-1.4492912,-1.4026859
1747679238.7494576,0.13441454,1.0864209,2.3247063,0.28682223,-1.4492912,-1.4026859
1747679238.749978,0.13441454,1.0864209,2.3247063,0.28682223,-1.4492912,-1.4026859
1747679238.7504995,0.13441454,1.0864209,2.3247063,0.28682223,-1.4492912,-1.4026859
1747679238.7510355,0.13441454,1.0864209,2.3247063,0.28682223,-1.4492912,-1.4026859
1747679238.7516034,0.07486456,0.9717139,2.3988998,0.12703268,-1.407746,-1.3781848
1747679238.7521505,0.07486456,0.9717139,2.3988998,0.12703268,-1.407746,-1.3781848
1747679238.7526858,0.07486456,0.9717139,2.3988998,0.12703268,-1.407746,-1.3781848
1747679238.753208,0.07486456,0.9717139,2.3988998,0.12703268,-1.407746,-1.3781848
1747679238.7537549,0.07486456,0.9717139,2.3988998,0.12703268,-1.407746,-1.3781848
1747679238.7543066,0.07486456,0.9717139,2.3988998,0.12703268,-1.407746,-1.3781848
1747679238.7548337,0.07486456,0.9717139,2.3988998,0.12703268,-1.407746,-1.3781848
1747679238.7553551,0.07486456,0.9717139,2.3988998,0.12703268,-1.407746,-1.3781848
1747679238.7558763,0.07486456,0.9717139,2.3988998,0.12703268,-1.407746,-1.3781848
1747679238.7563972,0.07486456,0.9717139,2.3988998,0.12703268,-1.407746,-1.3781848
1747679238.7569182,0.07486456,0.9717139,2.3988998,0.12703268,-1.407746,-1.3781848
1747679238.757439,0.07486456,0.9717139,2.3988998,0.12703268,-1.407746,-1.3781848
1747679238.7579598,0.07486456,0.9717139,2.3988998,0.12703268,-1.407746,-1.3781848
1747679238.7584803,0.07486456,0.9717139,2.3988998,0.12703268,-1.407746,-1.3781848
1747679238.7590013,0.07486456,0.9717139,2.3988998,0.12703268,-1.407746,-1.3781848
1747679238.7595232,0.07486456,0.9717139,2.3988998,0.12703268,-1.407746,-1.3781848
1747679238.7600439,0.07486456,0.9717139,2.3988998,0.12703268,-1.407746,-1.3781848
1747679238.7605648,0.07486456,0.9717139,2.3988998,0.12703268,-1.407746,-1.3781848
1747679238.7610862,0.07486456,0.9717139,2.3988998,-0.12650006,-1.4333122,-1.160871
1747679238.7616074,-0.06717676,0.8081956,2.4696763,-0.12650006,-1.4333122,-1.160871
1747679238.762128,-0.06717676,0.8081956,2.4696763,-0.12650006,-1.4333122,-1.160871
1747679238.762649,-0.06717676,0.8081956,2.4696763,-0.12650006,-1.4333122,-1.160871
1747679238.7631726,-0.06717676,0.8081956,2.4696763,-0.12650006,-1.4333122,-1.160871
1747679238.76368,-0.06717676,0.8081956,2.4696763,-0.12650006,-1.4333122,-1.160871
1747679238.7642298,-0.06717676,0.8081956,2.4696763,-0.12650006,-1.4333122,-1.160871
1747679238.764791,-0.06717676,0.8081956,2.4696763,-0.12650006,-1.4333122,-1.160871
1747679238.7653205,-0.06717676,0.8081956,2.4696763,-0.12650006,-1.4333122,-1.160871
1747679238.7658403,-0.06717676,0.8081956,2.4696763,-0.12650006,-1.4333122,-1.160871
1747679238.7663589,-0.06717676,0.8081956,2.4696763,-0.12650006,-1.4333122,-1.160871
1747679238.766887,-0.06717676,0.8081956,2.4696763,-0.12650006,-1.4333122,-1.160871
1747679238.7674344,-0.06717676,0.8081956,2.4696763,-0.12650006,-1.4333122,-1.160871
1747679238.767975,-0.06717676,0.8081956,2.4696763,-0.12650006,-1.4333122,-1.160871
1747679238.7685084,-0.06717676,0.8081956,2.4696763,-0.12650006,-1.4333122,-1.160871
1747679238.7690585,-0.06717676,0.8081956,2.4696763,-0.12650006,-1.4333122,-1.160871
1747679238.7696223,-0.06717676,0.8081956,2.4696763,-0.12650006,-1.4333122,-1.160871
1747679238.7701702,-0.06717676,0.8081956,2.4696763,-0.12650006,-1.4333122,-1.160871
1747679238.770711,-0.06717676,0.8081956,2.4696763,-0.12650006,-1.4333122,-1.160871
1747679238.771243,-0.06717676,0.8081956,2.4696763,-0.30439907,-1.3001543,-1.0181258
1747679238.7717655,-0.06717676,0.8081956,2.4696763,-0.30439907,-1.3001543,-1.0181258
1747679238.7722845,-0.06717676,0.8081956,2.4696763,-0.30439907,-1.3001543,-1.0181258
1747679238.772803,0.2920755,0.44991955,2.7522945,-0.30439907,-1.3001543,-1.0181258
1747679238.7733538,0.2920755,0.44991955,2.7522945,-0.30439907,-1.3001543,-1.0181258
1747679238.7739155,0.2920755,0.44991955,2.7522945,-0.30439907,-1.3001543,-1.0181258
1747679238.7744448,0.2920755,0.44991955,2.7522945,-0.30439907,-1.3001543,-1.0181258
1747679238.7749963,0.2920755,0.44991955,2.7522945,-0.30439907,-1.3001543,-1.0181258
1747679238.7755148,0.2920755,0.44991955,2.7522945,-0.30439907,-1.3001543,-1.0181258
1747679238.7760332,0.2920755,0.44991955,2.7522945,-0.30439907,-1.3001543,-1.0181258
1747679238.7765515,0.2920755,0.44991955,2.7522945,-0.30439907,-1.3001543,-1.0181258
1747679238.7770698,0.2920755,0.44991955,2.7522945,-0.30439907,-1.3001543,-1.0181258
1747679238.777588,0.2920755,0.44991955,2.7522945,-0.30439907,-1.3001543,-1.0181258
1747679238.7781062,0.2920755,0.44991955,2.7522945,-0.30439907,-1.3001543,-1.0181258
1747679238.7786243,0.2920755,0.44991955,2.7522945,-0.30439907,-1.3001543,-1.0181258
1747679238.7791424,0.2920755,0.44991955,2.7522945,-0.30439907,-1.3001543,-1.0181258
1747679238.7796602,0.2920755,0.44991955,2.7522945,-0.30439907,-1.3001543,-1.0181258
1747679238.7801785,0.2920755,0.44991955,2.7522945,-0.30439907,-1.3001543,-1.0181258
1747679238.7806964,0.2920755,0.44991955,2.7522945,-0.30439907,-1.3001543,-1.0181258
1747679238.7812145,0.2920755,0.44991955,2.7522945,-0.30439907,-1.3001543,-1.0181258
1747679238.7817452,0.2920755,0.44991955,2.7522945,-0.30439907,-1.3001543,-1.0181258
1747679238.7823536,0.57567,0.2732221,2.936802,-0.17017587,-1.501489,-1.4335785
1747679238.7829003,0.57567,0.2732221,2.936802,-0.17017587,-1.501489,-1.4335785
1747679238.7834463,0.57567,0.2732221,2.936802,-0.17017587,-1.501489,-1.4335785
1747679238.7839863,0.57567,0.2732221,2.936802,-0.17017587,-1.501489,-1.4335785
1747679238.7845278,0.57567,0.2732221,2.936802,-0.17017587,-1.501489,-1.4335785
1747679238.7850635,0.57567,0.2732221,2.936802,-0.17017587,-1.501489,-1.4335785
1747679238.7855852,0.57567,0.2732221,2.936802,-0.17017587,-1.501489,-1.4335785
1747679238.7861037,0.57567,0.2732221,2.936802,-0.17017587,-1.501489,-1.4335785
1747679238.7866223,0.57567,0.2732221,2.936802,-0.17017587,-1.501489,-1.4335785
1747679238.7871406,0.57567,0.2732221,2.936802,-0.17017587,-1.501489,-1.4335785
1747679238.7876592,0.57567,0.2732221,2.936802,-0.17017587,-1.501489,-1.4335785
1747679238.7881777,0.57567,0.2732221,2.936802,-0.17017587,-1.501489,-1.4335785
1747679238.788696,0.5063578,0.25857866,3.1032488,0.067377925,-1.4333122,-1.7275913
1747679238.7892146,0.5063578,0.25857866,3.1032488,0.067377925,-1.4333122,-1.7275913
1747679238.7897332,0.5063578,0.25857866,3.1032488,0.067377925,-1.4333122,-1.7275913
1747679238.7902513,0.5063578,0.25857866,3.1032488,0.067377925,-1.4333122,-1.7275913
1747679238.790769,0.5063578,0.25857866,3.1032488,0.067377925,-1.4333122,-1.7275913
1747679238.791287,0.5063578,0.25857866,3.1032488,0.067377925,-1.4333122,-1.7275913
1747679238.7918053,0.5063578,0.25857866,3.1032488,0.067377925,-1.4333122,-1.7275913
1747679238.7923236,0.5063578,0.25857866,3.1032488,0.067377925,-1.4333122,-1.7275913
1747679238.7928417,0.5063578,0.25857866,3.1032488,0.067377925,-1.4333122,-1.7275913
1747679238.7933593,0.5063578,0.25857866,3.1032488,0.067377925,-1.4333122,-1.7275913
1747679238.793908,0.5063578,0.25857866,3.1032488,0.067377925,-1.4333122,-1.7275913
1747679238.794466,0.5063578,0.25857866,3.1032488,0.067377925,-1.4333122,-1.7275913
1747679238.7949884,0.5063578,0.25857866,3.1032488,0.067377925,-1.4333122,-1.7275913
1747679238.795507,0.5063578,0.25857866,3.1032488,0.067377925,-1.4333122,-1.7275913
1747679238.7960255,0.5063578,0.25857866,3.1032488,0.067377925,-1.4333122,-1.7275913
1747679238.7965438,0.5063578,0.25857866,3.1032488,0.067377925,-1.4333122,-1.7275913
1747679238.797062,0.5063578,0.25857866,3.1032488,0.067377925,-1.4333122,-1.7275913
1747679238.7975895,0.5063578,0.25857866,3.1032488,0.067377925,-1.4333122,-1.7275913
1747679238.7981358,0.5063578,0.25857866,3.1032488,0.067377925,-1.4333122,-1.7275913
1747679238.7986803,0.5063578,0.25857866,3.1032488,0.067377925,-1.4333122,-1.7275913
1747679238.7992134,0.5063578,0.25857866,3.1032488,0.067377925,-1.4333122,-1.7275913
1747679238.7997506,0.5063578,0.25857866,3.1032488,0.067377925,-1.4333122,-1.7275913
1747679238.8003511,0.5063578,0.25857866,3.1032488,0.067377925,-1.4333122,-1.7275913
1747679238.8008907,0.5063578,0.25857866,3.1032488,0.067377925,-1.4333122,-1.7275913
1747679238.8014297,0.5146557,0.22099385,3.3063045,0.46259072,-0.6109287,-1.798964
1747679238.8019633,0.5146557,0.22099385,3.3063045,0.46259072,-0.6109287,-1.798964
1747679238.802492,0.5146557,0.22099385,3.3063045,0.46259072,-0.6109287,-1.798964
1747679238.8030114,0.5146557,0.22099385,3.3063045,0.46259072,-0.6109287,-1.798964
1747679238.8035295,0.5146557,0.22099385,3.3063045,0.46259072,-0.6109287,-1.798964
1747679238.8040805,0.5146557,0.22099385,3.3063045,0.46259072,-0.6109287,-1.798964
1747679238.8046417,0.5146557,0.22099385,3.3063045,0.46259072,-0.6109287,-1.798964
1747679238.8051708,0.5146557,0.22099385,3.3063045,0.46259072,-0.6109287,-1.798964
1747679238.8056908,0.5146557,0.22099385,3.3063045,0.46259072,-0.6109287,-1.798964
1747679238.8062093,0.5146557,0.22099385,3.3063045,0.46259072,-0.6109287,-1.798964
1747679238.8067276,0.5146557,0.22099385,3.3063045,0.46259072,-0.6109287,-1.798964
1747679238.8072457,0.5146557,0.22099385,3.3063045,0.46259072,-0.6109287,-1.798964
1747679238.8077643,0.5146557,0.22099385,3.3063045,0.46259072,-0.6109287,-1.798964
1747679238.8082821,0.5146557,0.22099385,3.3063045,0.46259072,-0.6109287,-1.798964
1747679238.808811,0.5146557,0.22099385,3.3063045,0.46259072,-0.6109287,-1.798964
1747679238.8093324,0.5146557,0.22099385,3.3063045,0.9004141,0.3094591,-1.8469008
1747679238.809851,0.5146557,0.22099385,3.3063045,0.9004141,0.3094591,-1.8469008
1747679238.810369,0.5146557,0.22099385,3.3063045,0.9004141,0.3094591,-1.8469008
1747679238.8108869,0.5146557,0.22099385,3.3063045,0.9004141,0.3094591,-1.8469008
1747679238.8114047,0.5146557,0.22099385,3.3063045,0.9004141,0.3094591,-1.8469008
1747679238.8119228,0.5146557,0.22099385,3.3063045,0.9004141,0.3094591,-1.8469008
1747679238.8124406,0.5146557,0.22099385,3.3063045,0.9004141,0.3094591,-1.8469008
1747679238.812959,0.6152073,0.07748818,3.4903238,0.9004141,0.3094591,-1.8469008
1747679238.8134882,0.6152073,0.07748818,3.4903238,0.9004141,0.3094591,-1.8469008
1747679238.814051,0.6152073,0.07748818,3.4903238,0.9004141,0.3094591,-1.8469008
1747679238.81461,0.6152073,0.07748818,3.4903238,0.9004141,0.3094591,-1.8469008
1747679238.8151658,0.6152073,0.07748818,3.4903238,0.9004141,0.3094591,-1.8469008
1747679238.8157122,0.6152073,0.07748818,3.4903238,0.9004141,0.3094591,-1.8469008
1747679238.8162389,0.6152073,0.07748818,3.4903238,0.9004141,0.3094591,-1.8469008
1747679238.8167574,0.6152073,0.07748818,3.4903238,0.9004141,0.3094591,-1.8469008
1747679238.817276,0.6152073,0.07748818,3.4903238,0.9004141,0.3094591,-1.8469008
1747679238.8177943,0.8387637,-0.140699,3.615769,1.5331807,1.105211,-1.9246651
1747679238.8183126,0.8387637,-0.140699,3.615769,1.5331807,1.105211,-1.9246651
1747679238.8188312,0.8387637,-0.140699,3.615769,1.5331807,1.105211,-1.9246651
1747679238.81935,0.8387637,-0.140699,3.615769,1.5331807,1.105211,-1.9246651
1747679238.8198683,0.8387637,-0.140699,3.615769,1.5331807,1.105211,-1.9246651
1747679238.820386,0.8387637,-0.140699,3.615769,1.5331807,1.105211,-1.9246651
1747679238.8209043,0.8387637,-0.140699,3.615769,1.5331807,1.105211,-1.9246651
1747679238.8214219,0.8387637,-0.140699,3.615769,1.5331807,1.105211,-1.9246651
1747679238.82194,0.8387637,-0.140699,3.615769,1.5331807,1.105211,-1.9246651
1747679238.8224576,0.8387637,-0.140699,3.615769,1.5331807,1.105211,-1.9246651
1747679238.8229754,0.8387637,-0.140699,3.615769,1.5331807,1.105211,-1.9246651
1747679238.8234935,0.8387637,-0.140699,3.615769,1.5331807,1.105211,-1.9246651
1747679238.8240423,0.8387637,-0.140699,3.615769,1.5331807,1.105211,-1.9246651
1747679238.8245976,0.8387637,-0.140699,3.615769,1.5331807,1.105211,-1.9246651
1747679238.8251195,0.8387637,-0.140699,3.615769,1.5331807,1.105211,-1.9246651
1747679238.8256383,0.8387637,-0.140699,3.615769,1.5331807,1.105211,-1.9246651
1747679238.8261566,0.8387637,-0.140699,3.615769,1.5331807,1.105211,-1.9246651
1747679238.8266747,0.8387637,-0.140699,3.615769,1.5331807,1.105211,-1.9246651
1747679238.8271928,0.8387637,-0.140699,3.615769,1.5331807,1.105211,-1.9246651
1747679238.8277109,0.8387637,-0.140699,3.615769,1.5331807,1.105211,-1.9246651
1747679238.8282294,0.8387637,-0.140699,3.615769,1.5331807,1.105211,-1.9246651
1747679238.8287497,0.8387637,-0.140699,3.615769,1.5331807,1.105211,-1.9246651
1747679238.829279,0.8387637,-0.140699,3.615769,1.5331807,1.105211,-1.9246651
1747679238.829845,0.8387637,-0.140699,3.615769,1.5331807,1.105211,-1.9246651
1747679238.8304653,1.1184534,-0.6712795,3.6611638,2.617619,2.2556958,-2.5052338
1747679238.8310282,1.1184534,-0.6712795,3.6611638,2.617619,2.2556958,-2.5052338
1747679238.8316033,1.1184534,-0.6712795,3.6611638,2.617619,2.2556958,-2.5052338
1747679238.8321486,1.1184534,-0.6712795,3.6611638,2.617619,2.2556958,-2.5052338
1747679238.8326817,1.1184534,-0.6712795,3.6611638,2.617619,2.2556958,-2.5052338
1747679238.833202,1.1184534,-0.6712795,3.6611638,2.617619,2.2556958,-2.5052338
1747679238.8337207,1.1184534,-0.6712795,3.6611638,2.617619,2.2556958,-2.5052338
1747679238.8342712,1.1184534,-0.6712795,3.6611638,2.617619,2.2556958,-2.5052338
1747679238.8348339,1.1184534,-0.6712795,3.6611638,2.617619,2.2556958,-2.5052338
1747679238.8353639,1.1184534,-0.6712795,3.6611638,2.617619,2.2556958,-2.5052338
1747679238.8358839,1.1184534,-0.6712795,3.6611638,2.617619,2.2556958,-2.5052338
1747679238.8364024,1.1184534,-0.6712795,3.6611638,2.617619,2.2556958,-2.5052338
1747679238.8369207,1.1184534,-0.6712795,3.6611638,2.617619,2.2556958,-2.5052338
1747679238.8374753,1.1184534,-0.6712795,3.6611638,2.617619,2.2556958,-2.5052338
1747679238.837997,1.1184534,-0.6712795,3.6611638,2.617619,2.2556958,-2.5052338
1747679238.8385158,1.1184534,-0.6712795,3.6611638,2.617619,2.2556958,-2.5052338
1747679238.839036,1.1184534,-0.6712795,3.6611638,2.617619,2.2556958,-2.5052338
1747679238.8395648,1.0276641,-0.8538343,3.666045,2.617619,2.2556958,-2.5052338
1747679238.840093,1.0276641,-0.8538343,3.666045,3.4858088,2.551839,-2.8727498
1747679238.840617,1.0276641,-0.8538343,3.666045,3.4858088,2.551839,-2.8727498
1747679238.841138,1.0276641,-0.8538343,3.666045,3.4858088,2.551839,-2.8727498
1747679238.841656,1.0276641,-0.8538343,3.666045,3.4858088,2.551839,-2.8727498
1747679238.8421743,1.0276641,-0.8538343,3.666045,3.4858088,2.551839,-2.8727498
1747679238.8426924,1.0276641,-0.8538343,3.666045,3.4858088,2.551839,-2.8727498
1747679238.8432105,1.0276641,-0.8538343,3.666045,3.4858088,2.551839,-2.8727498
1747679238.8437338,1.0276641,-0.8538343,3.666045,3.4858088,2.551839,-2.8727498
1747679238.8442621,1.0276641,-0.8538343,3.666045,3.4858088,2.551839,-2.8727498
1747679238.844783,1.0276641,-0.8538343,3.666045,3.4858088,2.551839,-2.8727498
1747679238.8453145,1.0276641,-0.8538343,3.666045,3.4858088,2.551839,-2.8727498
1747679238.8458786,1.0276641,-0.8538343,3.666045,3.4858088,2.551839,-2.8727498
1747679238.8464332,1.0276641,-0.8538343,3.666045,3.4858088,2.551839,-2.8727498
1747679238.8470395,1.0276641,-0.8538343,3.666045,3.4858088,2.551839,-2.8727498
1747679238.8475986,1.0276641,-0.8538343,3.666045,3.4858088,2.551839,-2.8727498
1747679238.8481495,1.0276641,-0.8538343,3.666045,3.4858088,2.551839,-2.8727498
1747679238.8486762,1.0276641,-0.8538343,3.666045,3.4858088,2.551839,-2.8727498
1747679238.8491979,1.0276641,-0.8538343,3.666045,3.4858088,2.551839,-2.8727498
1747679238.8497188,1.0276641,-0.8538343,3.666045,3.4858088,2.551839,-2.8727498
1747679238.8502455,0.88269407,-0.96658874,3.4214995,3.4858088,2.551839,-2.8727498
1747679238.8507726,0.88269407,-0.96658874,3.4214995,3.4858088,2.551839,-2.8727498
1747679238.8513026,0.88269407,-0.96658874,3.4214995,3.4858088,2.551839,-2.8727498
1747679238.8518264,0.88269407,-0.96658874,3.4214995,3.4858088,2.551839,-2.8727498
1747679238.8523474,0.88269407,-0.96658874,3.4214995,3.4858088,2.551839,-2.8727498
1747679238.8528686,0.88269407,-0.96658874,3.4214995,3.4858088,2.551839,-2.8727498
1747679238.8533895,0.88269407,-0.96658874,3.4214995,3.4858088,2.551839,-2.8727498
1747679238.8539166,0.88269407,-0.96658874,3.4214995,3.4858088,2.551839,-2.8727498
1747679238.8544483,0.88269407,-0.96658874,3.4214995,3.4858088,2.551839,-2.8727498
1747679238.8549728,0.88269407,-0.96658874,3.4214995,3.4858088,2.551839,-2.8727498
1747679238.8554935,0.88269407,-0.96658874,3.4214995,3.4858088,2.551839,-2.8727498
1747679238.8560152,0.88269407,-0.96658874,3.4214995,3.4858088,2.551839,-2.8727498
1747679238.8565364,0.88269407,-0.96658874,3.4214995,3.4858088,2.551839,-2.8727498
1747679238.8570654,0.88269407,-0.96658874,3.4214995,3.4858088,2.551839,-2.8727498
1747679238.857587,0.88269407,-0.96658874,3.4214995,3.4858088,2.551839,-2.8727498
1747679238.8581078,0.88269407,-0.96658874,3.4214995,3.4858088,2.551839,-2.8727498
1747679238.8586285,0.88269407,-0.96658874,3.4214995,3.4858088,2.551839,-2.8727498
1747679238.8591492,0.88269407,-0.96658874,3.4214995,3.4858088,2.551839,-2.8727498
1747679238.8596694,0.88269407,-0.96658874,3.4214995,3.4858088,2.551839,-2.8727498
1747679238.8602064,0.88269407,-0.96658874,3.4214995,3.4858088,2.551839,-2.8727498
1747679238.8612652,0.88269407,-0.96658874,3.4214995,3.4858088,2.551839,-2.8727498
1747679238.8618357,0.88367033,-1.0173526,3.1588938,3.4858088,2.551839,-2.8727498
1747679238.8623734,0.88367033,-1.0173526,3.1588938,3.4858088,2.551839,-2.8727498
1747679238.8629088,0.88367033,-1.0173526,3.1588938,5.505549,2.5848622,-3.1944594
1747679238.8639133,0.88367033,-1.0173526,3.1588938,5.505549,2.5848622,-3.1944594
1747679238.8644414,0.88367033,-1.0173526,3.1588938,5.505549,2.5848622,-3.1944594
1747679238.864971,0.88367033,-1.0173526,3.1588938,5.505549,2.5848622,-3.1944594
1747679238.8654928,0.88367033,-1.0173526,3.1588938,5.505549,2.5848622,-3.1944594
1747679238.8660116,0.88367033,-1.0173526,3.1588938,5.505549,2.5848622,-3.1944594
1747679238.8665297,0.88367033,-1.0173526,3.1588938,5.505549,2.5848622,-3.1944594
1747679238.867048,0.88367033,-1.0173526,3.1588938,5.505549,2.5848622,-3.1944594
1747679238.867566,0.88367033,-1.0173526,3.1588938,5.505549,2.5848622,-3.1944594
1747679238.868084,0.88367033,-1.0173526,3.1588938,5.505549,2.5848622,-3.1944594
1747679238.868602,0.88367033,-1.0173526,3.1588938,5.505549,2.5848622,-3.1944594
1747679238.8691204,0.88367033,-1.0173526,3.1588938,5.505549,2.5848622,-3.1944594
1747679238.8696382,0.88367033,-1.0173526,3.1588938,5.505549,2.5848622,-3.1944594
1747679238.8701746,0.9212551,-1.0495682,2.6590648,6.225667,2.3792663,-3.3233562
1747679238.8707054,0.9212551,-1.0495682,2.6590648,6.225667,2.3792663,-3.3233562
1747679238.871234,0.9212551,-1.0495682,2.6590648,6.225667,2.3792663,-3.3233562
1747679238.8717666,0.9212551,-1.0495682,2.6590648,6.225667,2.3792663,-3.3233562
1747679238.8722892,0.9212551,-1.0495682,2.6590648,6.225667,2.3792663,-3.3233562
1747679238.872808,0.9212551,-1.0495682,2.6590648,6.225667,2.3792663,-3.3233562
1747679238.8733258,0.9212551,-1.0495682,2.6590648,6.225667,2.3792663,-3.3233562
1747679238.873849,0.9212551,-1.0495682,2.6590648,6.225667,2.3792663,-3.3233562
1747679238.8743777,0.9212551,-1.0495682,2.6590648,6.225667,2.3792663,-3.3233562
1747679238.8748987,0.9212551,-1.0495682,2.6590648,6.225667,2.3792663,-3.3233562
1747679238.8754168,0.9212551,-1.0495682,2.6590648,6.225667,2.3792663,-3.3233562
1747679238.8764358,0.9212551,-1.0495682,2.6590648,6.225667,2.3792663,-3.3233562
1747679238.876981,0.9212551,-1.0495682,2.6590648,6.225667,2.3792663,-3.3233562
1747679238.8775065,0.9212551,-1.0495682,2.6590648,6.225667,2.3792663,-3.3233562
1747679238.8780253,0.9212551,-1.0495682,2.6590648,6.225667,2.3792663,-3.3233562
1747679238.8785434,0.9212551,-1.0495682,2.6590648,6.225667,2.3792663,-3.3233562
1747679238.8790615,0.9212551,-1.0495682,2.6590648,6.225667,2.3792663,-3.3233562
1747679238.8795793,0.9212551,-1.0495682,2.6590648,6.225667,2.3792663,-3.3233562
1747679238.8801277,0.9212551,-1.0495682,2.6590648,6.225667,2.3792663,-3.3233562
1747679238.8806732,0.9212551,-1.0495682,2.6590648,6.225667,2.3792663,-3.3233562
1747679238.881218,0.9212551,-1.0495682,2.6590648,6.225667,2.3792663,-3.3233562
1747679238.8817577,0.9212551,-1.0495682,2.6590648,6.225667,2.3792663,-3.3233562
1747679238.8823035,0.9212551,-0.99441123,2.1348298,6.684796,1.9606178,-3.5236259
1747679238.882848,0.9212551,-0.99441123,2.1348298,6.684796,1.9606178,-3.5236259
1747679238.88339,0.9212551,-0.99441123,2.1348298,6.684796,1.9606178,-3.5236259
1747679238.883959,0.9212551,-0.99441123,2.1348298,6.684796,1.9606178,-3.5236259
1747679238.884502,0.9212551,-0.99441123,2.1348298,6.684796,1.9606178,-3.5236259
1747679238.88503,0.9212551,-0.99441123,2.1348298,6.684796,1.9606178,-3.5236259
1747679238.885553,0.9212551,-0.99441123,2.1348298,6.684796,1.9606178,-3.5236259
1747679238.8860748,0.9212551,-0.99441123,2.1348298,6.684796,1.9606178,-3.5236259
1747679238.8865967,0.9212551,-0.99441123,2.1348298,6.684796,1.9606178,-3.5236259
1747679238.8871186,0.9212551,-0.99441123,2.1348298,6.684796,1.9606178,-3.5236259
1747679238.88764,0.9212551,-0.99441123,2.1348298,6.684796,1.9606178,-3.5236259
1747679238.888162,0.9212551,-0.99441123,2.1348298,6.684796,1.9606178,-3.5236259
1747679238.8886836,0.9212551,-0.99441123,2.1348298,6.684796,1.9606178,-3.5236259
1747679238.889205,0.9212551,-0.99441123,2.1348298,6.684796,1.9606178,-3.5236259
1747679238.8897266,0.9212551,-0.99441123,2.1348298,6.684796,1.9606178,-3.5236259
1747679238.8902469,0.9212551,-0.99441123,2.1348298,6.684796,1.9606178,-3.5236259
1747679238.8907983,0.9212551,-0.99441123,2.1348298,6.684796,1.9606178,-3.5236259
1747679238.8913865,0.9212551,-0.99441123,2.1348298,6.684796,1.9606178,-3.5236259
1747679238.8935666,0.86463386,-0.9329089,1.7623985,6.684796,1.9606178,-3.5236259
1747679238.8941207,0.86463386,-0.9329089,1.7623985,6.684796,1.9606178,-3.5236259
1747679238.8946621,0.86463386,-0.9329089,1.7623985,6.766821,1.6389081,-3.6599796
1747679238.895186,0.86463386,-0.9329089,1.7623985,6.766821,1.6389081,-3.6599796
1747679238.8957055,0.86463386,-0.9329089,1.7623985,6.766821,1.6389081,-3.6599796
1747679238.8962238,0.86463386,-0.9329089,1.7623985,6.766821,1.6389081,-3.6599796
1747679238.8967419,0.86463386,-0.9329089,1.7623985,6.766821,1.6389081,-3.6599796
1747679238.89726,0.86463386,-0.9329089,1.7623985,6.766821,1.6389081,-3.6599796
1747679238.8977783,0.86463386,-0.9329089,1.7623985,6.766821,1.6389081,-3.6599796
1747679238.898296,0.86463386,-0.9329089,1.7623985,6.766821,1.6389081,-3.6599796
1747679238.898814,0.86463386,-0.9329089,1.7623985,6.766821,1.6389081,-3.6599796
1747679238.8993318,0.86463386,-0.9329089,1.7623985,6.766821,1.6389081,-3.6599796
1747679238.89985,0.86463386,-0.9329089,1.7623985,6.766821,1.6389081,-3.6599796
1747679238.9003682,0.86463386,-0.9329089,1.7623985,6.766821,1.6389081,-3.6599796
1747679238.9008865,0.86463386,-0.9329089,1.7623985,6.766821,1.6389081,-3.6599796
1747679238.9014044,0.86463386,-0.9329089,1.7623985,6.766821,1.6389081,-3.6599796
1747679238.9019222,0.86463386,-0.9329089,1.7623985,6.766821,1.6389081,-3.6599796
1747679238.9024403,0.86463386,-0.9329089,1.7623985,6.766821,1.6389081,-3.6599796
1747679238.9029582,0.86463386,-0.9329089,1.7623985,6.766821,1.6389081,-3.6599796
1747679238.9034758,0.86463386,-0.9329089,1.7623985,6.766821,1.6389081,-3.6599796
1747679238.9039936,0.86463386,-0.9329089,1.7623985,6.766821,1.6389081,-3.6599796
1747679238.9045253,0.7167351,-0.8406552,1.5896058,6.7199492,1.380049,-3.6205647
1747679238.9050584,0.7167351,-0.8406552,1.5896058,6.7199492,1.380049,-3.6205647
1747679238.9055793,0.7167351,-0.8406552,1.5896058,6.7199492,1.380049,-3.6205647
1747679238.906098,0.7167351,-0.8406552,1.5896058,6.7199492,1.380049,-3.6205647
1747679238.9066272,0.7167351,-0.8406552,1.5896058,6.7199492,1.380049,-3.6205647
1747679238.9071727,0.7167351,-0.8406552,1.5896058,6.7199492,1.380049,-3.6205647
1747679238.907935,0.7167351,-0.8406552,1.5896058,6.7199492,1.380049,-3.6205647
1747679238.9084928,0.7167351,-0.8406552,1.5896058,6.7199492,1.380049,-3.6205647
1747679238.9090216,0.7167351,-0.8406552,1.5896058,6.82328,1.1105373,-3.4533184
1747679238.9095495,0.7167351,-0.8406552,1.5896058,6.82328,1.1105373,-3.4533184
1747679238.9100735,0.6161835,-0.82747614,1.6208452,6.82328,1.1105373,-3.4533184
1747679238.9105952,0.6161835,-0.82747614,1.6208452,6.82328,1.1105373,-3.4533184
1747679238.9111145,0.6161835,-0.82747614,1.6208452,6.82328,1.1105373,-3.4533184
1747679238.9116325,0.6161835,-0.82747614,1.6208452,6.82328,1.1105373,-3.4533184
1747679238.9121506,0.6161835,-0.82747614,1.6208452,6.82328,1.1105373,-3.4533184
1747679238.9126685,0.6161835,-0.82747614,1.6208452,6.82328,1.1105373,-3.4533184
1747679238.913186,0.6161835,-0.82747614,1.6208452,6.82328,1.1105373,-3.4533184
1747679238.9137087,0.6161835,-0.82747614,1.6208452,6.82328,1.1105373,-3.4533184
1747679238.914237,0.6161835,-0.82747614,1.6208452,6.82328,1.1105373,-3.4533184
1747679238.9147584,0.6161835,-0.82747614,1.6208452,6.82328,1.1105373,-3.4533184
1747679238.915277,0.6161835,-0.82747614,1.6208452,6.82328,1.1105373,-3.4533184
1747679238.915795,0.6161835,-0.82747614,1.6208452,6.82328,1.1105373,-3.4533184
1747679238.9163136,0.6161835,-0.82747614,1.6208452,6.82328,1.1105373,-3.4533184
1747679238.9168317,0.6161835,-0.82747614,1.6208452,6.82328,1.1105373,-3.4533184
1747679238.9173496,0.6161835,-0.82747614,1.6208452,6.82328,1.1105373,-3.4533184
1747679238.9178677,0.6161835,-0.82747614,1.6208452,6.82328,1.1105373,-3.4533184
1747679238.918386,0.6161835,-0.82747614,1.6208452,6.82328,1.1105373,-3.4533184
1747679238.9189107,0.78799987,-0.8182019,1.4436597,6.907436,0.5672529,-3.4810152
1747679238.9194324,0.78799987,-0.8182019,1.4436597,6.907436,0.5672529,-3.4810152
1747679238.9199512,0.78799987,-0.8182019,1.4436597,6.907436,0.5672529,-3.4810152
1747679238.9204695,0.78799987,-0.8182019,1.4436597,6.907436,0.5672529,-3.4810152
1747679238.9209878,0.78799987,-0.8182019,1.4436597,6.907436,0.5672529,-3.4810152
1747679238.9215062,0.78799987,-0.8182019,1.4436597,6.907436,0.5672529,-3.4810152
1747679238.9221296,0.78799987,-0.8182019,1.4436597,6.907436,0.5672529,-3.4810152
1747679238.922685,0.78799987,-0.8182019,1.4436597,6.907436,0.5672529,-3.4810152
1747679238.9238555,0.78799987,-0.8182019,1.4436597,6.907436,0.5672529,-3.4810152
1747679238.92441,0.78799987,-0.8182019,1.4436597,6.907436,0.5672529,-3.4810152
1747679238.9249432,0.78799987,-0.8182019,1.4436597,6.907436,0.5672529,-3.4810152
1747679238.925468,0.78799987,-0.8182019,1.4436597,6.907436,0.5672529,-3.4810152
1747679238.9260745,0.78799987,-0.8182019,1.4436597,6.907436,0.5672529,-3.4810152
1747679238.9266205,0.78799987,-0.8182019,1.4436597,6.907436,0.5672529,-3.4810152
1747679238.927145,0.78799987,-0.8182019,1.4436597,6.907436,0.5672529,-3.4810152
1747679238.9276638,0.78799987,-0.8182019,1.4436597,6.907436,0.5672529,-3.4810152
1747679238.9281821,0.78799987,-0.8182019,1.4436597,6.907436,0.5672529,-3.4810152
1747679238.9287,0.78799987,-0.8182019,1.4436597,6.907436,0.5672529,-3.4810152
1747679238.9292264,0.78799987,-0.8182019,1.4436597,6.907436,0.5672529,-3.4810152
1747679238.9297564,0.78799987,-0.8182019,1.4436597,6.907436,0.5672529,-3.4810152
1747679238.930283,0.54394263,-0.8933715,0.96140254,6.907436,0.5672529,-3.4810152
1747679238.930805,0.54394263,-0.8933715,0.96140254,6.907436,0.5672529,-3.4810152
1747679238.9313233,0.54394263,-0.8933715,0.96140254,6.907436,0.5672529,-3.4810152
1747679238.9318457,0.54394263,-0.8933715,0.96140254,6.597444,1.533447,-3.4618406
1747679238.9323668,0.54394263,-0.8933715,0.96140254,6.597444,1.533447,-3.4618406
1747679238.9328854,0.54394263,-0.8933715,0.96140254,6.597444,1.533447,-3.4618406
1747679238.933404,0.54394263,-0.8933715,0.96140254,6.597444,1.533447,-3.4618406
1747679238.9339268,0.54394263,-0.8933715,0.96140254,6.597444,1.533447,-3.4618406
1747679238.9344556,0.54394263,-0.8933715,0.96140254,6.597444,1.533447,-3.4618406
1747679238.934977,0.54394263,-0.8933715,0.96140254,6.597444,1.533447,-3.4618406
1747679238.9354956,0.54394263,-0.8933715,0.96140254,6.597444,1.533447,-3.4618406
1747679238.936014,0.54394263,-0.8933715,0.96140254,6.597444,1.533447,-3.4618406
1747679238.9365323,0.54394263,-0.8933715,0.96140254,6.597444,1.533447,-3.4618406
1747679238.9370503,0.54394263,-0.8933715,0.96140254,6.597444,1.533447,-3.4618406
1747679238.9375834,0.54394263,-0.8933715,0.96140254,6.597444,1.533447,-3.4618406
1747679238.938133,0.54394263,-0.8933715,0.96140254,6.597444,1.533447,-3.4618406
1747679238.9390016,0.45510575,-0.94559985,0.6763437,6.597444,1.533447,-3.4618406
1747679238.939532,0.45510575,-0.94559985,0.6763437,6.597444,1.533447,-3.4618406
1747679238.9400704,0.45510575,-0.94559985,0.6763437,6.21821,2.5912538,-2.986733
1747679238.9405954,0.45510575,-0.94559985,0.6763437,6.21821,2.5912538,-2.986733
1747679238.941116,0.45510575,-0.94559985,0.6763437,6.21821,2.5912538,-2.986733
1747679238.9416347,0.45510575,-0.94559985,0.6763437,6.21821,2.5912538,-2.986733
1747679238.942153,0.45510575,-0.94559985,0.6763437,6.21821,2.5912538,-2.986733
1747679238.942671,0.45510575,-0.94559985,0.6763437,6.21821,2.5912538,-2.986733
1747679238.9431891,0.45510575,-0.94559985,0.6763437,6.21821,2.5912538,-2.986733
1747679238.9437075,0.45510575,-0.94559985,0.6763437,6.21821,2.5912538,-2.986733
1747679238.9442303,0.45510575,-0.94559985,0.6763437,6.21821,2.5912538,-2.986733
1747679238.9447582,0.45510575,-0.94559985,0.6763437,6.21821,2.5912538,-2.986733
1747679238.94528,0.45510575,-0.94559985,0.6763437,6.21821,2.5912538,-2.986733
1747679238.9457982,0.45510575,-0.94559985,0.6763437,6.21821,2.5912538,-2.986733
1747679238.9463162,0.45510575,-0.94559985,0.6763437,6.21821,2.5912538,-2.986733
1747679238.9468343,0.45510575,-0.94559985,0.6763437,6.21821,2.5912538,-2.986733
1747679238.9473526,0.45510575,-0.94559985,0.6763437,6.21821,2.5912538,-2.986733
1747679238.9478707,0.45510575,-0.94559985,0.6763437,6.21821,2.5912538,-2.986733
1747679238.9483912,0.45510575,-0.94559985,0.6763437,6.21821,2.5912538,-2.986733
1747679238.9489121,0.45510575,-0.94559985,0.6763437,6.21821,2.5912538,-2.986733
1747679238.9494376,0.45510575,-0.94559985,0.6763437,6.21821,2.5912538,-2.986733
1747679238.9499667,0.5390615,-0.9138723,0.45181096,5.6941004,3.3955278,-2.639457
1747679238.9504905,0.5390615,-0.9138723,0.45181096,5.6941004,3.3955278,-2.639457
1747679238.9510112,0.5390615,-0.9138723,0.45181096,5.6941004,3.3955278,-2.639457
1747679238.951532,0.5390615,-0.9138723,0.45181096,5.6941004,3.3955278,-2.639457
1747679238.952052,0.5390615,-0.9138723,0.45181096,5.6941004,3.3955278,-2.639457
1747679238.9526923,0.5390615,-0.9138723,0.45181096,5.6941004,3.3955278,-2.639457
1747679238.9532475,0.5390615,-0.9138723,0.45181096,5.6941004,3.3955278,-2.639457
1747679238.954446,0.5390615,-0.9138723,0.45181096,5.6941004,3.3955278,-2.639457
1747679238.9549966,0.5390615,-0.9138723,0.45181096,5.6941004,3.3955278,-2.639457
1747679238.9555323,0.5390615,-0.9138723,0.45181096,5.6941004,3.3955278,-2.639457
1747679238.9560544,0.5390615,-0.9138723,0.45181096,5.6941004,3.3955278,-2.639457
1747679238.9565754,0.5390615,-0.9138723,0.45181096,5.6941004,3.3955278,-2.639457
1747679238.9570963,0.5390615,-0.9138723,0.45181096,5.6941004,3.3955278,-2.639457
1747679238.9576175,0.5390615,-0.9138723,0.45181096,5.6941004,3.3955278,-2.639457
1747679238.9581387,0.5390615,-0.9138723,0.45181096,5.6941004,3.3955278,-2.639457
1747679238.9586892,0.5390615,-0.9138723,0.45181096,5.1646643,4.094341,-2.3699453
1747679238.9592273,0.5053815,-0.9241227,0.3244131,5.1646643,4.094341,-2.3699453
1747679238.9597514,0.5053815,-0.9241227,0.3244131,5.1646643,4.094341,-2.3699453
1747679238.9602726,0.5053815,-0.9241227,0.3244131,5.1646643,4.094341,-2.3699453
1747679238.9607942,0.5053815,-0.9241227,0.3244131,5.1646643,4.094341,-2.3699453
1747679238.9613223,0.5053815,-0.9241227,0.3244131,5.1646643,4.094341,-2.3699453
1747679238.9618435,0.5053815,-0.9241227,0.3244131,5.1646643,4.094341,-2.3699453
1747679238.9623644,0.5053815,-0.9241227,0.3244131,5.1646643,4.094341,-2.3699453
1747679238.9628854,0.5053815,-0.9241227,0.3244131,5.1646643,4.094341,-2.3699453
1747679238.963409,0.5053815,-0.9241227,0.3244131,5.1646643,4.094341,-2.3699453
1747679238.9639256,0.5053815,-0.9241227,0.3244131,5.1646643,4.094341,-2.3699453
1747679238.964455,0.5053815,-0.9241227,0.3244131,5.1646643,4.094341,-2.3699453
1747679238.9649765,0.5053815,-0.9241227,0.3244131,5.1646643,4.094341,-2.3699453
1747679238.965495,0.5053815,-0.9241227,0.3244131,5.1646643,4.094341,-2.3699453
1747679238.966013,0.5053815,-0.9241227,0.3244131,5.1646643,4.094341,-2.3699453
1747679238.966531,0.5053815,-0.9241227,0.3244131,5.1646643,4.094341,-2.3699453
1747679238.9670491,0.5053815,-0.9241227,0.3244131,5.1646643,4.094341,-2.3699453
1747679238.9675672,0.5053815,-0.9241227,0.3244131,5.1646643,4.094341,-2.3699453
1747679238.9681308,0.5053815,-0.9241227,0.3244131,5.1646643,4.094341,-2.3699453
1747679238.9686744,0.5053815,-0.9241227,0.3244131,5.1646643,4.094341,-2.3699453
1747679238.9692073,0.5053815,-0.9241227,0.3244131,5.1646643,4.094341,-2.3699453
1747679238.9697409,0.46486804,-0.9431593,0.28682828,4.8078012,4.536425,-2.126
1747679238.9702966,0.46486804,-0.9431593,0.28682828,4.8078012,4.536425,-2.126
1747679238.9708416,0.46486804,-0.9431593,0.28682828,4.8078012,4.536425,-2.126
1747679238.9713745,0.46486804,-0.9431593,0.28682828,4.8078012,4.536425,-2.126
1747679238.971894,0.46486804,-0.9431593,0.28682828,4.8078012,4.536425,-2.126
1747679238.9724123,0.46486804,-0.9431593,0.28682828,4.8078012,4.536425,-2.126
1747679238.9729307,0.46486804,-0.9431593,0.28682828,4.8078012,4.536425,-2.126
1747679238.973449,0.46486804,-0.9431593,0.28682828,4.8078012,4.536425,-2.126
1747679238.9739723,0.46486804,-0.9431593,0.28682828,4.8078012,4.536425,-2.126
1747679238.9745126,0.46486804,-0.9431593,0.28682828,4.8078012,4.536425,-2.126
1747679238.975035,0.46486804,-0.9431593,0.28682828,4.8078012,4.536425,-2.126
1747679238.9755538,0.46486804,-0.9431593,0.28682828,4.8078012,4.536425,-2.126
1747679238.976072,0.46486804,-0.9431593,0.28682828,4.8078012,4.536425,-2.126
1747679238.9765902,0.46486804,-0.9431593,0.28682828,4.8078012,4.536425,-2.126
1747679238.9771085,0.46486804,-0.9431593,0.28682828,4.8078012,4.536425,-2.126
1747679238.9776268,0.46486804,-0.9431593,0.28682828,4.8078012,4.536425,-2.126
1747679238.9781451,0.46486804,-0.9431593,0.28682828,4.8078012,4.536425,-2.126
1747679238.9786632,0.46486804,-0.9431593,0.28682828,4.8078012,4.536425,-2.126
1747679238.979181,0.46486804,-0.9431593,0.28682828,4.8078012,4.536425,-2.126
1747679238.9796991,0.46486804,-0.9431593,0.28682828,4.8078012,4.536425,-2.126
1747679238.980217,0.46486804,-0.9431593,0.28682828,4.8078012,4.536425,-2.126
1747679238.9807544,0.46486804,-0.9431593,0.28682828,4.5265718,4.847482,-1.843705
1747679238.9812815,0.46486804,-0.9431593,0.28682828,4.5265718,4.847482,-1.843705
1747679238.981806,0.46486804,-0.9431593,0.28682828,4.5265718,4.847482,-1.843705
1747679238.9823318,0.49464303,-0.96414816,0.2541246,4.5265718,4.847482,-1.843705
1747679238.9828613,0.49464303,-0.96414816,0.2541246,4.5265718,4.847482,-1.843705
1747679238.9835155,0.49464303,-0.96414816,0.2541246,4.5265718,4.847482,-1.843705
1747679238.984053,0.49464303,-0.96414816,0.2541246,4.5265718,4.847482,-1.843705
1747679238.9845939,0.49464303,-0.96414816,0.2541246,4.5265718,4.847482,-1.843705
1747679238.9851153,0.49464303,-0.96414816,0.2541246,4.5265718,4.847482,-1.843705
1747679238.9856496,0.49464303,-0.96414816,0.2541246,4.5265718,4.847482,-1.843705
1747679238.9862068,0.49464303,-0.96414816,0.2541246,4.5265718,4.847482,-1.843705
1747679238.986753,0.49464303,-0.96414816,0.2541246,4.5265718,4.847482,-1.843705
1747679238.9872859,0.49464303,-0.96414816,0.2541246,4.5265718,4.847482,-1.843705
1747679238.9878051,0.49464303,-0.96414816,0.2541246,4.5265718,4.847482,-1.843705
1747679238.9883237,0.49464303,-0.96414816,0.2541246,4.5265718,4.847482,-1.843705
1747679238.988842,0.49464303,-0.96414816,0.2541246,4.5265718,4.847482,-1.843705
1747679238.9893603,0.49464303,-0.96414816,0.2541246,4.5265718,4.847482,-1.843705
1747679238.989879,0.49464303,-0.96414816,0.2541246,4.5265718,4.847482,-1.843705
1747679238.990397,0.49464303,-0.96414816,0.2541246,4.5265718,4.847482,-1.843705
1747679238.990915,0.49464303,-0.96414816,0.2541246,4.5265718,4.847482,-1.843705
1747679238.991434,0.49464303,-0.96414816,0.2541246,4.5265718,4.847482,-1.843705
1747679238.9919522,0.49464303,-0.96414816,0.2541246,4.5265718,4.847482,-1.843705
1747679238.992481,0.49464303,-0.96414816,0.2541246,4.5265718,4.847482,-1.843705
1747679238.9930103,0.49025002,-0.9612195,0.19750333,4.5265718,4.847482,-1.843705
1747679238.9935582,0.49025002,-0.9612195,0.19750333,4.5265718,4.847482,-1.843705
1747679238.9940815,0.49025002,-0.9612195,0.19750333,4.326302,4.7878275,-1.6338481
1747679238.9946072,0.49025002,-0.9612195,0.19750333,4.326302,4.7878275,-1.6338481
1747679238.995137,0.49025002,-0.9612195,0.19750333,4.326302,4.7878275,-1.6338481
1747679238.9956586,0.49025002,-0.9612195,0.19750333,4.326302,4.7878275,-1.6338481
1747679238.9961774,0.49025002,-0.9612195,0.19750333,4.326302,4.7878275,-1.6338481
1747679238.9966958,0.49025002,-0.9612195,0.19750333,4.326302,4.7878275,-1.6338481
1747679238.9972143,0.49025002,-0.9612195,0.19750333,4.326302,4.7878275,-1.6338481
1747679238.9977322,0.49025002,-0.9612195,0.19750333,4.326302,4.7878275,-1.6338481
1747679238.9982607,0.49025002,-0.9612195,0.19750333,4.326302,4.7878275,-1.6338481
1747679238.9988058,0.49025002,-0.9612195,0.19750333,4.326302,4.7878275,-1.6338481
1747679238.9993675,0.49025002,-0.9612195,0.19750333,4.326302,4.7878275,-1.6338481
1747679238.9999123,0.49025002,-0.9612195,0.19750333,4.326302,4.7878275,-1.6338481
1747679239.000455,0.49025002,-0.9612195,0.19750333,4.326302,4.7878275,-1.6338481
1747679239.0010133,0.49025002,-0.9612195,0.19750333,4.326302,4.7878275,-1.6338481
1747679239.0015612,0.49025002,-0.9612195,0.19750333,4.326302,4.7878275,-1.6338481
1747679239.002094,0.49025002,-0.9612195,0.19750333,4.326302,4.7878275,-1.6338481
1747679239.002614,0.49025002,-0.9612195,0.19750333,4.326302,4.7878275,-1.6338481
1747679239.0031323,0.49025002,-0.9612195,0.19750333,4.326302,4.7878275,-1.6338481
1747679239.0037434,0.43850988,-0.95536214,0.132096,4.326302,4.7878275,-1.6338481
1747679239.0043051,0.43850988,-0.95536214,0.132096,4.1920786,4.549208,-1.467667
1747679239.0048294,0.43850988,-0.95536214,0.132096,4.1920786,4.549208,-1.467667
1747679239.0053484,0.43850988,-0.95536214,0.132096,4.1920786,4.549208,-1.467667
1747679239.005867,0.43850988,-0.95536214,0.132096,4.1920786,4.549208,-1.467667
1747679239.006385,0.43850988,-0.95536214,0.132096,4.1920786,4.549208,-1.467667
1747679239.006903,0.43850988,-0.95536214,0.132096,4.1920786,4.549208,-1.467667
1747679239.0074248,0.43850988,-0.95536214,0.132096,4.1920786,4.549208,-1.467667
1747679239.0079453,0.43850988,-0.95536214,0.132096,4.1920786,4.549208,-1.467667
1747679239.008469,0.4097111,-0.971958,0.07254602,4.1920786,4.549208,-1.467667
1747679239.0089905,0.4097111,-0.971958,0.07254602,4.1920786,4.549208,-1.467667
1747679239.0095086,0.4097111,-0.971958,0.07254602,4.1920786,4.549208,-1.467667
1747679239.0100327,0.4097111,-0.971958,0.07254602,4.075965,4.168909,-1.2727238
1747679239.010554,0.4097111,-0.971958,0.07254602,4.075965,4.168909,-1.2727238
1747679239.0110762,0.4097111,-0.971958,0.07254602,4.075965,4.168909,-1.2727238
1747679239.011597,0.4097111,-0.971958,0.07254602,4.075965,4.168909,-1.2727238
1747679239.0121155,0.4097111,-0.971958,0.07254602,4.075965,4.168909,-1.2727238
1747679239.0126338,0.4097111,-0.971958,0.07254602,4.075965,4.168909,-1.2727238
1747679239.013246,0.4097111,-0.971958,0.07254602,4.075965,4.168909,-1.2727238
1747679239.0138314,0.4097111,-0.971958,0.07254602,4.075965,4.168909,-1.2727238
1747679239.014388,0.4097111,-0.971958,0.07254602,4.075965,4.168909,-1.2727238
1747679239.0149767,0.4097111,-0.971958,0.07254602,4.075965,4.168909,-1.2727238
1747679239.0155249,0.4097111,-0.971958,0.07254602,4.075965,4.168909,-1.2727238
1747679239.0160654,0.4097111,-0.971958,0.07254602,4.075965,4.168909,-1.2727238
1747679239.0166197,0.4097111,-0.971958,0.07254602,4.075965,4.168909,-1.2727238
1747679239.0171645,0.4097111,-0.971958,0.07254602,4.075965,4.168909,-1.2727238
1747679239.0176973,0.4097111,-0.971958,0.07254602,4.075965,4.168909,-1.2727238
1747679239.0182166,0.4097111,-0.971958,0.07254602,4.075965,4.168909,-1.2727238
1747679239.018746,0.37700745,-0.9866014,0.030080058,4.031224,3.6565175,-1.1097383
1747679239.0192716,0.37700745,-0.9866014,0.030080058,4.031224,3.6565175,-1.1097383
1747679239.0197911,0.37700745,-0.9866014,0.030080058,4.031224,3.6565175,-1.1097383
1747679239.0203097,0.37700745,-0.9866014,0.030080058,4.031224,3.6565175,-1.1097383
1747679239.0208282,0.37700745,-0.9866014,0.030080058,4.031224,3.6565175,-1.1097383
1747679239.0213506,0.37700745,-0.9866014,0.030080058,4.031224,3.6565175,-1.1097383
1747679239.021872,0.37700745,-0.9866014,0.030080058,4.031224,3.6565175,-1.1097383
1747679239.0223908,0.37700745,-0.9866014,0.030080058,4.031224,3.6565175,-1.1097383
1747679239.022909,0.37700745,-0.9866014,0.030080058,4.031224,3.6565175,-1.1097383
1747679239.0234268,0.37700745,-0.9866014,0.030080058,4.031224,3.6565175,-1.1097383
1747679239.02395,0.37700745,-0.9866014,0.030080058,4.031224,3.6565175,-1.1097383
1747679239.0244782,0.37700745,-0.9866014,0.030080058,4.031224,3.6565175,-1.1097383
1747679239.0249999,0.37700745,-0.9866014,0.030080058,4.031224,3.6565175,-1.1097383
1747679239.0255187,0.37700745,-0.9866014,0.030080058,4.031224,3.6565175,-1.1097383
1747679239.0260367,0.37700745,-0.9866014,0.030080058,4.031224,3.6565175,-1.1097383
1747679239.0265548,0.37700745,-0.9866014,0.030080058,4.031224,3.6565175,-1.1097383
1747679239.0270734,0.37700745,-0.9866014,0.030080058,4.031224,3.6565175,-1.1097383
1747679239.0275912,0.37700745,-0.9866014,0.030080058,4.031224,3.6565175,-1.1097383
1747679239.0281115,0.37700745,-0.9866014,0.030080058,4.031224,3.6565175,-1.1097383
1747679239.0287457,0.37700745,-0.9866014,0.030080058,4.080226,3.092993,-0.982972
1747679239.029291,0.37700745,-0.9866014,0.030080058,4.080226,3.092993,-0.982972
1747679239.029817,0.37700745,-0.9866014,0.030080058,4.080226,3.092993,-0.982972
1747679239.030336,0.37700745,-0.9866014,0.030080058,4.080226,3.092993,-0.982972
1747679239.0308547,0.37700745,-0.9866014,0.030080058,4.080226,3.092993,-0.982972
1747679239.031373,0.37700745,-0.9866014,0.030080058,4.080226,3.092993,-0.982972
1747679239.0319068,0.37700745,-0.9866014,0.030080058,4.080226,3.092993,-0.982972
1747679239.0324643,0.27987266,-0.9783035,-0.03679163,4.080226,3.092993,-0.982972
1747679239.033014,0.27987266,-0.9783035,-0.03679163,4.080226,3.092993,-0.982972
1747679239.0335662,0.27987266,-0.9783035,-0.03679163,4.080226,3.092993,-0.982972
1747679239.03412,0.27987266,-0.9783035,-0.03679163,4.080226,3.092993,-0.982972
1747679239.03466,0.27987266,-0.9783035,-0.03679163,4.080226,3.092993,-0.982972
1747679239.0351942,0.27987266,-0.9783035,-0.03679163,4.080226,3.092993,-0.982972
1747679239.03573,0.27987266,-0.9783035,-0.03679163,4.080226,3.092993,-0.982972
1747679239.0365481,0.27987266,-0.9783035,-0.03679163,4.080226,3.092993,-0.982972
1747679239.037253,0.27987266,-0.9783035,-0.03679163,4.080226,3.092993,-0.982972
1747679239.037814,0.27987266,-0.9783035,-0.03679163,4.080226,3.092993,-0.982972
1747679239.0384095,0.27987266,-0.9783035,-0.03679163,4.080226,3.092993,-0.982972
1747679239.038944,0.27987266,-0.9783035,-0.03679163,4.080226,3.092993,-0.982972
1747679239.0394707,0.27987266,-0.9783035,-0.03679163,4.1356196,2.7063022,-0.8135951
1747679239.0399954,0.153451,-0.93632567,-0.17541614,4.1356196,2.7063022,-0.8135951
1747679239.0405161,0.153451,-0.93632567,-0.17541614,4.1356196,2.7063022,-0.8135951
1747679239.0410342,0.153451,-0.93632567,-0.17541614,4.1356196,2.7063022,-0.8135951
1747679239.0415525,0.153451,-0.93632567,-0.17541614,4.1356196,2.7063022,-0.8135951
1747679239.0420706,0.153451,-0.93632567,-0.17541614,4.1356196,2.7063022,-0.8135951
1747679239.042589,0.153451,-0.93632567,-0.17541614,4.1356196,2.7063022,-0.8135951
1747679239.043107,0.153451,-0.93632567,-0.17541614,4.1356196,2.7063022,-0.8135951
1747679239.0437703,0.153451,-0.93632567,-0.17541614,4.1356196,2.7063022,-0.8135951
1747679239.0443323,0.153451,-0.93632567,-0.17541614,4.1356196,2.7063022,-0.8135951
1747679239.0448818,0.153451,-0.93632567,-0.17541614,4.1356196,2.7063022,-0.8135951
1747679239.045423,0.153451,-0.93632567,-0.17541614,4.1356196,2.7063022,-0.8135951
1747679239.046101,0.153451,-0.93632567,-0.17541614,4.1356196,2.7063022,-0.8135951
1747679239.046651,0.153451,-0.93632567,-0.17541614,4.1356196,2.7063022,-0.8135951
1747679239.0471928,0.153451,-0.93632567,-0.17541614,4.1356196,2.7063022,-0.8135951
1747679239.0483978,0.153451,-0.93632567,-0.17541614,4.1356196,2.7063022,-0.8135951
1747679239.0491154,0.153451,-0.93632567,-0.17541614,4.1356196,2.7063022,-0.8135951
1747679239.0496683,0.153451,-0.93632567,-0.17541614,4.1356196,2.7063022,-0.8135951
1747679239.0504768,0.153451,-0.93632567,-0.17541614,4.1356196,2.7063022,-0.8135951
1747679239.0510273,0.005552302,-0.8313811,-0.37212628,4.1356196,2.7063022,-0.8135951
1747679239.0515664,0.005552302,-0.8313811,-0.37212628,4.1356196,2.7063022,-0.8135951
1747679239.0521038,0.005552302,-0.8313811,-0.37212628,4.1356196,2.7063022,-0.8135951
1747679239.0526428,0.005552302,-0.8313811,-0.37212628,4.1356196,2.7063022,-0.8135951
1747679239.0531893,0.005552302,-0.8313811,-0.37212628,4.1356196,2.7063022,-0.8135951
1747679239.0537271,0.005552302,-0.8313811,-0.37212628,4.1356196,2.7063022,-0.8135951
1747679239.0542963,0.005552302,-0.8313811,-0.37212628,4.1356196,2.7063022,-0.8135951
1747679239.054839,0.005552302,-0.8313811,-0.37212628,4.1356196,2.7063022,-0.8135951
1747679239.0554237,0.005552302,-0.8313811,-0.37212628,4.1356196,2.7063022,-0.8135951
1747679239.0559604,0.005552302,-0.8313811,-0.37212628,4.1356196,2.7063022,-0.8135951
1747679239.0565205,0.005552302,-0.8313811,-0.37212628,4.1356196,2.7063022,-0.8135951
1747679239.0570579,0.005552302,-0.8313811,-0.37212628,4.1356196,2.7063022,-0.8135951
1747679239.0576158,0.005552302,-0.8313811,-0.37212628,4.1356196,2.7063022,-0.8135951
1747679239.0581567,0.005552302,-0.8313811,-0.37212628,4.1356196,2.7063022,-0.8135951
1747679239.058705,0.005552302,-0.8313811,-0.37212628,4.1356196,2.7063022,-0.8135951
1747679239.0592735,0.005552302,-0.8313811,-0.37212628,4.1356196,2.7063022,-0.8135951
1747679239.0599084,-0.11794066,-0.66639835,-0.6171598,3.893805,2.8937886,-0.27244118
1747679239.0604475,-0.11794066,-0.66639835,-0.6171598,3.893805,2.8937886,-0.27244118
1747679239.0609806,-0.11794066,-0.66639835,-0.6171598,3.893805,2.8937886,-0.27244118
1747679239.061509,-0.11794066,-0.66639835,-0.6171598,3.893805,2.8937886,-0.27244118
1747679239.0620306,-0.11794066,-0.66639835,-0.6171598,3.893805,2.8937886,-0.27244118
1747679239.0625513,-0.11794066,-0.66639835,-0.6171598,3.893805,2.8937886,-0.27244118
1747679239.0630834,-0.11794066,-0.66639835,-0.6171598,3.893805,2.8937886,-0.27244118
1747679239.0641174,-0.11794066,-0.66639835,-0.6171598,3.893805,2.8937886,-0.27244118
1747679239.0646956,-0.11794066,-0.66639835,-0.6171598,3.893805,2.8937886,-0.27244118
1747679239.065239,-0.11794066,-0.66639835,-0.6171598,3.893805,2.8937886,-0.27244118
1747679239.0657804,-0.11794066,-0.66639835,-0.6171598,3.893805,2.8937886,-0.27244118
1747679239.0663135,-0.11794066,-0.66639835,-0.6171598,3.893805,2.8937886,-0.27244118
1747679239.0668328,-0.11794066,-0.66639835,-0.6171598,3.893805,2.8937886,-0.27244118
1747679239.0673518,-0.11794066,-0.66639835,-0.6171598,3.893805,2.8937886,-0.27244118
1747679239.06787,-0.11794066,-0.66639835,-0.6171598,3.893805,2.8937886,-0.27244118
1747679239.068388,-0.11794066,-0.66639835,-0.6171598,3.893805,2.8937886,-0.27244118
1747679239.068906,-0.11794066,-0.66639835,-0.6171598,3.893805,2.8937886,-0.27244118
1747679239.0694244,-0.11794066,-0.66639835,-0.6171598,3.893805,2.8937886,-0.27244118
1747679239.0699506,-0.097439855,-0.49653444,-0.9529825,3.893805,2.8937886,-0.27244118
1747679239.0704765,-0.097439855,-0.49653444,-0.9529825,3.405914,3.3657005,0.1792306
1747679239.0709975,-0.097439855,-0.49653444,-0.9529825,3.405914,3.3657005,0.1792306
1747679239.0715163,-0.097439855,-0.49653444,-0.9529825,3.405914,3.3657005,0.1792306
1747679239.0720344,-0.097439855,-0.49653444,-0.9529825,3.405914,3.3657005,0.1792306
1747679239.0725522,-0.097439855,-0.49653444,-0.9529825,3.405914,3.3657005,0.1792306
1747679239.0730703,-0.097439855,-0.49653444,-0.9529825,3.405914,3.3657005,0.1792306
1747679239.0735934,-0.097439855,-0.49653444,-0.9529825,3.405914,3.3657005,0.1792306
1747679239.074301,-0.097439855,-0.49653444,-0.9529825,3.405914,3.3657005,0.1792306
1747679239.0748491,-0.097439855,-0.49653444,-0.9529825,3.405914,3.3657005,0.1792306
1747679239.075406,-0.097439855,-0.49653444,-0.9529825,3.405914,3.3657005,0.1792306
1747679239.0759523,-0.097439855,-0.49653444,-0.9529825,3.405914,3.3657005,0.1792306
1747679239.0764782,-0.097439855,-0.49653444,-0.9529825,3.405914,3.3657005,0.1792306
1747679239.076997,-0.097439855,-0.49653444,-0.9529825,3.405914,3.3657005,0.1792306
1747679239.0775158,-0.097439855,-0.49653444,-0.9529825,3.405914,3.3657005,0.1792306
1747679239.078034,-0.097439855,-0.49653444,-0.9529825,3.405914,3.3657005,0.1792306
1747679239.078566,-0.097439855,-0.49653444,-0.9529825,3.405914,3.3657005,0.1792306
1747679239.0794084,-0.097439855,-0.49653444,-0.9529825,3.405914,3.3657005,0.1792306
1747679239.0799696,-0.097439855,-0.49653444,-0.9529825,3.405914,3.3657005,0.1792306
1747679239.0805194,-0.097439855,-0.49653444,-0.9529825,3.405914,3.3657005,0.1792306
1747679239.0810826,-0.031056285,-0.4438181,-1.1135722,3.405914,3.3657005,0.1792306
1747679239.0816193,-0.031056285,-0.4438181,-1.1135722,3.1289456,3.5542521,0.36565176
1747679239.0821419,-0.031056285,-0.4438181,-1.1135722,3.1289456,3.5542521,0.36565176
1747679239.0826607,-0.031056285,-0.4438181,-1.1135722,3.1289456,3.5542521,0.36565176
1747679239.0831795,-0.031056285,-0.4438181,-1.1135722,3.1289456,3.5542521,0.36565176
1747679239.0837023,-0.031056285,-0.4438181,-1.1135722,3.1289456,3.5542521,0.36565176
1747679239.0842307,-0.031056285,-0.4438181,-1.1135722,3.1289456,3.5542521,0.36565176
1747679239.0847523,-0.031056285,-0.4438181,-1.1135722,3.1289456,3.5542521,0.36565176
1747679239.0852706,-0.031056285,-0.4438181,-1.1135722,3.1289456,3.5542521,0.36565176
1747679239.085789,-0.031056285,-0.4438181,-1.1135722,3.1289456,3.5542521,0.36565176
1747679239.0863068,-0.031056285,-0.4438181,-1.1135722,3.1289456,3.5542521,0.36565176
1747679239.0868247,-0.031056285,-0.4438181,-1.1135722,3.1289456,3.5542521,0.36565176
1747679239.0873425,-0.031056285,-0.4438181,-1.1135722,3.1289456,3.5542521,0.36565176
1747679239.08786,-0.031056285,-0.4438181,-1.1135722,3.1289456,3.5542521,0.36565176
1747679239.0883784,-0.031056285,-0.4438181,-1.1135722,3.1289456,3.5542521,0.36565176
1747679239.0888965,-0.031056285,-0.4438181,-1.1135722,3.1289456,3.5542521,0.36565176
1747679239.0894217,-0.031056285,-0.4438181,-1.1135722,3.1289456,3.5542521,0.36565176
1747679239.0899613,-0.031056285,-0.4438181,-1.1135722,3.1289456,3.5542521,0.36565176
1747679239.0904927,-0.031056285,-0.4438181,-1.1135722,3.1289456,3.5542521,0.36565176
1747679239.0910134,-0.031056285,-0.4438181,-1.1135722,3.1289456,3.5542521,0.36565176
1747679239.091534,-0.031056285,-0.4438181,-1.1135722,3.1289456,3.5542521,0.36565176
1747679239.092065,0.050458837,-0.36767226,-1.3839877,2.694318,3.5478606,0.6191845
1747679239.0925932,0.050458837,-0.36767226,-1.3839877,2.694318,3.5478606,0.6191845
1747679239.0931146,0.050458837,-0.36767226,-1.3839877,2.694318,3.5478606,0.6191845
1747679239.0936453,0.050458837,-0.36767226,-1.3839877,2.694318,3.5478606,0.6191845
1747679239.094186,0.050458837,-0.36767226,-1.3839877,2.694318,3.5478606,0.6191845
1747679239.094738,0.050458837,-0.36767226,-1.3839877,2.694318,3.5478606,0.6191845
1747679239.0955355,0.050458837,-0.36767226,-1.3839877,2.694318,3.5478606,0.6191845
1747679239.0960953,0.050458837,-0.36767226,-1.3839877,2.694318,3.5478606,0.6191845
1747679239.096645,0.050458837,-0.36767226,-1.3839877,2.694318,3.5478606,0.6191845
1747679239.0971859,0.050458837,-0.36767226,-1.3839877,2.694318,3.5478606,0.6191845
1747679239.0977187,0.050458837,-0.36767226,-1.3839877,2.694318,3.5478606,0.6191845
1747679239.0982382,0.050458837,-0.36767226,-1.3839877,2.694318,3.5478606,0.6191845
1747679239.0987568,0.050458837,-0.36767226,-1.3839877,2.694318,3.5478606,0.6191845
1747679239.099275,0.050458837,-0.36767226,-1.3839877,2.694318,3.5478606,0.6191845
1747679239.0997932,0.050458837,-0.36767226,-1.3839877,2.694318,3.5478606,0.6191845
1747679239.1003108,0.050458837,-0.36767226,-1.3839877,2.694318,3.5478606,0.6191845
1747679239.100829,0.050458837,-0.36767226,-1.3839877,2.694318,3.5478606,0.6191845
1747679239.1013467,0.050458837,-0.36767226,-1.3839877,2.694318,3.5478606,0.6191845
1747679239.101865,0.050458837,-0.36767226,-1.3839877,2.694318,3.5478606,0.6191845
1747679239.1023884,0.050458837,-0.36767226,-1.3839877,2.2692778,2.903376,0.9217194
1747679239.1029139,0.1300215,-0.2446674,-1.7710624,2.2692778,2.903376,0.9217194
1747679239.103439,0.1300215,-0.2446674,-1.7710624,2.2692778,2.903376,0.9217194
1747679239.103969,0.1300215,-0.2446674,-1.7710624,2.2692778,2.903376,0.9217194
1747679239.104548,0.1300215,-0.2446674,-1.7710624,2.2692778,2.903376,0.9217194
1747679239.1051097,0.1300215,-0.2446674,-1.7710624,2.2692778,2.903376,0.9217194
1747679239.105658,0.1300215,-0.2446674,-1.7710624,2.2692778,2.903376,0.9217194
1747679239.1062052,0.1300215,-0.2446674,-1.7710624,2.2692778,2.903376,0.9217194
1747679239.1086335,0.1300215,-0.2446674,-1.7710624,2.2692778,2.903376,0.9217194
1747679239.109172,0.1300215,-0.2446674,-1.7710624,1.9475683,2.0447736,1.1848395
1747679239.1097095,0.26522923,-0.10994779,-2.063443,1.9475683,2.0447736,1.1848395
1747679239.1109073,0.26522923,-0.10994779,-2.063443,1.9475683,2.0447736,1.1848395
1747679239.1114664,0.26522923,-0.10994779,-2.063443,1.9475683,2.0447736,1.1848395
1747679239.1120179,0.26522923,-0.10994779,-2.063443,1.9475683,2.0447736,1.1848395
1747679239.11256,0.26522923,-0.10994779,-2.063443,1.9475683,2.0447736,1.1848395
1747679239.1130931,0.26522923,-0.10994779,-2.063443,1.9475683,2.0447736,1.1848395
1747679239.1136177,0.26522923,-0.10994779,-2.063443,1.9475683,2.0447736,1.1848395
1747679239.1141453,0.26522923,-0.10994779,-2.063443,1.9475683,2.0447736,1.1848395
1747679239.1146665,0.26522923,-0.10994779,-2.063443,1.9475683,2.0447736,1.1848395
1747679239.1151855,0.26522923,-0.10994779,-2.063443,1.9475683,2.0447736,1.1848395
1747679239.1157036,0.26522923,-0.10994779,-2.063443,1.9475683,2.0447736,1.1848395
1747679239.1162217,0.26522923,-0.10994779,-2.063443,1.9475683,2.0447736,1.1848395
1747679239.11674,0.26522923,-0.10994779,-2.063443,1.9475683,2.0447736,1.1848395
1747679239.1172578,0.26522923,-0.10994779,-2.063443,1.9475683,2.0447736,1.1848395
1747679239.1177757,0.26522923,-0.10994779,-2.063443,1.9475683,2.0447736,1.1848395
1747679239.1182935,0.26522923,-0.10994779,-2.063443,1.9475683,2.0447736,1.1848395
1747679239.1188116,0.26522923,-0.10994779,-2.063443,1.9475683,2.0447736,1.1848395
1747679239.1193297,0.26522923,-0.10994779,-2.063443,1.9475683,2.0447736,1.1848395
1747679239.1198812,0.26522923,-0.10994779,-2.063443,1.9475683,2.0447736,1.1848395
1747679239.1204233,0.26522923,-0.10994779,-2.063443,1.9475683,2.0447736,1.1848395
1747679239.120952,0.51221514,0.11360865,-2.200115,1.9475683,2.0447736,1.1848395
1747679239.1214783,0.51221514,0.11360865,-2.200115,1.9475683,2.0447736,1.1848395
1747679239.1220074,0.51221514,0.11360865,-2.200115,1.9475683,2.0447736,1.1848395
1747679239.1225374,0.51221514,0.11360865,-2.200115,1.9475683,2.0447736,1.1848395
1747679239.1230562,0.51221514,0.11360865,-2.200115,1.9475683,2.0447736,1.1848395
1747679239.1235743,0.51221514,0.11360865,-2.200115,1.9475683,2.0447736,1.1848395
1747679239.1240988,0.51221514,0.11360865,-2.200115,1.9475683,2.0447736,1.1848395
1747679239.1246297,0.51221514,0.11360865,-2.200115,1.6503597,1.0828404,1.2764522
1747679239.125166,0.51221514,0.11360865,-2.200115,1.6503597,1.0828404,1.2764522
1747679239.125704,0.51221514,0.11360865,-2.200115,1.6503597,1.0828404,1.2764522
1747679239.1262505,0.51221514,0.11360865,-2.200115,1.6503597,1.0828404,1.2764522
1747679239.1270747,0.51221514,0.11360865,-2.200115,1.6503597,1.0828404,1.2764522
1747679239.1276789,0.51221514,0.11360865,-2.200115,1.6503597,1.0828404,1.2764522
1747679239.1282313,0.51221514,0.11360865,-2.200115,1.6503597,1.0828404,1.2764522
1747679239.128775,0.51221514,0.11360865,-2.200115,1.6503597,1.0828404,1.2764522
1747679239.1293087,0.79922646,0.3073901,-2.1605778,1.6503597,1.0828404,1.2764522
1747679239.1298335,0.79922646,0.3073901,-2.1605778,1.5150713,0.3147854,1.0815089
1747679239.1303542,0.79922646,0.3073901,-2.1605778,1.5150713,0.3147854,1.0815089
1747679239.1308725,0.79922646,0.3073901,-2.1605778,1.5150713,0.3147854,1.0815089
1747679239.1313908,0.79922646,0.3073901,-2.1605778,1.5150713,0.3147854,1.0815089
1747679239.1319087,0.79922646,0.3073901,-2.1605778,1.5150713,0.3147854,1.0815089
1747679239.1324265,0.79922646,0.3073901,-2.1605778,1.5150713,0.3147854,1.0815089
1747679239.1329443,0.79922646,0.3073901,-2.1605778,1.5150713,0.3147854,1.0815089
1747679239.133462,0.79922646,0.3073901,-2.1605778,1.5150713,0.3147854,1.0815089
1747679239.133981,0.79922646,0.3073901,-2.1605778,1.5150713,0.3147854,1.0815089
1747679239.1345038,0.79922646,0.3073901,-2.1605778,1.5150713,0.3147854,1.0815089
1747679239.1350977,0.79922646,0.3073901,-2.1605778,1.5150713,0.3147854,1.0815089
1747679239.135655,0.79922646,0.3073901,-2.1605778,1.5150713,0.3147854,1.0815089
1747679239.1362717,0.79922646,0.3073901,-2.1605778,1.5150713,0.3147854,1.0815089
1747679239.1368196,0.79922646,0.3073901,-2.1605778,1.5150713,0.3147854,1.0815089
1747679239.1373556,0.79922646,0.3073901,-2.1605778,1.5150713,0.3147854,1.0815089
1747679239.1378968,0.79922646,0.3073901,-2.1605778,1.5150713,0.3147854,1.0815089
1747679239.1384456,0.79922646,0.3073901,-2.1605778,1.5150713,0.3147854,1.0815089
1747679239.1389997,0.9993534,0.38060728,-2.1844954,1.6247934,-0.11984216,0.61811924
1747679239.1395426,0.9993534,0.38060728,-2.1844954,1.6247934,-0.11984216,0.61811924
1747679239.1400898,0.9993534,0.38060728,-2.1844954,1.6247934,-0.11984216,0.61811924
1747679239.1406295,0.9993534,0.38060728,-2.1844954,1.6247934,-0.11984216,0.61811924
1747679239.1411555,0.9993534,0.38060728,-2.1844954,1.6247934,-0.11984216,0.61811924
1747679239.1416903,0.9993534,0.38060728,-2.1844954,1.6247934,-0.11984216,0.61811924
1747679239.1438143,0.9993534,0.38060728,-2.1844954,1.6247934,-0.11984216,0.61811924
1747679239.1445768,0.9993534,0.38060728,-2.1844954,1.6247934,-0.11984216,0.61811924
1747679239.1451287,0.9993534,0.38060728,-2.1844954,1.6247934,-0.11984216,0.61811924
1747679239.1456623,0.9993534,0.38060728,-2.1844954,1.6247934,-0.11984216,0.61811924
1747679239.1461818,0.9993534,0.38060728,-2.1844954,1.6247934,-0.11984216,0.61811924
1747679239.1467009,0.9993534,0.38060728,-2.1844954,1.6247934,-0.11984216,0.61811924
1747679239.1472192,0.9993534,0.38060728,-2.1844954,1.6247934,-0.11984216,0.61811924
1747679239.1477375,0.9993534,0.38060728,-2.1844954,1.6247934,-0.11984216,0.61811924
1747679239.1482556,0.9993534,0.38060728,-2.1844954,1.6247934,-0.11984216,0.61811924
1747679239.1487813,0.9993534,0.38060728,-2.1844954,1.6247934,-0.11984216,0.61811924
1747679239.1493084,0.9993534,0.38060728,-2.1844954,1.7515597,-0.5299687,0.02476738
1747679239.1498308,0.9993534,0.38060728,-2.1844954,1.7515597,-0.5299687,0.02476738
1747679239.150371,0.8963613,0.36840442,-2.4373386,1.7515597,-0.5299687,0.02476738
1747679239.1509166,0.8963613,0.36840442,-2.4373386,1.7515597,-0.5299687,0.02476738
1747679239.15144,0.8963613,0.36840442,-2.4373386,1.7515597,-0.5299687,0.02476738
1747679239.1519616,0.8963613,0.36840442,-2.4373386,1.7515597,-0.5299687,0.02476738
1747679239.1524827,0.8963613,0.36840442,-2.4373386,1.7515597,-0.5299687,0.02476738
1747679239.1530032,0.8963613,0.36840442,-2.4373386,1.7515597,-0.5299687,0.02476738
1747679239.153524,0.8963613,0.36840442,-2.4373386,1.7515597,-0.5299687,0.02476738
1747679239.1540534,0.8963613,0.36840442,-2.4373386,1.7515597,-0.5299687,0.02476738
1747679239.1545966,0.8963613,0.36840442,-2.4373386,1.7515597,-0.5299687,0.02476738
1747679239.1551201,0.8963613,0.36840442,-2.4373386,1.7515597,-0.5299687,0.02476738
1747679239.1556413,0.8963613,0.36840442,-2.4373386,1.7515597,-0.5299687,0.02476738
1747679239.156162,0.8963613,0.36840442,-2.4373386,1.7515597,-0.5299687,0.02476738
1747679239.1566958,0.8963613,0.36840442,-2.4373386,1.7515597,-0.5299687,0.02476738
1747679239.1574924,0.8963613,0.36840442,-2.4373386,1.7515597,-0.5299687,0.02476738
1747679239.1580532,0.8963613,0.36840442,-2.4373386,1.7515597,-0.5299687,0.02476738
1747679239.1586044,0.8963613,0.36840442,-2.4373386,1.7515597,-0.5299687,0.02476738
1747679239.1591418,0.8963613,0.36840442,-2.4373386,1.7515597,-0.5299687,0.02476738
1747679239.1596792,0.8963613,0.36840442,-2.4373386,1.7515597,-0.5299687,0.02476738
1747679239.1602116,0.8963613,0.36840442,-2.4373386,1.6993618,-1.2213248,-0.42477387
1747679239.1607385,0.8963613,0.36840442,-2.4373386,1.6993618,-1.2213248,-0.42477387
1747679239.1612709,0.47999957,0.28591305,-2.7428985,1.6993618,-1.2213248,-0.42477387
1747679239.1617947,0.47999957,0.28591305,-2.7428985,1.6993618,-1.2213248,-0.42477387
1747679239.1623158,0.47999957,0.28591305,-2.7428985,1.6993618,-1.2213248,-0.42477387
1747679239.1628368,0.47999957,0.28591305,-2.7428985,1.6993618,-1.2213248,-0.42477387
1747679239.1633575,0.47999957,0.28591305,-2.7428985,1.6993618,-1.2213248,-0.42477387
1747679239.163881,0.47999957,0.28591305,-2.7428985,1.6993618,-1.2213248,-0.42477387
1747679239.1643977,0.47999957,0.28591305,-2.7428985,1.6993618,-1.2213248,-0.42477387
1747679239.1649275,0.47999957,0.28591305,-2.7428985,1.6993618,-1.2213248,-0.42477387
1747679239.1655545,0.47999957,0.28591305,-2.7428985,1.6993618,-1.2213248,-0.42477387
1747679239.1661098,0.47999957,0.28591305,-2.7428985,1.6993618,-1.2213248,-0.42477387
1747679239.166657,0.47999957,0.28591305,-2.7428985,1.6993618,-1.2213248,-0.42477387
1747679239.167194,0.47999957,0.28591305,-2.7428985,1.6993618,-1.2213248,-0.42477387
1747679239.167846,0.47999957,0.28591305,-2.7428985,1.6993618,-1.2213248,-0.42477387
1747679239.1683943,0.47999957,0.28591305,-2.7428985,1.6993618,-1.2213248,-0.42477387
1747679239.168927,0.47999957,0.28591305,-2.7428985,1.6993618,-1.2213248,-0.42477387
1747679239.1694465,0.47999957,0.28591305,-2.7428985,1.6993618,-1.2213248,-0.42477387
1747679239.1699703,0.25351447,0.18389714,-2.7912216,1.5310502,-2.111885,-0.611195
1747679239.1704917,0.25351447,0.18389714,-2.7912216,1.5310502,-2.111885,-0.611195
1747679239.1710107,0.25351447,0.18389714,-2.7912216,1.5310502,-2.111885,-0.611195
1747679239.1715293,0.25351447,0.18389714,-2.7912216,1.5310502,-2.111885,-0.611195
1747679239.1720471,0.25351447,0.18389714,-2.7912216,1.5310502,-2.111885,-0.611195
1747679239.1725647,0.25351447,0.18389714,-2.7912216,1.5310502,-2.111885,-0.611195
1747679239.1730957,0.25351447,0.18389714,-2.7912216,1.5310502,-2.111885,-0.611195
1747679239.1740077,0.25351447,0.18389714,-2.7912216,1.5310502,-2.111885,-0.611195
1747679239.1745636,0.25351447,0.18389714,-2.7912216,1.5310502,-2.111885,-0.611195
1747679239.1751003,0.25351447,0.18389714,-2.7912216,1.5310502,-2.111885,-0.611195
1747679239.1756334,0.25351447,0.18389714,-2.7912216,1.5310502,-2.111885,-0.611195
1747679239.1761692,0.25351447,0.18389714,-2.7912216,1.5310502,-2.111885,-0.611195
1747679239.1766894,0.25351447,0.18389714,-2.7912216,1.5310502,-2.111885,-0.611195
1747679239.1772077,0.25351447,0.18389714,-2.7912216,1.5310502,-2.111885,-0.611195
1747679239.1777263,0.25351447,0.18389714,-2.7912216,1.5310502,-2.111885,-0.611195
1747679239.178244,0.25351447,0.18389714,-2.7912216,1.5310502,-2.111885,-0.611195
1747679239.178762,0.25351447,0.18389714,-2.7912216,1.5310502,-2.111885,-0.611195
1747679239.1792908,0.13587888,0.07748818,-2.7780426,1.5310502,-2.111885,-0.611195
1747679239.1798165,0.13587888,0.07748818,-2.7780426,1.5310502,-2.111885,-0.611195
1747679239.180373,0.13587888,0.07748818,-2.7780426,1.4511554,-2.5433168,-0.6303698
1747679239.1809092,0.13587888,0.07748818,-2.7780426,1.4511554,-2.5433168,-0.6303698
1747679239.181443,0.13587888,0.07748818,-2.7780426,1.4511554,-2.5433168,-0.6303698
1747679239.1819685,0.13587888,0.07748818,-2.7780426,1.4511554,-2.5433168,-0.6303698
1747679239.1824872,0.13587888,0.07748818,-2.7780426,1.4511554,-2.5433168,-0.6303698
1747679239.183006,0.13587888,0.07748818,-2.7780426,1.4511554,-2.5433168,-0.6303698
1747679239.1835241,0.13587888,0.07748818,-2.7780426,1.4511554,-2.5433168,-0.6303698
1747679239.1840465,0.13587888,0.07748818,-2.7780426,1.4511554,-2.5433168,-0.6303698
1747679239.184575,0.13587888,0.07748818,-2.7780426,1.4511554,-2.5433168,-0.6303698
1747679239.1850965,0.13587888,0.07748818,-2.7780426,1.4511554,-2.5433168,-0.6303698
1747679239.1856148,0.13587888,0.07748818,-2.7780426,1.4511554,-2.5433168,-0.6303698
1747679239.186133,0.13587888,0.07748818,-2.7780426,1.4511554,-2.5433168,-0.6303698
1747679239.186651,0.13587888,0.07748818,-2.7780426,1.4511554,-2.5433168,-0.6303698
1747679239.1871688,0.13587888,0.07748818,-2.7780426,1.4511554,-2.5433168,-0.6303698
1747679239.187687,0.13587888,0.07748818,-2.7780426,1.4511554,-2.5433168,-0.6303698
1747679239.1882188,0.13587888,0.07748818,-2.7780426,1.4511554,-2.5433168,-0.6303698
1747679239.1889932,0.13587888,0.07748818,-2.7780426,1.4511554,-2.5433168,-0.6303698
1747679239.1895485,0.13587888,0.07748818,-2.7780426,1.4511554,-2.5433168,-0.6303698
1747679239.1900947,0.13587888,0.07748818,-2.7780426,1.4511554,-2.5433168,-0.6303698
1747679239.1906278,0.13587888,0.07748818,-2.7780426,1.4511554,-2.5433168,-0.6303698
1747679239.1911807,0.13587888,0.07748818,-2.7780426,1.4511554,-2.5433168,-0.6303698
1747679239.1917126,-0.11013083,-0.098233044,-2.7184927,1.4511554,-2.5433168,-0.6303698
1747679239.1922593,-0.11013083,-0.098233044,-2.7184927,1.4511554,-2.5433168,-0.6303698
1747679239.1928155,-0.11013083,-0.098233044,-2.7184927,1.4511554,-2.5433168,-0.6303698
1747679239.19336,-0.11013083,-0.098233044,-2.7184927,1.4021533,-3.149452,-0.5813676
1747679239.1938846,-0.11013083,-0.098233044,-2.7184927,1.4021533,-3.149452,-0.5813676
1747679239.1944087,-0.11013083,-0.098233044,-2.7184927,1.4021533,-3.149452,-0.5813676
1747679239.194937,-0.11013083,-0.098233044,-2.7184927,1.4021533,-3.149452,-0.5813676
1747679239.1954584,-0.11013083,-0.098233044,-2.7184927,1.4021533,-3.149452,-0.5813676
1747679239.1962247,-0.11013083,-0.098233044,-2.7184927,1.4021533,-3.149452,-0.5813676
1747679239.1967766,-0.11013083,-0.098233044,-2.7184927,1.4021533,-3.149452,-0.5813676
1747679239.1973257,-0.11013083,-0.098233044,-2.7184927,1.4021533,-3.149452,-0.5813676
1747679239.1978672,-0.11013083,-0.098233044,-2.7184927,1.4021533,-3.149452,-0.5813676
1747679239.1984944,-0.11013083,-0.098233044,-2.7184927,1.4021533,-3.149452,-0.5813676
1747679239.1990297,-0.11013083,-0.098233044,-2.7184927,1.4021533,-3.149452,-0.5813676
1747679239.1995494,-0.11013083,-0.098233044,-2.7184927,1.4021533,-3.149452,-0.5813676
1747679239.200068,-0.11013083,-0.098233044,-2.7184927,1.4021533,-3.149452,-0.5813676
1747679239.2005868,-0.11013083,-0.098233044,-2.7184927,1.4021533,-3.149452,-0.5813676
1747679239.201105,-0.11013083,-0.098233044,-2.7184927,1.4021533,-3.149452,-0.5813676
1747679239.2016234,-0.11013083,-0.098233044,-2.7184927,1.4021533,-3.149452,-0.5813676
1747679239.2021418,-0.11013083,-0.098233044,-2.7184927,1.4021533,-3.149452,-0.5813676
1747679239.2026598,-0.11013083,-0.098233044,-2.7184927,1.4021533,-3.149452,-0.5813676
1747679239.2031968,-0.11013083,-0.098233044,-2.7184927,1.4021533,-3.149452,-0.5813676
1747679239.20374,-0.11013083,-0.098233044,-2.7184927,1.4021533,-3.149452,-0.5813676
1747679239.204296,-0.11013083,-0.098233044,-2.7184927,1.4021533,-3.149452,-0.5813676
1747679239.20539,-0.6016621,-0.2251428,-2.6574783,1.4479597,-3.5404036,-0.3683149
1747679239.2059429,-0.6016621,-0.2251428,-2.6574783,1.4479597,-3.5404036,-0.3683149
1747679239.2064903,-0.6016621,-0.2251428,-2.6574783,1.4479597,-3.5404036,-0.3683149
1747679239.2070248,-0.6016621,-0.2251428,-2.6574783,1.4479597,-3.5404036,-0.3683149
1747679239.2075493,-0.6016621,-0.2251428,-2.6574783,1.4479597,-3.5404036,-0.3683149
1747679239.208107,-0.6016621,-0.2251428,-2.6574783,1.4479597,-3.5404036,-0.3683149
1747679239.208626,-0.6016621,-0.2251428,-2.6574783,1.4479597,-3.5404036,-0.3683149
1747679239.209144,-0.6016621,-0.2251428,-2.6574783,1.4479597,-3.5404036,-0.3683149
1747679239.209662,-0.6016621,-0.2251428,-2.6574783,1.4479597,-3.5404036,-0.3683149
1747679239.2101798,-0.6016621,-0.2251428,-2.6574783,1.4479597,-3.5404036,-0.3683149
1747679239.2107008,-0.6016621,-0.2251428,-2.6574783,1.4479597,-3.5404036,-0.3683149
1747679239.2112374,-0.6016621,-0.2251428,-2.6574783,1.4479597,-3.5404036,-0.3683149
1747679239.2117782,-0.6016621,-0.2251428,-2.6574783,1.4479597,-3.5404036,-0.3683149
1747679239.2122993,-0.6016621,-0.2251428,-2.6574783,1.4479597,-3.5404036,-0.3683149
1747679239.2128313,-0.6016621,-0.2251428,-2.6574783,1.4479597,-3.5404036,-0.3683149
1747679239.2133589,-0.6016621,-0.2251428,-2.6574783,1.7739303,-4.205128,0.33688962
1747679239.2138858,-0.6016621,-0.2251428,-2.6574783,1.7739303,-4.205128,0.33688962
1747679239.2144158,-1.027786,-0.31251532,-2.5510693,1.7739303,-4.205128,0.33688962
1747679239.214941,-1.027786,-0.31251532,-2.5510693,1.7739303,-4.205128,0.33688962
1747679239.2154605,-1.027786,-0.31251532,-2.5510693,1.7739303,-4.205128,0.33688962
1747679239.215979,-1.027786,-0.31251532,-2.5510693,1.7739303,-4.205128,0.33688962
1747679239.2164972,-1.027786,-0.31251532,-2.5510693,1.7739303,-4.205128,0.33688962
1747679239.2170196,-1.027786,-0.31251532,-2.5510693,1.7739303,-4.205128,0.33688962
1747679239.2175403,-1.027786,-0.31251532,-2.5510693,1.7739303,-4.205128,0.33688962
1747679239.2180607,-1.027786,-0.31251532,-2.5510693,1.7739303,-4.205128,0.33688962
1747679239.2185853,-1.027786,-0.31251532,-2.5510693,1.7739303,-4.205128,0.33688962
1747679239.2191062,-1.027786,-0.31251532,-2.5510693,1.7739303,-4.205128,0.33688962
1747679239.2196374,-1.027786,-0.31251532,-2.5510693,1.7739303,-4.205128,0.33688962
1747679239.2204251,-1.027786,-0.31251532,-2.5510693,1.7739303,-4.205128,0.33688962
1747679239.2209802,-1.027786,-0.31251532,-2.5510693,1.7739303,-4.205128,0.33688962
1747679239.221526,-1.027786,-0.31251532,-2.5510693,1.7739303,-4.205128,0.33688962
1747679239.2220597,-1.027786,-0.31251532,-2.5510693,1.7739303,-4.205128,0.33688962
1747679239.2225842,-1.027786,-0.31251532,-2.5510693,1.7739303,-4.205128,0.33688962
1747679239.223115,-1.1649463,-0.36376733,-2.689694,2.185122,-4.834699,1.2093406
1747679239.2236407,-1.1649463,-0.36376733,-2.689694,2.185122,-4.834699,1.2093406
1747679239.2241652,-1.1649463,-0.36376733,-2.689694,2.185122,-4.834699,1.2093406
1747679239.2246938,-1.1649463,-0.36376733,-2.689694,2.185122,-4.834699,1.2093406
1747679239.2252154,-1.1649463,-0.36376733,-2.689694,2.185122,-4.834699,1.2093406
1747679239.2257335,-1.1649463,-0.36376733,-2.689694,2.185122,-4.834699,1.2093406
1747679239.2263463,-1.1649463,-0.36376733,-2.689694,2.185122,-4.834699,1.2093406
1747679239.226904,-1.1649463,-0.36376733,-2.689694,2.185122,-4.834699,1.2093406
1747679239.227444,-1.1649463,-0.36376733,-2.689694,2.185122,-4.834699,1.2093406
1747679239.2279875,-1.1649463,-0.36376733,-2.689694,2.185122,-4.834699,1.2093406
1747679239.228527,-1.1649463,-0.36376733,-2.689694,2.185122,-4.834699,1.2093406
1747679239.2290652,-1.1649463,-0.36376733,-2.689694,2.185122,-4.834699,1.2093406
1747679239.2295954,-1.1649463,-0.36376733,-2.689694,2.5004401,-5.2331076,1.946503
1747679239.23012,-1.1649463,-0.36376733,-2.689694,2.5004401,-5.2331076,1.946503
1747679239.2306485,-0.98580825,-0.5180115,-2.9420493,2.5004401,-5.2331076,1.946503
1747679239.2311707,-0.98580825,-0.5180115,-2.9420493,2.5004401,-5.2331076,1.946503
1747679239.2316887,-0.98580825,-0.5180115,-2.9420493,2.5004401,-5.2331076,1.946503
1747679239.232207,-0.98580825,-0.5180115,-2.9420493,2.5004401,-5.2331076,1.946503
1747679239.2327256,-0.98580825,-0.5180115,-2.9420493,2.5004401,-5.2331076,1.946503
1747679239.2332485,-0.98580825,-0.5180115,-2.9420493,2.5004401,-5.2331076,1.946503
1747679239.2337763,-0.98580825,-0.5180115,-2.9420493,2.5004401,-5.2331076,1.946503
1747679239.2342978,-0.98580825,-0.5180115,-2.9420493,2.5004401,-5.2331076,1.946503
1747679239.23483,-0.98580825,-0.5180115,-2.9420493,2.5004401,-5.2331076,1.946503
1747679239.235625,-0.98580825,-0.5180115,-2.9420493,2.5004401,-5.2331076,1.946503
1747679239.2361803,-0.98580825,-0.5180115,-2.9420493,2.5004401,-5.2331076,1.946503
1747679239.2367256,-0.98580825,-0.5180115,-2.9420493,2.5004401,-5.2331076,1.946503
1747679239.2372918,-0.98580825,-0.5180115,-2.9420493,2.5004401,-5.2331076,1.946503
1747679239.237824,-0.98580825,-0.5180115,-2.9420493,2.5004401,-5.2331076,1.946503
1747679239.2383554,-0.7456559,-0.75474703,-3.30423,2.5004401,-5.2331076,1.946503
1747679239.2388847,-0.7456559,-0.75474703,-3.30423,2.5558338,-5.348156,2.4216106
1747679239.239406,-0.7456559,-0.75474703,-3.30423,2.5558338,-5.348156,2.4216106
1747679239.239928,-0.7456559,-0.75474703,-3.30423,2.5558338,-5.348156,2.4216106
1747679239.2404485,-0.7456559,-0.75474703,-3.30423,2.5558338,-5.348156,2.4216106
1747679239.2409668,-0.7456559,-0.75474703,-3.30423,2.5558338,-5.348156,2.4216106
1747679239.2415586,-0.7456559,-0.75474703,-3.30423,2.5558338,-5.348156,2.4216106
1747679239.242115,-0.7456559,-0.75474703,-3.30423,2.5558338,-5.348156,2.4216106
1747679239.2426732,-0.7456559,-0.75474703,-3.30423,2.5558338,-5.348156,2.4216106
1747679239.2432137,-0.7456559,-0.75474703,-3.30423,2.5558338,-5.348156,2.4216106
1747679239.2437434,-0.7456559,-0.75474703,-3.30423,2.5558338,-5.348156,2.4216106
1747679239.2442727,-0.7456559,-0.75474703,-3.30423,2.5558338,-5.348156,2.4216106
1747679239.2447946,-0.7456559,-0.75474703,-3.30423,2.5558338,-5.348156,2.4216106
1747679239.2453132,-0.7456559,-0.75474703,-3.30423,2.5558338,-5.348156,2.4216106
1747679239.2458315,-0.7456559,-0.75474703,-3.30423,2.5558338,-5.348156,2.4216106
1747679239.2463496,-0.7456559,-0.75474703,-3.30423,2.5558338,-5.348156,2.4216106
1747679239.2468677,-0.7456559,-0.75474703,-3.30423,2.5558338,-5.348156,2.4216106
1747679239.2473855,-0.7456559,-0.75474703,-3.30423,2.5558338,-5.348156,2.4216106
1747679239.2479117,-0.7456559,-0.75474703,-3.30423,2.5558338,-5.348156,2.4216106
1747679239.2488048,-0.5987334,-0.9163129,-3.6844714,2.249038,-5.275718,2.7134929
1747679239.249361,-0.5987334,-0.9163129,-3.6844714,2.249038,-5.275718,2.7134929
1747679239.249915,-0.5987334,-0.9163129,-3.6844714,2.249038,-5.275718,2.7134929
1747679239.2542865,-0.5987334,-0.9163129,-3.6844714,2.249038,-5.275718,2.7134929
1747679239.2548537,-0.5987334,-0.9163129,-3.6844714,2.249038,-5.275718,2.7134929
1747679239.2554011,-0.5987334,-0.9163129,-3.6844714,2.249038,-5.275718,2.7134929
1747679239.255943,-0.5987334,-0.9163129,-3.6844714,2.249038,-5.275718,2.7134929
1747679239.2564847,-0.5987334,-0.9163129,-3.6844714,2.249038,-5.275718,2.7134929
1747679239.258104,-0.5987334,-0.9163129,-3.6844714,2.249038,-5.275718,2.7134929
1747679239.2600465,-0.5987334,-0.9163129,-3.6844714,2.249038,-5.275718,2.7134929
1747679239.2606676,-0.56798226,-1.1520723,-3.8675141,1.5683343,-4.9369645,2.9585035
1747679239.261222,-0.56798226,-1.1520723,-3.8675141,1.5683343,-4.9369645,2.9585035
1747679239.2617648,-0.56798226,-1.1520723,-3.8675141,1.5683343,-4.9369645,2.9585035
1747679239.2623045,-0.56798226,-1.1520723,-3.8675141,1.5683343,-4.9369645,2.9585035
1747679239.2628438,-0.56798226,-1.1520723,-3.8675141,1.5683343,-4.9369645,2.9585035
1747679239.263385,-0.56798226,-1.1520723,-3.8675141,1.5683343,-4.9369645,2.9585035
1747679239.2639306,-0.56798226,-1.1520723,-3.8675141,1.5683343,-4.9369645,2.9585035
1747679239.2644446,-0.56798226,-1.1520723,-3.8675141,1.5683343,-4.9369645,2.9585035
1747679239.264977,-0.56798226,-1.1520723,-3.8675141,1.5683343,-4.9369645,2.9585035
1747679239.2655256,-0.56798226,-1.1520723,-3.8675141,1.5683343,-4.9369645,2.9585035
1747679239.2660766,-0.56798226,-1.1520723,-3.8675141,1.5683343,-4.9369645,2.9585035
1747679239.2710598,-0.56798226,-1.1520723,-3.8675141,1.5683343,-4.9369645,2.9585035
1747679239.2716248,-0.56798226,-1.1520723,-3.8675141,1.5683343,-4.9369645,2.9585035
1747679239.2723215,-0.6099601,-1.3951533,-3.6834948,0.72890663,-4.289284,3.2908657
1747679239.2741272,-0.6099601,-1.3951533,-3.6834948,0.72890663,-4.289284,3.2908657
1747679239.2747045,-0.6099601,-1.3951533,-3.6834948,0.72890663,-4.289284,3.2908657
1747679239.2752635,-0.6099601,-1.3951533,-3.6834948,0.72890663,-4.289284,3.2908657
1747679239.2758067,-0.6099601,-1.3951533,-3.6834948,0.72890663,-4.289284,3.2908657
1747679239.2763317,-0.6099601,-1.3951533,-3.6834948,0.72890663,-4.289284,3.2908657
1747679239.276851,-0.6099601,-1.3951533,-3.6834948,0.72890663,-4.289284,3.2908657
1747679239.2773693,-0.6099601,-1.3951533,-3.6834948,0.72890663,-4.289284,3.2908657
1747679239.2778876,-0.6099601,-1.3951533,-3.6834948,0.72890663,-4.289284,3.2908657
1747679239.2784111,-0.52893305,-1.556231,-3.5185125,0.72890663,-4.289284,3.2908657
1747679239.2789652,-0.52893305,-1.556231,-3.5185125,0.72890663,-4.289284,3.2908657
1747679239.2794924,-0.52893305,-1.556231,-3.5185125,0.72890663,-4.289284,3.2908657
1747679239.2800176,-0.52893305,-1.556231,-3.5185125,-0.15632744,-3.327351,3.7798216
1747679239.280539,-0.52893305,-1.556231,-3.5185125,-0.15632744,-3.327351,3.7798216
1747679239.2810576,-0.52893305,-1.556231,-3.5185125,-0.15632744,-3.327351,3.7798216
1747679239.281576,-0.52893305,-1.556231,-3.5185125,-0.15632744,-3.327351,3.7798216
1747679239.2821069,-0.52893305,-1.556231,-3.5185125,-0.15632744,-3.327351,3.7798216
1747679239.2830532,-0.52893305,-1.556231,-3.5185125,-0.15632744,-3.327351,3.7798216
1747679239.2836368,-0.52893305,-1.556231,-3.5185125,-0.15632744,-3.327351,3.7798216
1747679239.2841892,-0.52893305,-1.556231,-3.5185125,-0.15632744,-3.327351,3.7798216
1747679239.2847393,-0.52893305,-1.556231,-3.5185125,-0.15632744,-3.327351,3.7798216
1747679239.2852824,-0.52893305,-1.556231,-3.5185125,-0.15632744,-3.327351,3.7798216
1747679239.2858148,-0.52893305,-1.556231,-3.5185125,-0.15632744,-3.327351,3.7798216
1747679239.2863348,-0.52893305,-1.556231,-3.5185125,-0.15632744,-3.327351,3.7798216
1747679239.2868533,-0.52893305,-1.556231,-3.5185125,-0.15632744,-3.327351,3.7798216
1747679239.2874806,-0.52893305,-1.556231,-3.5185125,-0.15632744,-3.327351,3.7798216
1747679239.288033,-0.52893305,-1.556231,-3.5185125,-0.15632744,-3.327351,3.7798216
1747679239.2885816,-0.52893305,-1.556231,-3.5185125,-0.15632744,-3.327351,3.7798216
1747679239.2891219,-0.52893305,-1.556231,-3.5185125,-0.15632744,-3.327351,3.7798216
1747679239.2899885,-0.52893305,-1.556231,-3.5185125,-0.15632744,-3.327351,3.7798216
1747679239.2905724,-0.52893305,-1.556231,-3.5185125,-0.15632744,-3.327351,3.7798216
1747679239.2911053,-0.52893305,-1.556231,-3.5185125,-0.15632744,-3.327351,3.7798216
1747679239.291625,-0.52893305,-1.556231,-3.5185125,-0.15632744,-3.327351,3.7798216
1747679239.292144,-0.52893305,-1.556231,-3.5185125,-0.15632744,-3.327351,3.7798216
1747679239.292672,-0.52893305,-1.556231,-3.5185125,-0.15632744,-3.327351,3.7798216
1747679239.2931907,-0.52893305,-1.556231,-3.5185125,-0.15632744,-3.327351,3.7798216
1747679239.2937138,-0.52893305,-1.556231,-3.5185125,-0.15632744,-3.327351,3.7798216
1747679239.294256,-0.52893305,-1.556231,-3.5185125,-0.15632744,-3.327351,3.7798216
1747679239.2948022,-0.52893305,-1.556231,-3.5185125,-0.15632744,-3.327351,3.7798216
1747679239.2953305,-0.52893305,-1.556231,-3.5185125,-0.15632744,-3.327351,3.7798216
1747679239.295852,-0.52893305,-1.556231,-3.5185125,-0.15632744,-3.327351,3.7798216
1747679239.2963755,-0.37078395,-1.6904626,-3.4389498,-0.15632744,-3.327351,3.7798216
1747679239.2969007,-0.37078395,-1.6904626,-3.4389498,-0.7422224,-2.6573002,4.111119
1747679239.2974224,-0.37078395,-1.6904626,-3.4389498,-0.7422224,-2.6573002,4.111119
1747679239.2979534,-0.37078395,-1.6904626,-3.4389498,-0.7422224,-2.6573002,4.111119
1747679239.298958,-0.37078395,-1.6904626,-3.4389498,-0.7422224,-2.6573002,4.111119
1747679239.2995188,-0.37078395,-1.6904626,-3.4389498,-0.7422224,-2.6573002,4.111119
1747679239.300069,-0.37078395,-1.6904626,-3.4389498,-0.7422224,-2.6573002,4.111119
1747679239.3006113,-0.37078395,-1.6904626,-3.4389498,-0.7422224,-2.6573002,4.111119
1747679239.3011441,-0.37078395,-1.6904626,-3.4389498,-0.7422224,-2.6573002,4.111119
1747679239.3016636,-0.37078395,-1.6904626,-3.4389498,-0.7422224,-2.6573002,4.111119
1747679239.3021958,-0.37078395,-1.6904626,-3.4389498,-0.7422224,-2.6573002,4.111119
1747679239.3027318,-0.37078395,-1.6904626,-3.4389498,-0.7422224,-2.6573002,4.111119
1747679239.3032668,-0.37078395,-1.6904626,-3.4389498,-0.7422224,-2.6573002,4.111119
1747679239.303798,-0.37078395,-1.6904626,-3.4389498,-0.7422224,-2.6573002,4.111119
1747679239.304332,-0.08718945,-2.1117053,-3.410639,-2.163151,-1.763544,4.822715
1747679239.304855,-0.08718945,-2.1117053,-3.410639,-2.163151,-1.763544,4.822715
1747679239.305374,-0.08718945,-2.1117053,-3.410639,-2.163151,-1.763544,4.822715
1747679239.305892,-0.08718945,-2.1117053,-3.410639,-2.163151,-1.763544,4.822715
1747679239.3064098,-0.08718945,-2.1117053,-3.410639,-2.163151,-1.763544,4.822715
1747679239.3069277,-0.08718945,-2.1117053,-3.410639,-2.163151,-1.763544,4.822715
1747679239.3074508,-0.08718945,-2.1117053,-3.410639,-2.163151,-1.763544,4.822715
1747679239.3080113,-0.08718945,-2.1117053,-3.410639,-2.163151,-1.763544,4.822715
1747679239.3085299,-0.08718945,-2.1117053,-3.410639,-2.163151,-1.763544,4.822715
1747679239.3090484,-0.08718945,-2.1117053,-3.410639,-2.163151,-1.763544,4.822715
1747679239.3095663,-0.08718945,-2.1117053,-3.410639,-2.163151,-1.763544,4.822715
1747679239.3100843,-0.08718945,-2.1117053,-3.410639,-2.163151,-1.763544,4.822715
1747679239.3106024,-0.08718945,-2.1117053,-3.410639,-2.163151,-1.763544,4.822715
1747679239.3111207,-0.08718945,-2.1117053,-3.410639,-2.163151,-1.763544,4.822715
1747679239.3116436,0.20567925,-2.5563776,-3.2383347,-2.163151,-1.763544,4.822715
1747679239.3121657,0.20567925,-2.5563776,-3.2383347,-2.163151,-1.763544,4.822715
1747679239.3126845,0.20567925,-2.5563776,-3.2383347,-2.163151,-1.763544,4.822715
1747679239.313218,0.20567925,-2.5563776,-3.2383347,-4.012449,-1.9073546,5.756951
1747679239.3140008,0.20567925,-2.5563776,-3.2383347,-4.012449,-1.9073546,5.756951
1747679239.3145826,0.20567925,-2.5563776,-3.2383347,-4.012449,-1.9073546,5.756951
1747679239.3151345,0.20567925,-2.5563776,-3.2383347,-4.012449,-1.9073546,5.756951
1747679239.3156765,0.20567925,-2.5563776,-3.2383347,-4.012449,-1.9073546,5.756951
1747679239.3162096,0.20567925,-2.5563776,-3.2383347,-4.012449,-1.9073546,5.756951
1747679239.316733,0.20567925,-2.5563776,-3.2383347,-4.012449,-1.9073546,5.756951
1747679239.317256,0.20567925,-2.5563776,-3.2383347,-4.012449,-1.9073546,5.756951
1747679239.3178635,0.20567925,-2.5563776,-3.2383347,-4.012449,-1.9073546,5.756951
1747679239.3204465,0.20567925,-2.5563776,-3.2383347,-4.012449,-1.9073546,5.756951
1747679239.320998,0.20567925,-2.5563776,-3.2383347,-4.012449,-1.9073546,5.756951
1747679239.3215325,0.20567925,-2.5563776,-3.2383347,-4.012449,-1.9073546,5.756951
1747679239.3220646,0.20567925,-2.5563776,-3.2383347,-4.012449,-1.9073546,5.756951
1747679239.3225968,0.20567925,-2.5563776,-3.2383347,-4.012449,-1.9073546,5.756951
1747679239.3231282,0.20567925,-2.5563776,-3.2383347,-4.012449,-1.9073546,5.756951
1747679239.3236656,0.20567925,-2.5563776,-3.2383347,-4.012449,-1.9073546,5.756951
1747679239.32421,0.20567925,-2.5563776,-3.2383347,-4.012449,-1.9073546,5.756951
1747679239.3247523,0.20567925,-2.5563776,-3.2383347,-4.012449,-1.9073546,5.756951
1747679239.3252928,0.20567925,-2.5563776,-3.2383347,-4.012449,-1.9073546,5.756951
1747679239.3258333,0.20567925,-2.5563776,-3.2383347,-4.012449,-1.9073546,5.756951
1747679239.3263736,0.20567925,-2.5563776,-3.2383347,-4.012449,-1.9073546,5.756951
1747679239.3269138,0.20567925,-2.5563776,-3.2383347,-4.012449,-1.9073546,5.756951
1747679239.3274539,0.20567925,-2.5563776,-3.2383347,-4.012449,-1.9073546,5.756951
1747679239.3279972,0.20567925,-2.5563776,-3.2383347,-4.012449,-1.9073546,5.756951
1747679239.3285437,0.20567925,-2.5563776,-3.2383347,-4.012449,-1.9073546,5.756951
1747679239.3296955,0.20567925,-2.5563776,-3.2383347,-4.012449,-1.9073546,5.756951
1747679239.33025,0.20567925,-2.5563776,-3.2383347,-4.012449,-1.9073546,5.756951
1747679239.3310301,0.7938572,-3.0278962,-2.8619983,-7.245524,-4.010185,7.1492505
1747679239.3315842,1.8110877,-3.7146735,-2.4602802,-7.245524,-4.010185,7.1492505
1747679239.3321173,1.8110877,-3.7146735,-2.4602802,-7.245524,-4.010185,7.1492505
1747679239.3326368,1.8110877,-3.7146735,-2.4602802,-7.245524,-4.010185,7.1492505
1747679239.3332088,1.8110877,-3.7146735,-2.4602802,-7.245524,-4.010185,7.1492505
1747679239.333756,1.8110877,-3.7146735,-2.4602802,-7.245524,-4.010185,7.1492505
1747679239.3342957,1.8110877,-3.7146735,-2.4602802,-7.245524,-4.010185,7.1492505
1747679239.3348172,1.8110877,-3.7146735,-2.4602802,-7.245524,-4.010185,7.1492505
1747679239.3353357,1.8110877,-3.7146735,-2.4602802,-7.245524,-4.010185,7.1492505
1747679239.3358538,1.8110877,-3.7146735,-2.4602802,-7.245524,-4.010185,7.1492505
1747679239.3363721,1.8110877,-3.7146735,-2.4602802,-7.245524,-4.010185,7.1492505
1747679239.3368905,1.8110877,-3.7146735,-2.4602802,-7.245524,-4.010185,7.1492505
1747679239.3374085,1.8110877,-3.7146735,-2.4602802,-7.245524,-4.010185,7.1492505
1747679239.3379266,1.8110877,-3.7146735,-2.4602802,-7.245524,-4.010185,7.1492505
1747679239.3384447,1.8110877,-3.7146735,-2.4602802,-7.245524,-4.010185,7.1492505
1747679239.3389647,1.8110877,-3.7146735,-2.4602802,-7.245524,-4.010185,7.1492505
1747679239.33949,1.8110877,-3.7146735,-2.4602802,-7.245524,-4.010185,7.1492505
1747679239.3400116,1.8110877,-3.7146735,-2.4602802,-7.245524,-4.010185,7.1492505
