timestamp,acc_x,acc_y,acc_z,gyro_x,gyro_y,gyro_z
1747672493.7914846,-0.012996048,0.9297361,0.2838996,0.35047174,-0.31585068,-0.5822997
1747672493.7924564,-0.012996048,0.9297361,0.2838996,0.35047174,-0.31585068,-0.5822997
1747672493.7931747,-0.012996048,0.9297361,0.2838996,0.35047174,-0.31585068,-0.5822997
1747672493.7938933,-0.012996048,0.9297361,0.2838996,0.35047174,-0.31585068,-0.5822997
1747672493.7946246,-0.012996048,0.9297361,0.2838996,0.35047174,-0.31585068,-0.5822997
1747672493.795337,-0.012996048,0.9297361,0.2838996,0.35047174,-0.31585068,-0.5822997
1747672493.7960489,-0.012996048,0.9297361,0.2838996,0.35047174,-0.31585068,-0.5822997
1747672493.7969446,-0.21214676,0.94926065,0.2404574,0.35047174,-0.31585068,-0.5822997
1747672493.7983003,-0.21214676,0.94926065,0.2404574,0.35047174,-0.31585068,-0.5822997
1747672493.7990625,-0.21214676,0.94926065,0.2404574,0.19707377,-0.29561067,-0.45553336
1747672493.8480737,0.27401528,0.9726901,0.58701867,0.08415583,-0.16777903,-0.29893962
1747672493.8501472,0.27401528,0.9726901,0.58701867,0.08415583,-0.16777903,-0.29893962
1747672493.852551,0.27401528,0.9726901,0.58701867,0.08415583,-0.16777903,-0.29893962
1747672493.85333,0.28231323,0.97366637,0.5836019,0.19387798,0.02609896,-0.49281758
1747672493.8540719,0.28231323,0.97366637,0.5836019,0.19387798,0.02609896,-0.49281758
1747672493.8548837,0.28231323,0.97366637,0.5836019,0.19387798,0.02609896,-0.49281758
1747672493.8557029,0.28231323,0.97366637,0.5836019,0.19387798,0.02609896,-0.49281758
1747672493.8564506,0.28231323,0.97366637,0.5836019,0.19387798,0.02609896,-0.49281758
1747672493.857181,0.28231323,0.97366637,0.5836019,0.19387798,0.02609896,-0.49281758
1747672493.8579285,0.28231323,0.97366637,0.5836019,0.19387798,0.02609896,-0.49281758
1747672493.8586526,0.28231323,0.97366637,0.5836019,0.19387798,0.02609896,-0.49281758
1747672493.8593805,0.28231323,0.97366637,0.5836019,0.19387798,0.02609896,-0.49281758
1747672493.860081,0.28231323,0.97366637,0.5836019,0.19387798,0.02609896,-0.49281758
1747672493.8610501,0.28231323,0.97366637,0.5836019,0.19387798,0.02609896,-0.49281758
1747672493.86194,0.28231323,0.97366637,0.5836019,0.19387798,0.02609896,-0.49281758
1747672493.8627248,0.28231323,0.97366637,0.5836019,0.19387798,0.02609896,-0.49281758
1747672493.8984609,-0.23069511,0.96634465,0.37224832,0.371777,-0.0047936863,-0.53010184
1747672493.9003518,-0.341009,0.9897742,0.32587746,0.42397493,-0.35739595,-0.34581122
1747672493.901144,-0.341009,0.9897742,0.32587746,0.42397493,-0.35739595,-0.34581122
1747672493.901886,-0.341009,0.9897742,0.32587746,0.42397493,-0.35739595,-0.34581122
1747672493.9026456,-0.341009,0.9897742,0.32587746,0.42397493,-0.35739595,-0.34581122
1747672493.9034069,-0.341009,0.9897742,0.32587746,0.42397493,-0.35739595,-0.34581122
1747672493.936876,-0.122821815,0.9946554,0.18041931,0.68922555,-0.5139897,-0.11571426
1747672493.9380217,-0.122821815,0.9946554,0.18041931,0.68922555,-0.5139897,-0.11571426
1747672493.9390771,-0.122821815,0.9946554,0.18041931,0.68922555,-0.5139897,-0.11571426
1747672493.9400399,-0.122821815,0.9946554,0.18041931,0.68922555,-0.5139897,-0.11571426
1747672493.9408405,-0.122821815,0.9946554,0.18041931,0.68922555,-0.5139897,-0.11571426
1747672493.9416249,-0.122821815,0.9946554,0.18041931,0.68922555,-0.5139897,-0.11571426
1747672493.9423757,-0.122821815,0.9946554,0.18041931,0.68922555,-0.5139897,-0.11571426
1747672493.9782546,-0.12770295,1.0503004,0.11550009,0.4250402,-0.27750117,-0.008122635
1747672493.9790273,-0.12770295,1.0503004,0.11550009,0.4250402,-0.27750117,-0.008122635
1747672493.9798188,-0.12770295,1.0503004,0.11550009,0.4250402,-0.27750117,-0.008122635
1747672493.9806495,-0.12770295,1.0503004,0.11550009,0.4250402,-0.27750117,-0.008122635
1747672493.9813828,-0.12770295,1.0503004,0.11550009,0.4250402,-0.27750117,-0.008122635
1747672493.9820874,-0.12770295,1.0503004,0.11550009,0.4250402,-0.27750117,-0.008122635
1747672493.9827974,-0.12770295,1.0503004,0.11550009,0.4250402,-0.27750117,-0.008122635
1747672493.983566,-0.12770295,1.0503004,0.11550009,0.4250402,-0.27750117,-0.008122635
1747672493.9842994,-0.12770295,1.0503004,0.11550009,0.4250402,-0.27750117,-0.008122635
1747672493.9850206,-0.12770295,1.0503004,0.11550009,0.4250402,-0.27750117,-0.008122635
1747672493.9857318,-0.13111974,1.0556695,0.11550009,0.4250402,-0.27750117,-0.008122635
1747672493.9868793,-0.13111974,1.0556695,0.11550009,0.43036652,-0.26045695,-0.06671213
1747672493.9876666,-0.13111974,1.0556695,0.11550009,0.43036652,-0.26045695,-0.06671213
1747672494.0230637,-0.34686634,0.9521893,0.022758339,0.5123918,-0.7078677,-0.09547425
1747672494.024234,-0.3654147,0.91362834,0.0032337585,0.5123918,-0.7078677,-0.09547425
1747672494.0250432,-0.3654147,0.91362834,0.0032337585,0.5123918,-0.7078677,-0.09547425
1747672494.0257838,-0.3654147,0.91362834,0.0032337585,0.5123918,-0.7078677,-0.09547425
1747672494.0265214,-0.3654147,0.91362834,0.0032337585,0.5123918,-0.7078677,-0.09547425
1747672494.0272396,-0.3654147,0.91362834,0.0032337585,0.5123918,-0.7078677,-0.09547425
1747672494.0279343,-0.3654147,0.91362834,0.0032337585,0.5123918,-0.7078677,-0.09547425
1747672494.028636,-0.3654147,0.91362834,0.0032337585,0.5123918,-0.7078677,-0.09547425
1747672494.0293708,-0.3654147,0.91362834,0.0032337585,0.5123918,-0.7078677,-0.09547425
1747672494.0300884,-0.3654147,0.91362834,0.0032337585,0.5123918,-0.7078677,-0.09547425
1747672494.0307825,-0.3654147,0.91362834,0.0032337585,0.5123918,-0.7078677,-0.09547425
1747672494.0315435,-0.3654147,0.91362834,0.0032337585,0.5123918,-0.7078677,-0.09547425
1747672494.032274,-0.3654147,0.91362834,0.0032337585,0.5123918,-0.7078677,-0.09547425
1747672494.033083,-0.3654147,0.91362834,0.0032337585,0.5123918,-0.7078677,-0.09547425
1747672494.0340123,-0.311234,0.88775826,0.0110435905,0.4165181,-0.8335688,0.14421007
1747672494.059851,-0.2404574,0.8457804,0.05009275,0.37390754,-0.7781751,0.2134522
1747672494.0606878,-0.2101943,0.7896472,0.122821815,0.38562545,-0.672714,0.2518017
1747672494.0614274,-0.2101943,0.7896472,0.122821815,0.38562545,-0.672714,0.2518017
1747672494.0621588,-0.2101943,0.7896472,0.122821815,0.38562545,-0.672714,0.2518017
1747672494.0629225,-0.2101943,0.7896472,0.122821815,0.38562545,-0.672714,0.2518017
1747672494.0636346,-0.2101943,0.7896472,0.122821815,0.38562545,-0.672714,0.2518017
1747672494.064404,-0.2101943,0.7896472,0.122821815,0.38562545,-0.672714,0.2518017
1747672494.065176,-0.2101943,0.7896472,0.122821815,0.38562545,-0.672714,0.2518017
1747672494.0906196,-0.16431154,0.66908294,0.24924345,0.60293925,-0.5235771,0.3221091
1747672494.0917203,-0.16431154,0.55828094,0.24338609,0.8532762,-0.5523392,0.3721765
1747672494.0925083,-0.16431154,0.55828094,0.24338609,0.8532762,-0.5523392,0.3721765
1747672494.0932624,-0.16431154,0.55828094,0.24338609,0.8532762,-0.5523392,0.3721765
1747672494.0939825,-0.16431154,0.55828094,0.24338609,0.8532762,-0.5523392,0.3721765
1747672494.0947065,-0.16431154,0.55828094,0.24338609,0.8532762,-0.5523392,0.3721765
1747672494.0954564,-0.16431154,0.55828094,0.24338609,0.8532762,-0.5523392,0.3721765
1747672494.0962226,-0.16431154,0.55828094,0.24338609,0.8532762,-0.5523392,0.3721765
1747672494.0969796,-0.16431154,0.55828094,0.24338609,1.1898994,-0.9102678,0.4744418
1747672494.1216495,-0.23313569,0.38255972,0.08474888,1.4551501,-1.4684659,0.6065345
1747672494.1224642,-0.24777912,0.28884175,0.001769415,1.6756597,-2.083123,0.802543
1747672494.12322,-0.24777912,0.28884175,0.001769415,1.6756597,-2.083123,0.802543
1747672494.1239955,-0.24777912,0.28884175,0.001769415,1.6756597,-2.083123,0.802543
1747672494.1247814,-0.1867648,0.15021724,-0.10268708,1.8397104,-2.6860623,1.0997516
1747672494.125505,-0.1867648,0.15021724,-0.10268708,1.8397104,-2.6860623,1.0997516
1747672494.1262097,-0.1867648,0.15021724,-0.10268708,1.8397104,-2.6860623,1.0997516
1747672494.126979,-0.1867648,0.15021724,-0.10268708,1.8397104,-2.6860623,1.0997516
1747672494.1277401,-0.1867648,0.15021724,-0.10268708,1.8397104,-2.6860623,1.0997516
1747672494.128481,-0.1867648,0.15021724,-0.10268708,1.8397104,-2.6860623,1.0997516
1747672494.1531172,-0.0066505605,-0.091887556,-0.3618759,1.7299881,-3.0855362,1.5418359
1747672494.1542006,0.052899405,-0.20317766,-0.57664627,1.29323,-2.9172244,1.8315877
1747672494.1549973,0.052899405,-0.20317766,-0.57664627,1.29323,-2.9172244,1.8315877
1747672494.155741,0.052899405,-0.20317766,-0.57664627,1.29323,-2.9172244,1.8315877
1747672494.1564562,0.052899405,-0.20317766,-0.57664627,1.29323,-2.9172244,1.8315877
1747672494.157137,0.052899405,-0.20317766,-0.57664627,1.29323,-2.9172244,1.8315877
1747672494.157815,0.052899405,-0.20317766,-0.57664627,1.29323,-2.9172244,1.8315877
1747672494.1585624,0.052899405,-0.20317766,-0.57664627,1.29323,-2.9172244,1.8315877
1747672494.159366,0.052899405,-0.20317766,-0.57664627,1.29323,-2.9172244,1.8315877
1747672494.1841846,0.07437645,-0.31397966,-0.6986749,0.6945519,-2.551839,2.1511667
1747672494.1850984,0.1637014,-0.48823652,-0.7450458,-0.0585895,-2.1001673,2.567685
1747672494.185857,0.1637014,-0.48823652,-0.7450458,-0.0585895,-2.1001673,2.567685
1747672494.1865938,0.1637014,-0.48823652,-0.7450458,-0.0585895,-2.1001673,2.567685
1747672494.187393,0.1637014,-0.48823652,-0.7450458,-0.0585895,-2.1001673,2.567685
1747672494.1881127,0.1637014,-0.48823652,-0.7450458,-0.0585895,-2.1001673,2.567685
1747672494.1888,0.1637014,-0.48823652,-0.7450458,-0.0585895,-2.1001673,2.567685
1747672494.189571,0.1637014,-0.48823652,-0.7450458,-0.0585895,-2.1001673,2.567685
1747672494.1903813,0.1637014,-0.48823652,-0.7450458,-0.0585895,-2.1001673,2.567685
1747672494.2149646,0.1637014,-0.48823652,-0.7450458,-0.0585895,-2.1001673,2.567685
1747672494.2157824,0.1637014,-0.48823652,-0.7450458,-0.0585895,-2.1001673,2.567685
1747672494.2165647,0.1637014,-0.48823652,-0.7450458,-0.0585895,-2.1001673,2.567685
1747672494.2172952,0.1637014,-0.48823652,-0.7450458,-0.0585895,-2.1001673,2.567685
1747672494.2180352,0.1637014,-0.48823652,-0.7450458,-0.0585895,-2.1001673,2.567685
1747672494.21876,0.1637014,-0.48823652,-0.7450458,-0.0585895,-2.1001673,2.567685
1747672494.2194443,0.1637014,-0.48823652,-0.7450458,-0.0585895,-2.1001673,2.567685
1747672494.2202094,0.1637014,-0.48823652,-0.7450458,-0.0585895,-2.1001673,2.567685
1747672494.2210112,0.1637014,-0.48823652,-0.7450458,-0.0585895,-2.1001673,2.567685
1747672494.2217693,0.1637014,-0.48823652,-0.7450458,-0.0585895,-2.1001673,2.567685
1747672494.2479398,0.1637014,-0.48823652,-0.7450458,-0.0585895,-2.1001673,2.567685
1747672494.2487428,0.1637014,-0.48823652,-0.7450458,-0.0585895,-2.1001673,2.567685
1747672494.249525,0.1637014,-0.48823652,-0.7450458,-0.0585895,-2.1001673,2.567685
1747672494.250292,0.1637014,-0.48823652,-0.7450458,-0.0585895,-2.1001673,2.567685
1747672494.2510636,0.1637014,-0.48823652,-0.7450458,-0.0585895,-2.1001673,2.567685
1747672494.2518134,0.1637014,-0.48823652,-0.7450458,-0.0585895,-2.1001673,2.567685
1747672494.2525294,0.1637014,-0.48823652,-0.7450458,-0.0585895,-2.1001673,2.567685
1747672494.2533286,0.1637014,-0.48823652,-0.7450458,-0.0585895,-2.1001673,2.567685
1747672494.2838712,0.6835433,-1.1008202,-0.35357794,-1.9973693,-1.1627352,3.4784853
1747672494.2847102,0.7338191,-1.3756287,0.31709138,-2.2008348,-1.0412952,4.832435
1747672494.2855117,0.7338191,-1.3756287,0.31709138,-2.2008348,-1.0412952,4.832435
1747672494.2862515,0.7338191,-1.3756287,0.31709138,-2.2008348,-1.0412952,4.832435
1747672494.2870054,0.7338191,-1.3756287,0.31709138,-2.2008348,-1.0412952,4.832435
1747672494.2877462,0.7338191,-1.3756287,0.31709138,-2.2008348,-1.0412952,4.832435
1747672494.2884448,0.7338191,-1.3756287,0.31709138,-2.2008348,-1.0412952,4.832435
1747672494.289138,0.7338191,-1.3756287,0.31709138,-2.2008348,-1.0412952,4.832435
1747672494.289839,0.7338191,-1.3756287,0.31709138,-2.2008348,-1.0412952,4.832435
1747672494.2905636,0.7338191,-1.3756287,0.31709138,-2.2008348,-1.0412952,4.832435
1747672494.2912614,0.7338191,-1.3756287,0.31709138,-2.2008348,-1.0412952,4.832435
1747672494.2917829,0.7338191,-1.3756287,0.31709138,-2.2008348,-1.0412952,4.832435
1747672494.29252,0.7338191,-1.3756287,0.31709138,-2.2008348,-1.0412952,4.832435
1747672494.2932446,0.7338191,-1.3756287,0.31709138,-2.2008348,-1.0412952,4.832435
1747672494.2939358,0.7338191,-1.3756287,0.31709138,-2.2008348,-1.0412952,4.832435
1747672494.2946312,0.7338191,-1.3756287,0.31709138,-2.2008348,-1.0412952,4.832435
1747672494.2953796,0.7338191,-1.3756287,0.31709138,-2.2008348,-1.0412952,4.832435
1747672494.2961068,0.7338191,-1.3756287,0.31709138,-2.2008348,-1.0412952,4.832435
1747672494.296799,0.7338191,-1.3756287,0.31709138,-2.2008348,-1.0412952,4.832435
1747672494.2975137,0.7338191,-1.3756287,0.31709138,-2.2008348,-1.0412952,4.832435
1747672494.298284,0.7338191,-1.3756287,0.31709138,-2.2008348,-1.0412952,4.832435
1747672494.2992074,0.7338191,-1.3756287,0.31709138,-2.2008348,-1.0412952,4.832435
1747672494.2999926,0.7338191,-1.3756287,0.31709138,-2.2008348,-1.0412952,4.832435
1747672494.303105,0.7338191,-1.3756287,0.31709138,-2.2008348,-1.0412952,4.832435
1747672494.3087957,0.7338191,-1.3756287,0.31709138,-2.2008348,-1.0412952,4.832435
1747672494.312978,0.7338191,-1.3756287,0.31709138,-2.2008348,-1.0412952,4.832435
1747672494.3253162,0.7338191,-1.3756287,0.31709138,-2.2008348,-1.0412952,4.832435
1747672494.3306088,0.7338191,-1.3756287,0.31709138,-2.2008348,-1.0412952,4.832435
1747672494.331618,0.7338191,-1.3756287,0.31709138,-2.2008348,-1.0412952,4.832435
1747672494.3324072,0.7338191,-1.3756287,0.31709138,-2.2008348,-1.0412952,4.832435
1747672494.3331623,0.7338191,-1.3756287,0.31709138,-2.2008348,-1.0412952,4.832435
1747672494.3339002,0.7338191,-1.3756287,0.31709138,-2.2008348,-1.0412952,4.832435
1747672494.334638,0.7338191,-1.3756287,0.31709138,-2.2008348,-1.0412952,4.832435
1747672494.3353832,0.7338191,-1.3756287,0.31709138,-2.2008348,-1.0412952,4.832435
1747672494.3361344,0.7338191,-1.3756287,0.31709138,-2.2008348,-1.0412952,4.832435
1747672494.3368595,0.7338191,-1.3756287,0.31709138,-2.2008348,-1.0412952,4.832435
1747672494.3375707,0.7338191,-1.3756287,0.31709138,-2.2008348,-1.0412952,4.832435
1747672494.3382537,0.7338191,-1.3756287,0.31709138,-2.2008348,-1.0412952,4.832435
1747672494.3389633,0.7338191,-1.3756287,0.31709138,-2.2008348,-1.0412952,4.832435
1747672494.3397133,0.7338191,-1.3756287,0.31709138,-2.2008348,-1.0412952,4.832435
1747672494.3404784,0.7338191,-1.3756287,0.31709138,-2.2008348,-1.0412952,4.832435
1747672494.3412228,0.7338191,-1.3756287,0.31709138,-2.2008348,-1.0412952,4.832435
1747672494.3419368,0.7338191,-1.3756287,0.31709138,-2.2008348,-1.0412952,4.832435
1747672494.3426309,0.7338191,-1.3756287,0.31709138,-2.2008348,-1.0412952,4.832435
1747672494.343327,0.7338191,-1.3756287,0.31709138,-2.2008348,-1.0412952,4.832435
1747672494.3440547,0.7338191,-1.3756287,0.31709138,-2.2008348,-1.0412952,4.832435
1747672494.344783,0.7338191,-1.3756287,0.31709138,-2.2008348,-1.0412952,4.832435
1747672494.3455625,0.7338191,-1.3756287,0.31709138,-2.2008348,-1.0412952,4.832435
1747672494.346329,0.7338191,-1.3756287,0.31709138,-2.2008348,-1.0412952,4.832435
1747672494.376338,0.7338191,-1.3756287,0.31709138,-2.2008348,-1.0412952,4.832435
1747672494.3773117,0.7338191,-1.3756287,0.31709138,-2.2008348,-1.0412952,4.832435
1747672494.3781226,0.7338191,-1.3756287,0.31709138,-2.2008348,-1.0412952,4.832435
1747672494.378996,0.7338191,-1.3756287,0.31709138,-2.2008348,-1.0412952,4.832435
1747672494.3797753,0.7338191,-1.3756287,0.31709138,-2.2008348,-1.0412952,4.832435
1747672494.380527,0.7338191,-1.3756287,0.31709138,-2.2008348,-1.0412952,4.832435
1747672494.3812404,0.7338191,-1.3756287,0.31709138,-2.2008348,-1.0412952,4.832435
1747672494.3819387,0.7338191,-1.3756287,0.31709138,-2.2008348,-1.0412952,4.832435
1747672494.382641,0.7338191,-1.3756287,0.31709138,-2.2008348,-1.0412952,4.832435
1747672494.383378,0.7338191,-1.3756287,0.31709138,-2.2008348,-1.0412952,4.832435
1747672494.3841023,0.7338191,-1.3756287,0.31709138,-2.2008348,-1.0412952,4.832435
1747672494.384817,0.7338191,-1.3756287,0.31709138,-2.2008348,-1.0412952,4.832435
1747672494.3855498,0.7338191,-1.3756287,0.31709138,-2.2008348,-1.0412952,4.832435
1747672494.3862858,0.7338191,-1.3756287,0.31709138,-2.2008348,-1.0412952,4.832435
1747672494.3869843,0.7338191,-1.3756287,0.31709138,-2.2008348,-1.0412952,4.832435
1747672494.387814,0.7338191,-1.3756287,0.31709138,-2.2008348,-1.0412952,4.832435
1747672494.3885174,0.7338191,-1.3756287,0.31709138,-2.2008348,-1.0412952,4.832435
1747672494.3892353,0.7338191,-1.3756287,0.31709138,-2.2008348,-1.0412952,4.832435
1747672494.389931,0.7338191,-1.3756287,0.31709138,-2.2008348,-1.0412952,4.832435
1747672494.3906734,0.7338191,-1.3756287,0.31709138,-2.2008348,-1.0412952,4.832435
1747672494.3913934,0.7338191,-1.3756287,0.31709138,-2.2008348,-1.0412952,4.832435
1747672494.3919122,0.7338191,-1.3756287,0.31709138,-2.2008348,-1.0412952,4.832435
1747672494.3926382,0.7338191,-1.3756287,0.31709138,-2.2008348,-1.0412952,4.832435
1747672494.393384,0.7338191,-1.3756287,0.31709138,-2.2008348,-1.0412952,4.832435
1747672494.394148,0.7338191,-1.3756287,0.31709138,-2.2008348,-1.0412952,4.832435
1747672494.412754,0.7338191,-1.3756287,0.31709138,-2.2008348,-1.0412952,4.832435
1747672494.4166248,0.7338191,-1.3756287,0.31709138,-2.2008348,-1.0412952,4.832435
1747672494.4224992,0.7338191,-1.3756287,0.31709138,-2.2008348,-1.0412952,4.832435
1747672494.4233406,0.7338191,-1.3756287,0.31709138,-2.2008348,-1.0412952,4.832435
1747672494.4243028,0.7338191,-1.3756287,0.31709138,-2.2008348,-1.0412952,4.832435
1747672494.4250596,0.7338191,-1.3756287,0.31709138,-2.2008348,-1.0412952,4.832435
1747672494.4258065,0.7338191,-1.3756287,0.31709138,-2.2008348,-1.0412952,4.832435
1747672494.426614,0.7338191,-1.3756287,0.31709138,-2.2008348,-1.0412952,4.832435
1747672494.4273667,0.7338191,-1.3756287,0.31709138,-2.2008348,-1.0412952,4.832435
1747672494.4280894,0.7338191,-1.3756287,0.31709138,-2.2008348,-1.0412952,4.832435
1747672494.443539,0.7338191,-1.3756287,0.31709138,-2.2008348,-1.0412952,4.832435
1747672494.445775,0.7338191,-1.3756287,0.31709138,-2.2008348,-1.0412952,4.832435
1747672494.4477513,0.7338191,-1.3756287,0.31709138,-2.2008348,-1.0412952,4.832435
1747672494.4492896,0.7338191,-1.3756287,0.31709138,-2.2008348,-1.0412952,4.832435
1747672494.4505064,0.7338191,-1.3756287,0.31709138,-2.2008348,-1.0412952,4.832435
1747672494.4512968,0.7338191,-1.3756287,0.31709138,-2.2008348,-1.0412952,4.832435
1747672494.4532514,0.7338191,-1.3756287,0.31709138,-2.2008348,-1.0412952,4.832435
1747672494.4542184,0.7338191,-1.3756287,0.31709138,-2.2008348,-1.0412952,4.832435
1747672494.4555273,0.7338191,-1.3756287,0.31709138,-2.2008348,-1.0412952,4.832435
1747672494.4562917,0.7338191,-1.3756287,0.31709138,-2.2008348,-1.0412952,4.832435
1747672494.4574616,0.7338191,-1.3756287,0.31709138,-2.2008348,-1.0412952,4.832435
1747672494.4584224,0.7338191,-1.3756287,0.31709138,-2.2008348,-1.0412952,4.832435
1747672494.4592571,0.7338191,-1.3756287,0.31709138,-2.2008348,-1.0412952,4.832435
1747672494.4600933,0.7338191,-1.3756287,0.31709138,-2.2008348,-1.0412952,4.832435
1747672494.460872,0.7338191,-1.3756287,0.31709138,-2.2008348,-1.0412952,4.832435
1747672494.4616957,0.7338191,-1.3756287,0.31709138,-2.2008348,-1.0412952,4.832435
1747672494.462447,0.7338191,-1.3756287,0.31709138,-2.2008348,-1.0412952,4.832435
1747672494.463201,0.7338191,-1.3756287,0.31709138,-2.2008348,-1.0412952,4.832435
1747672494.4652019,0.7338191,-1.3756287,0.31709138,-2.2008348,-1.0412952,4.832435
1747672494.4660714,0.7338191,-1.3756287,0.31709138,-2.2008348,-1.0412952,4.832435
1747672494.4668982,0.7338191,-1.3756287,0.31709138,-2.2008348,-1.0412952,4.832435
1747672494.4678206,0.7338191,-1.3756287,0.31709138,-2.2008348,-1.0412952,4.832435
1747672494.4687166,0.7338191,-1.3756287,0.31709138,-2.2008348,-1.0412952,4.832435
1747672494.469591,0.7338191,-1.3756287,0.31709138,-2.2008348,-1.0412952,4.832435
1747672494.475058,0.7338191,-1.3756287,0.31709138,-2.2008348,-1.0412952,4.832435
1747672494.475882,0.7338191,-1.3756287,0.31709138,-2.2008348,-1.0412952,4.832435
1747672494.4766483,0.7338191,-1.3756287,0.31709138,-2.2008348,-1.0412952,4.832435
1747672494.4774199,0.7338191,-1.3756287,0.31709138,-2.2008348,-1.0412952,4.832435
1747672494.478185,0.7338191,-1.3756287,0.31709138,-2.2008348,-1.0412952,4.832435
1747672494.479002,0.7338191,-1.3756287,0.31709138,-2.2008348,-1.0412952,4.832435
1747672494.4801006,0.7338191,-1.3756287,0.31709138,-2.2008348,-1.0412952,4.832435
1747672494.4810667,0.7338191,-1.3756287,0.31709138,-2.2008348,-1.0412952,4.832435
1747672494.482251,0.7338191,-1.3756287,0.31709138,-2.2008348,-1.0412952,4.832435
1747672494.4853094,0.7338191,-1.3756287,0.31709138,-2.2008348,-1.0412952,4.832435
1747672494.4900565,0.7338191,-1.3756287,0.31709138,-2.2008348,-1.0412952,4.832435
1747672494.4908206,0.7338191,-1.3756287,0.31709138,-2.2008348,-1.0412952,4.832435
1747672494.4916322,0.7338191,-1.3756287,0.31709138,-2.2008348,-1.0412952,4.832435
1747672494.4921708,0.7338191,-1.3756287,0.31709138,-2.2008348,-1.0412952,4.832435
1747672494.4929457,0.7338191,-1.3756287,0.31709138,-2.2008348,-1.0412952,4.832435
1747672494.4937263,0.7338191,-1.3756287,0.31709138,-2.2008348,-1.0412952,4.832435
1747672494.4945831,0.7338191,-1.3756287,0.31709138,-2.2008348,-1.0412952,4.832435
1747672494.4955218,0.7338191,-1.3756287,0.31709138,-2.2008348,-1.0412952,4.832435
1747672494.496281,0.7338191,-1.3756287,0.31709138,-2.2008348,-1.0412952,4.832435
1747672494.4970365,0.7338191,-1.3756287,0.31709138,-2.2008348,-1.0412952,4.832435
1747672494.4977736,0.7338191,-1.3756287,0.31709138,-2.2008348,-1.0412952,4.832435
1747672494.4985666,0.7338191,-1.3756287,0.31709138,-2.2008348,-1.0412952,4.832435
1747672494.4993398,0.7338191,-1.3756287,0.31709138,-2.2008348,-1.0412952,4.832435
1747672494.5000842,0.7338191,-1.3756287,0.31709138,-2.2008348,-1.0412952,4.832435
1747672494.5008445,0.7338191,-1.3756287,0.31709138,-2.2008348,-1.0412952,4.832435
1747672494.5015862,0.7338191,-1.3756287,0.31709138,-2.2008348,-1.0412952,4.832435
1747672494.5023246,0.7338191,-1.3756287,0.31709138,-2.2008348,-1.0412952,4.832435
1747672494.5030918,0.7338191,-1.3756287,0.31709138,-2.2008348,-1.0412952,4.832435
1747672494.5055583,0.7338191,-1.3756287,0.31709138,-2.2008348,-1.0412952,4.832435
1747672494.5066154,0.7338191,-1.3756287,0.31709138,-2.2008348,-1.0412952,4.832435
1747672494.5074742,0.7338191,-1.3756287,0.31709138,-2.2008348,-1.0412952,4.832435
1747672494.5082395,0.7338191,-1.3756287,0.31709138,-2.2008348,-1.0412952,4.832435
1747672494.520672,0.7338191,-1.3756287,0.31709138,-2.2008348,-1.0412952,4.832435
1747672494.5215054,0.7338191,-1.3756287,0.31709138,-2.2008348,-1.0412952,4.832435
1747672494.5222867,0.7338191,-1.3756287,0.31709138,-2.2008348,-1.0412952,4.832435
1747672494.523051,0.7338191,-1.3756287,0.31709138,-2.2008348,-1.0412952,4.832435
1747672494.5238543,0.7338191,-1.3756287,0.31709138,-2.2008348,-1.0412952,4.832435
1747672494.5246258,0.93687475,-1.6767954,0.32050818,-2.2008348,-1.0412952,4.832435
1747672494.5253866,0.93687475,-1.6767954,0.32050818,-2.2008348,-1.0412952,4.832435
1747672494.5262313,0.93687475,-1.6767954,0.32050818,-2.2008348,-1.0412952,4.832435
1747672494.5270069,0.93687475,-1.6767954,0.32050818,-2.2008348,-1.0412952,4.832435
1747672494.5332694,5.01019,-1.8271345,1.1590889,-2.5758076,-1.9883146,9.544096
1747672494.5340261,5.01019,-1.8271345,1.1590889,-2.5758076,-1.9883146,9.544096
1747672494.534822,4.790539,-0.7806171,1.2625692,-2.0900474,-1.9510304,8.355262
1747672494.535611,3.6298025,0.10238201,1.0194881,-2.2434452,0.244478,6.5027685
1747672494.5364175,3.239311,0.7252161,0.4893958,-2.5310664,-0.05805687,4.7301702
1747672494.5372171,3.0875072,1.3475621,-0.05094695,-2.5310664,-0.05805687,4.7301702
1747672494.5380044,1.8520895,1.9967544,0.11061895,-4.4400187,-0.26897907,2.5549016
1747672494.5388122,0.7528556,2.8358233,2.0455048,-4.2077913,0.54914343,1.1775157
1747672494.5395677,0.7528556,2.8358233,2.0455048,-4.2077913,0.54914343,1.1775157
1747672494.540329,0.7528556,2.8358233,2.0455048,-4.2077913,0.54914343,1.1775157
1747672494.5410697,0.7528556,2.8358233,2.0455048,-4.2077913,0.54914343,1.1775157
1747672494.541802,0.7528556,2.8358233,2.0455048,-4.2077913,0.54914343,1.1775157
1747672494.542536,0.90221864,3.1477284,2.5184877,-4.2077913,0.54914343,1.1775157
1747672494.5432444,0.90221864,3.1477284,2.5184877,-2.7643592,0.32224226,0.859002
1747672494.5439699,0.90221864,3.1477284,2.5184877,-2.7643592,0.32224226,0.859002
1747672494.5447948,0.90221864,3.1477284,2.5184877,-2.7643592,0.32224226,0.859002
1747672494.545558,0.90221864,3.1477284,2.5184877,-2.7643592,0.32224226,0.859002
1747672494.5463219,0.90221864,3.1477284,2.5184877,-2.7643592,0.32224226,0.859002
1747672494.547058,0.90221864,3.1477284,2.5184877,-2.7643592,0.32224226,0.859002
1747672494.5477767,0.90221864,3.1477284,2.5184877,-2.7643592,0.32224226,0.859002
1747672494.548549,0.90221864,3.1477284,2.5184877,-2.7643592,0.32224226,0.859002
1747672494.5493066,0.90221864,3.1477284,2.5184877,-2.7643592,0.32224226,0.859002
1747672494.5500448,0.90221864,3.1477284,2.5184877,-2.7643592,0.32224226,0.859002
1747672494.5507586,0.90221864,3.1477284,2.5184877,-2.7643592,0.32224226,0.859002
1747672494.551484,0.90221864,3.1477284,2.5184877,-2.7643592,0.32224226,0.859002
1747672494.5522192,0.90221864,3.1477284,2.5184877,-2.7643592,0.32224226,0.859002
1747672494.5529296,0.90221864,3.1477284,2.5184877,-2.7643592,0.32224226,0.859002
1747672494.5536432,0.90221864,3.1477284,2.5184877,-2.7643592,0.32224226,0.859002
1747672494.5543807,0.90221864,3.1477284,2.5184877,-2.7643592,0.32224226,0.859002
1747672494.555197,1.4474425,3.3024607,2.3325162,-2.7643592,0.32224226,0.859002
1747672494.5559359,1.4474425,3.3024607,2.3325162,-0.9992173,-0.3296991,0.2134522
1747672494.5566397,1.4474425,3.3024607,2.3325162,-0.9992173,-0.3296991,0.2134522
1747672494.5573366,1.4474425,3.3024607,2.3325162,-0.9992173,-0.3296991,0.2134522
1747672494.5580306,1.4474425,3.3024607,2.3325162,-0.9992173,-0.3296991,0.2134522
1747672494.5587254,1.4474425,3.3024607,2.3325162,-0.9992173,-0.3296991,0.2134522
1747672494.559425,1.4474425,3.3024607,2.3325162,-0.9992173,-0.3296991,0.2134522
1747672494.5601428,1.4474425,3.3024607,2.3325162,-0.9992173,-0.3296991,0.2134522
1747672494.5608692,1.4474425,3.3024607,2.3325162,-0.9992173,-0.3296991,0.2134522
1747672494.5616438,1.7842416,3.2804956,1.5442113,-0.9992173,-0.3296991,0.2134522
1747672494.5624046,1.7842416,3.2804956,1.5442113,0.3281012,-1.1137332,-0.7910914
1747672494.5632355,1.7842416,3.2804956,1.5442113,0.3281012,-1.1137332,-0.7910914
1747672494.564053,1.7842416,3.2804956,1.5442113,0.3281012,-1.1137332,-0.7910914
1747672494.5648074,1.7842416,3.2804956,1.5442113,0.3281012,-1.1137332,-0.7910914
1747672494.5655456,1.7842416,3.2804956,1.5442113,0.3281012,-1.1137332,-0.7910914
1747672494.566296,1.7842416,3.2804956,1.5442113,0.3281012,-1.1137332,-0.7910914
1747672494.5670154,1.7842416,3.2804956,1.5442113,0.3281012,-1.1137332,-0.7910914
1747672494.5677574,1.7842416,3.2804956,1.5442113,0.3281012,-1.1137332,-0.7910914
1747672494.56847,1.7842416,3.2804956,1.5442113,0.3281012,-1.1137332,-0.7910914
1747672494.5700526,1.7842416,3.2804956,1.5442113,0.3281012,-1.1137332,-0.7910914
1747672494.5709133,1.7842416,3.2804956,1.5442113,0.3281012,-1.1137332,-0.7910914
1747672494.571904,1.7842416,3.2804956,1.5442113,0.3281012,-1.1137332,-0.7910914
1747672494.572677,1.7842416,3.2804956,1.5442113,0.3281012,-1.1137332,-0.7910914
1747672494.573444,1.7842416,3.2804956,1.5442113,0.3281012,-1.1137332,-0.7910914
1747672494.5742111,1.7842416,3.2804956,1.5442113,0.3281012,-1.1137332,-0.7910914
1747672494.5754461,1.8071828,3.140895,0.7749428,0.75846773,-1.6943018,-1.8137445
1747672494.5762246,1.8071828,3.140895,0.7749428,0.75846773,-1.6943018,-1.8137445
1747672494.5770028,1.8071828,3.140895,0.7749428,0.75846773,-1.6943018,-1.8137445
1747672494.5777822,1.8071828,3.140895,0.7749428,0.75846773,-1.6943018,-1.8137445
1747672494.5787861,1.8071828,3.140895,0.7749428,0.75846773,-1.6943018,-1.8137445
1747672494.579665,1.8071828,3.140895,0.7749428,0.75846773,-1.6943018,-1.8137445
1747672494.5804317,1.8071828,3.140895,0.7749428,0.75846773,-1.6943018,-1.8137445
1747672494.5811934,1.8071828,3.140895,0.7749428,0.75846773,-1.6943018,-1.8137445
1747672494.582003,1.7217629,2.9178264,0.3185557,0.42290968,-1.6644745,-2.6169534
1747672494.58284,1.7217629,2.9178264,0.3185557,0.42290968,-1.6644745,-2.6169534
1747672494.5836236,1.7217629,2.9178264,0.3185557,0.42290968,-1.6644745,-2.6169534
1747672494.5844467,1.7217629,2.9178264,0.3185557,0.42290968,-1.6644745,-2.6169534
1747672494.585262,1.7217629,2.9178264,0.3185557,0.42290968,-1.6644745,-2.6169534
1747672494.5860777,1.7217629,2.9178264,0.3185557,0.42290968,-1.6644745,-2.6169534
1747672494.5868754,1.7217629,2.9178264,0.3185557,0.42290968,-1.6644745,-2.6169534
1747672494.5876637,1.7217629,2.9178264,0.3185557,0.42290968,-1.6644745,-2.6169534
1747672494.588495,1.7217629,2.9178264,0.3185557,0.42290968,-1.6644745,-2.6169534
1747672494.5892947,1.7217629,2.9178264,0.3185557,0.42290968,-1.6644745,-2.6169534
1747672494.590079,1.7217629,2.9178264,0.3185557,0.42290968,-1.6644745,-2.6169534
1747672494.5908961,1.7217629,2.9178264,0.3185557,0.42290968,-1.6644745,-2.6169534
1747672494.5919883,1.7217629,2.9178264,0.3185557,0.42290968,-1.6644745,-2.6169534
1747672494.5929408,1.6680702,2.6015282,0.24240986,-0.36112437,-0.9038762,-3.1847389
1747672494.5948086,1.6680702,2.6015282,0.24240986,-0.36112437,-0.9038762,-3.1847389
1747672494.5957434,1.6680702,2.6015282,0.24240986,-0.36112437,-0.9038762,-3.1847389
1747672494.5965376,1.6680702,2.6015282,0.24240986,-0.36112437,-0.9038762,-3.1847389
1747672494.5973604,1.6680702,2.6015282,0.24240986,-0.36112437,-0.9038762,-3.1847389
1747672494.598149,1.6680702,2.6015282,0.24240986,-0.36112437,-0.9038762,-3.1847389
1747672494.5989175,1.6680702,2.6015282,0.24240986,-0.36112437,-0.9038762,-3.1847389
1747672494.5996742,1.6680702,2.6015282,0.24240986,-0.36112437,-0.9038762,-3.1847389
1747672494.600423,1.6680702,2.6015282,0.24240986,-0.36112437,-0.9038762,-3.1847389
1747672494.6012032,1.6680702,2.6015282,0.24240986,-0.36112437,-0.9038762,-3.1847389
1747672494.6019933,1.6680702,2.6015282,0.24240986,-0.36112437,-0.9038762,-3.1847389
1747672494.6028197,1.7168819,2.2095723,0.6597477,-0.36112437,-0.9038762,-3.1847389
1747672494.6036189,1.7168819,2.2095723,0.6597477,-1.0610026,0.19014956,-3.6001916
1747672494.6043713,1.7168819,2.2095723,0.6597477,-1.0610026,0.19014956,-3.6001916
1747672494.6051092,1.7168819,2.2095723,0.6597477,-1.0610026,0.19014956,-3.6001916
1747672494.6058373,1.7168819,2.2095723,0.6597477,-1.0610026,0.19014956,-3.6001916
1747672494.6065662,1.7168819,2.2095723,0.6597477,-1.0610026,0.19014956,-3.6001916
1747672494.6073275,1.7168819,2.2095723,0.6597477,-1.0610026,0.19014956,-3.6001916
1747672494.608067,1.7168819,2.2095723,0.6597477,-1.0610026,0.19014956,-3.6001916
1747672494.6087685,1.7168819,2.2095723,0.6597477,-1.0610026,0.19014956,-3.6001916
1747672494.609466,1.7168819,2.2095723,0.6597477,-1.0610026,0.19014956,-3.6001916
1747672494.6101635,1.7168819,2.2095723,0.6597477,-1.0610026,0.19014956,-3.6001916
1747672494.6109505,1.7168819,2.2095723,0.6597477,-1.0610026,0.19014956,-3.6001916
1747672494.6116848,1.7168819,2.2095723,0.6597477,-1.0610026,0.19014956,-3.6001916
1747672494.6123898,1.7168819,2.2095723,0.6597477,-1.0610026,0.19014956,-3.6001916
1747672494.6131008,1.7168819,2.2095723,0.6597477,-1.0610026,0.19014956,-3.6001916
1747672494.6137989,1.7168819,2.2095723,0.6597477,-1.0610026,0.19014956,-3.6001916
1747672494.614504,1.7168819,2.2095723,0.6597477,-1.0610026,0.19014956,-3.6001916
1747672494.6152222,1.7168819,2.2095723,0.6597477,-1.0610026,0.19014956,-3.6001916
1747672494.6159482,1.7378706,2.0260413,1.0409652,-1.2367711,0.73236877,-3.8153749
1747672494.6166716,1.7378706,2.0260413,1.0409652,-1.2367711,0.73236877,-3.8153749
1747672494.6173754,1.7378706,2.0260413,1.0409652,-1.2367711,0.73236877,-3.8153749
1747672494.6180983,1.7378706,2.0260413,1.0409652,-1.2367711,0.73236877,-3.8153749
1747672494.6187906,1.7378706,2.0260413,1.0409652,-1.2367711,0.73236877,-3.8153749
1747672494.6195323,1.7378706,2.0260413,1.0409652,-1.2367711,0.73236877,-3.8153749
1747672494.6202385,1.7378706,2.0260413,1.0409652,-1.2367711,0.73236877,-3.8153749
1747672494.6209488,1.7378706,2.0260413,1.0409652,-1.2367711,0.73236877,-3.8153749
1747672494.621745,1.7378706,2.0260413,1.0409652,-1.2367711,0.73236877,-3.8153749
1747672494.622484,1.7378706,2.0260413,1.0409652,-1.2367711,0.73236877,-3.8153749
1747672494.6254683,1.7378706,2.0260413,1.0409652,-1.2367711,0.73236877,-3.8153749
1747672494.6288638,1.7378706,2.0260413,1.0409652,-1.2367711,0.73236877,-3.8153749
1747672494.6308005,1.7378706,2.0260413,1.0409652,-1.2367711,0.73236877,-3.8153749
1747672494.6319208,1.7378706,2.0260413,1.0409652,-1.2367711,0.73236877,-3.8153749
1747672494.6338785,1.7378706,2.0260413,1.0409652,-1.2367711,0.73236877,-3.8153749
1747672494.6349864,1.8540419,1.7419587,1.7428739,-0.9353015,1.2681963,-4.146672
1747672494.636057,1.8540419,1.7419587,1.7428739,-0.9353015,1.2681963,-4.146672
1747672494.6368768,2.2264733,1.4129695,2.071863,-0.09906952,1.5046849,-4.4928827
1747672494.6376774,2.2264733,1.4129695,2.071863,-0.09906952,1.5046849,-4.4928827
1747672494.6385932,2.2264733,1.4129695,2.071863,-0.09906952,1.5046849,-4.4928827
1747672494.6393945,2.2264733,1.4129695,2.071863,-0.09906952,1.5046849,-4.4928827
1747672494.6404326,2.2264733,1.4129695,2.071863,-0.09906952,1.5046849,-4.4928827
1747672494.6419837,2.2264733,1.4129695,2.071863,-0.09906952,1.5046849,-4.4928827
1747672494.6430697,2.2264733,1.4129695,2.071863,-0.09906952,1.5046849,-4.4928827
1747672494.644068,2.2264733,1.4129695,2.071863,-0.09906952,1.5046849,-4.4928827
1747672494.6450377,2.2264733,1.4129695,2.071863,-0.09906952,1.5046849,-4.4928827
1747672494.6460688,2.2264733,1.4129695,2.071863,-0.09906952,1.5046849,-4.4928827
1747672494.6468449,2.2264733,1.4129695,2.071863,-0.09906952,1.5046849,-4.4928827
1747672494.6477244,2.648204,1.1474351,2.2197618,0.73396665,1.6825839,-4.8848996
1747672494.6485312,2.648204,1.1474351,2.2197618,0.73396665,1.6825839,-4.8848996
1747672494.6493247,2.648204,1.1474351,2.2197618,0.73396665,1.6825839,-4.8848996
1747672494.6501074,2.648204,1.1474351,2.2197618,0.73396665,1.6825839,-4.8848996
1747672494.6508918,2.648204,1.1474351,2.2197618,0.73396665,1.6825839,-4.8848996
1747672494.6517787,2.648204,1.1474351,2.2197618,0.73396665,1.6825839,-4.8848996
1747672494.6528034,2.648204,1.1474351,2.2197618,0.73396665,1.6825839,-4.8848996
1747672494.6542354,2.648204,1.1474351,2.2197618,0.73396665,1.6825839,-4.8848996
1747672494.655024,2.648204,1.1474351,2.2197618,0.73396665,1.6825839,-4.8848996
1747672494.6558273,2.648204,1.1474351,2.2197618,0.73396665,1.6825839,-4.8848996
1747672494.6565645,2.648204,1.1474351,2.2197618,0.73396665,1.6825839,-4.8848996
1747672494.6573415,2.648204,1.1474351,2.2197618,0.73396665,1.6825839,-4.8848996
1747672494.6581135,2.648204,1.1474351,2.2197618,0.73396665,1.6825839,-4.8848996
1747672494.658852,2.648204,1.1474351,2.2197618,0.73396665,1.6825839,-4.8848996
1747672494.6595767,2.9645023,0.9189976,2.3198252,0.73396665,1.6825839,-4.8848996
1747672494.6602936,2.9645023,0.9189976,2.3198252,0.73396665,1.6825839,-4.8848996
1747672494.6609938,2.9645023,0.9189976,2.3198252,1.8120135,1.7060198,-5.467599
1747672494.6617079,2.9645023,0.9189976,2.3198252,1.8120135,1.7060198,-5.467599
1747672494.6630695,2.9645023,0.9189976,2.3198252,1.8120135,1.7060198,-5.467599
1747672494.6639688,2.9645023,0.9189976,2.3198252,1.8120135,1.7060198,-5.467599
1747672494.6647944,2.9645023,0.9189976,2.3198252,1.8120135,1.7060198,-5.467599
1747672494.6655831,2.9645023,0.9189976,2.3198252,1.8120135,1.7060198,-5.467599
1747672494.6664371,2.9645023,0.9189976,2.3198252,1.8120135,1.7060198,-5.467599
1747672494.6672926,2.9645023,0.9189976,2.3198252,1.8120135,1.7060198,-5.467599
1747672494.6682358,2.9645023,0.9189976,2.3198252,1.8120135,1.7060198,-5.467599
1747672494.6691372,3.2754312,0.82772017,2.3037174,1.8120135,1.7060198,-5.467599
1747672494.6699188,3.2754312,0.82772017,2.3037174,1.8120135,1.7060198,-5.467599
1747672494.6706886,3.2754312,0.82772017,2.3037174,2.5023043,1.6058849,-5.787178
1747672494.671564,3.2754312,0.82772017,2.3037174,2.5023043,1.6058849,-5.787178
1747672494.6723714,3.2754312,0.82772017,2.3037174,2.5023043,1.6058849,-5.787178
1747672494.677757,3.2754312,0.82772017,2.3037174,2.5023043,1.6058849,-5.787178
1747672494.6786413,3.2754312,0.82772017,2.3037174,2.5023043,1.6058849,-5.787178
1747672494.6794908,3.714246,0.84724474,2.1777837,2.5023043,1.6058849,-5.787178
1747672494.6803658,3.714246,0.84724474,2.1777837,2.5023043,1.6058849,-5.787178
1747672494.6811388,3.714246,0.84724474,2.1777837,2.5023043,1.6058849,-5.787178
1747672494.6821945,3.714246,0.84724474,2.1777837,2.5023043,1.6058849,-5.787178
1747672494.6831572,3.714246,0.84724474,2.1777837,2.5023043,1.6058849,-5.787178
1747672494.684095,3.714246,0.84724474,2.1777837,2.5023043,1.6058849,-5.787178
1747672494.6857266,3.714246,0.84724474,2.1777837,2.5023043,1.6058849,-5.787178
1747672494.6866102,3.714246,0.84724474,2.1777837,2.5023043,1.6058849,-5.787178
1747672494.6874921,4.2262783,0.9370578,1.8180435,3.684747,1.5249249,-6.293178
1747672494.6887622,4.2262783,0.9370578,1.8180435,3.684747,1.5249249,-6.293178
1747672494.6895466,4.2262783,0.9370578,1.8180435,3.684747,1.5249249,-6.293178
1747672494.6903622,4.2262783,0.9370578,1.8180435,3.684747,1.5249249,-6.293178
1747672494.6911452,4.2262783,0.9370578,1.8180435,3.684747,1.5249249,-6.293178
1747672494.6919544,4.2262783,0.9370578,1.8180435,3.684747,1.5249249,-6.293178
1747672494.6924825,4.2262783,0.9370578,1.8180435,3.684747,1.5249249,-6.293178
1747672494.693355,4.2262783,0.9370578,1.8180435,3.684747,1.5249249,-6.293178
1747672494.6941655,5.0014043,1.15134,1.3826454,3.6613111,1.9084198,-6.296374
1747672494.6949925,5.0014043,1.15134,1.3826454,3.6613111,1.9084198,-6.296374
1747672494.6957939,5.0014043,1.15134,1.3826454,3.6613111,1.9084198,-6.296374
1747672494.6965692,5.0014043,1.15134,1.3826454,3.6613111,1.9084198,-6.296374
1747672494.697308,5.0014043,1.15134,1.3826454,3.6613111,1.9084198,-6.296374
1747672494.6980734,5.0014043,1.15134,1.3826454,3.6613111,1.9084198,-6.296374
1747672494.6988132,5.0014043,1.15134,1.3826454,3.6613111,1.9084198,-6.296374
1747672494.699549,5.0014043,1.15134,1.3826454,3.6613111,1.9084198,-6.296374
1747672494.7002764,5.0014043,1.15134,1.3826454,3.6613111,1.9084198,-6.296374
1747672494.7009816,5.0014043,1.15134,1.3826454,3.6613111,1.9084198,-6.296374
1747672494.7021751,5.0014043,1.15134,1.3826454,3.6613111,1.9084198,-6.296374
1747672494.703093,5.0014043,1.15134,1.3826454,3.6613111,1.9084198,-6.296374
1747672494.703921,5.0014043,1.15134,1.3826454,3.6613111,1.9084198,-6.296374
1747672494.7054994,5.0014043,1.15134,1.3826454,3.6613111,1.9084198,-6.296374
1747672494.7066164,5.0014043,1.15134,1.3826454,3.6613111,1.9084198,-6.296374
1747672494.7081738,5.0014043,1.15134,1.3826454,3.6613111,1.9084198,-6.296374
1747672494.7092643,5.0014043,1.15134,1.3826454,3.6613111,1.9084198,-6.296374
1747672494.7104578,6.2260833,1.2880121,1.1556721,3.3427973,2.3547652,-6.3400497
1747672494.7114625,6.2260833,1.2880121,1.1556721,3.3427973,2.3547652,-6.3400497
1747672494.7122579,6.2260833,1.2880121,1.1556721,3.3427973,2.3547652,-6.3400497
1747672494.713855,6.2260833,1.2880121,1.1556721,3.3427973,2.3547652,-6.3400497
1747672494.7151656,6.2260833,1.2880121,1.1556721,3.3427973,2.3547652,-6.3400497
1747672494.7162035,7.398046,1.3153466,1.1673869,3.127614,2.4783359,-6.5488415
1747672494.7170203,7.398046,1.3153466,1.1673869,3.127614,2.4783359,-6.5488415
1747672494.7185082,7.398046,1.3153466,1.1673869,3.127614,2.4783359,-6.5488415
1747672494.7192883,7.398046,1.3153466,1.1673869,3.127614,2.4783359,-6.5488415
1747672494.7201204,7.398046,1.3153466,1.1673869,3.127614,2.4783359,-6.5488415
1747672494.7208915,7.398046,1.3153466,1.1673869,3.127614,2.4783359,-6.5488415
1747672494.7216814,7.398046,1.3153466,1.1673869,3.127614,2.4783359,-6.5488415
1747672494.7224646,7.398046,1.3153466,1.1673869,3.127614,2.4783359,-6.5488415
1747672494.7233238,7.398046,1.3153466,1.1673869,3.127614,2.4783359,-6.5488415
1747672494.7240965,7.398046,1.3153466,1.1673869,3.127614,2.4783359,-6.5488415
1747672494.7249837,7.398046,1.3153466,1.1673869,3.127614,2.4783359,-6.5488415
1747672494.7259488,8.417229,1.1591499,1.2684265,3.127614,2.4783359,-6.5488415
1747672494.7267253,8.417229,1.1591499,1.2684265,2.8506455,2.579536,-7.476686
1747672494.727603,8.417229,1.1591499,1.2684265,2.8506455,2.579536,-7.476686
1747672494.728484,8.417229,1.1591499,1.2684265,2.8506455,2.579536,-7.476686
1747672494.7294424,8.417229,1.1591499,1.2684265,2.8506455,2.579536,-7.476686
1747672494.73035,8.417229,1.1591499,1.2684265,2.8506455,2.579536,-7.476686
1747672494.7311294,8.417229,1.1591499,1.2684265,2.8506455,2.579536,-7.476686
1747672494.7319088,8.417229,1.1591499,1.2684265,2.8506455,2.579536,-7.476686
1747672494.732885,8.417229,1.1591499,1.2684265,2.8506455,2.579536,-7.476686
1747672494.7336795,8.417229,1.1591499,1.2684265,2.8506455,2.579536,-7.476686
1747672494.734551,8.689597,0.45919374,1.300154,2.865559,2.789393,-8.499339
1747672494.7352977,8.689597,0.45919374,1.300154,2.865559,2.789393,-8.499339
1747672494.7360883,8.689597,0.45919374,1.300154,2.865559,2.789393,-8.499339
1747672494.7368274,8.689597,0.45919374,1.300154,2.865559,2.789393,-8.499339
1747672494.7376003,8.689597,0.45919374,1.300154,2.865559,2.789393,-8.499339
1747672494.7383006,8.689597,0.45919374,1.300154,2.865559,2.789393,-8.499339
1747672494.738996,8.689597,0.45919374,1.300154,2.865559,2.789393,-8.499339
1747672494.739687,8.689597,0.45919374,1.300154,2.865559,2.789393,-8.499339
1747672494.7403836,8.689597,0.45919374,1.300154,2.865559,2.789393,-8.499339
1747672494.741122,8.689597,0.45919374,1.300154,2.865559,2.789393,-8.499339
1747672494.7424698,8.689597,0.45919374,1.300154,2.865559,2.789393,-8.499339
1747672494.743346,8.689597,0.45919374,1.300154,2.865559,2.789393,-8.499339
1747672494.7441971,8.689597,0.45919374,1.300154,2.865559,2.789393,-8.499339
1747672494.745083,8.689597,0.45919374,1.300154,2.865559,2.789393,-8.499339
1747672494.746788,8.689597,0.45919374,1.300154,2.865559,2.789393,-8.499339
1747672494.747602,8.689597,0.45919374,1.300154,2.865559,2.789393,-8.499339
1747672494.748409,8.689597,0.45919374,1.300154,2.865559,2.789393,-8.499339
1747672494.7492335,8.689597,0.45919374,1.300154,2.865559,2.789393,-8.499339
1747672494.750011,8.689597,0.45919374,1.300154,2.865559,2.789393,-8.499339
1747672494.7534552,8.689597,0.45919374,1.300154,2.865559,2.789393,-8.499339
1747672494.754316,8.689597,0.45919374,1.300154,2.865559,2.789393,-8.499339
1747672494.75518,8.689597,0.45919374,1.300154,2.865559,2.789393,-8.499339
1747672494.7559752,8.689597,0.45919374,1.300154,2.865559,2.789393,-8.499339
1747672494.7568536,8.689597,0.45919374,1.300154,2.865559,2.789393,-8.499339
1747672494.757665,8.689597,0.45919374,1.300154,2.865559,2.789393,-8.499339
1747672494.7584453,8.689597,0.45919374,1.300154,2.865559,2.789393,-8.499339
1747672494.7592332,8.689597,0.45919374,1.300154,2.865559,2.789393,-8.499339
1747672494.7600992,8.689597,0.45919374,1.300154,2.865559,2.789393,-8.499339
1747672494.7616737,8.689597,0.45919374,1.300154,2.865559,2.789393,-8.499339
1747672494.7626681,8.689597,0.45919374,1.300154,2.865559,2.789393,-8.499339
1747672494.7635167,8.689597,0.45919374,1.300154,2.865559,2.789393,-8.499339
1747672494.7643783,8.689597,0.45919374,1.300154,2.865559,2.789393,-8.499339
1747672494.7651863,8.689597,0.45919374,1.300154,2.865559,2.789393,-8.499339
1747672494.7673116,8.689597,0.45919374,1.300154,2.865559,2.789393,-8.499339
1747672494.7681634,8.689597,0.45919374,1.300154,2.865559,2.789393,-8.499339
1747672494.768957,8.689597,0.45919374,1.300154,2.865559,2.789393,-8.499339
1747672494.7698236,8.689597,0.45919374,1.300154,2.865559,2.789393,-8.499339
1747672494.770829,8.689597,0.45919374,1.300154,2.865559,2.789393,-8.499339
1747672494.7716506,8.689597,0.45919374,1.300154,2.865559,2.789393,-8.499339
1747672494.772472,8.689597,0.45919374,1.300154,2.865559,2.789393,-8.499339
1747672494.7732534,8.689597,0.45919374,1.300154,2.865559,2.789393,-8.499339
1747672494.77408,8.689597,0.45919374,1.300154,2.865559,2.789393,-8.499339
1747672494.7748728,8.689597,0.45919374,1.300154,2.865559,2.789393,-8.499339
1747672494.7756486,8.689597,0.45919374,1.300154,2.865559,2.789393,-8.499339
1747672494.7764027,8.689597,0.45919374,1.300154,2.865559,2.789393,-8.499339
1747672494.7772295,8.689597,0.45919374,1.300154,2.865559,2.789393,-8.499339
1747672494.7780302,8.689597,0.45919374,1.300154,2.865559,2.789393,-8.499339
1747672494.7787838,8.689597,0.45919374,1.300154,2.865559,2.789393,-8.499339
1747672494.7805293,8.689597,0.45919374,1.300154,2.865559,2.789393,-8.499339
1747672494.7815595,8.689597,0.45919374,1.300154,2.865559,2.789393,-8.499339
1747672494.782356,8.689597,0.45919374,1.300154,2.865559,2.789393,-8.499339
1747672494.7835362,8.689597,0.45919374,1.300154,2.865559,2.789393,-8.499339
1747672494.784553,8.689597,0.45919374,1.300154,2.865559,2.789393,-8.499339
1747672494.7856424,8.689597,0.45919374,1.300154,2.865559,2.789393,-8.499339
1747672494.7866726,8.689597,0.45919374,1.300154,2.865559,2.789393,-8.499339
1747672494.7875736,8.689597,0.45919374,1.300154,2.865559,2.789393,-8.499339
1747672494.788508,8.689597,0.45919374,1.300154,2.865559,2.789393,-8.499339
1747672494.7897265,8.689597,0.45919374,1.300154,2.865559,2.789393,-8.499339
1747672494.7906978,8.689597,0.45919374,1.300154,2.865559,2.789393,-8.499339
1747672494.7917151,8.689597,0.45919374,1.300154,2.865559,2.789393,-8.499339
1747672494.792715,8.689597,0.45919374,1.300154,2.865559,2.789393,-8.499339
1747672494.7937112,8.689597,0.45919374,1.300154,2.865559,2.789393,-8.499339
1747672494.794698,8.689597,0.45919374,1.300154,2.865559,2.789393,-8.499339
1747672494.7956965,8.689597,0.45919374,1.300154,2.865559,2.789393,-8.499339
1747672494.7978778,8.689597,0.45919374,1.300154,2.865559,2.789393,-8.499339
1747672494.7986653,8.689597,0.45919374,1.300154,2.865559,2.789393,-8.499339
1747672494.7994568,8.689597,0.45919374,1.300154,2.865559,2.789393,-8.499339
1747672494.8003116,8.689597,0.45919374,1.300154,2.865559,2.789393,-8.499339
1747672494.8011026,8.689597,0.45919374,1.300154,2.865559,2.789393,-8.499339
1747672494.8018816,8.689597,0.45919374,1.300154,2.865559,2.789393,-8.499339
1747672494.802767,8.689597,0.45919374,1.300154,2.865559,2.789393,-8.499339
1747672494.803588,8.689597,0.45919374,1.300154,2.865559,2.789393,-8.499339
1747672494.8046026,8.689597,0.45919374,1.300154,2.865559,2.789393,-8.499339
1747672494.8075194,8.689597,0.45919374,1.300154,2.865559,2.789393,-8.499339
1747672494.8085277,8.689597,0.45919374,1.300154,2.865559,2.789393,-8.499339
1747672494.8097568,8.689597,0.45919374,1.300154,2.865559,2.789393,-8.499339
1747672494.8105514,8.689597,0.45919374,1.300154,2.865559,2.789393,-8.499339
1747672494.8113654,8.689597,0.45919374,1.300154,2.865559,2.789393,-8.499339
1747672494.8122091,8.689597,0.45919374,1.300154,2.865559,2.789393,-8.499339
1747672494.8129718,8.689597,0.45919374,1.300154,2.865559,2.789393,-8.499339
1747672494.8137891,8.689597,0.45919374,1.300154,2.865559,2.789393,-8.499339
1747672494.8145392,8.689597,0.45919374,1.300154,2.865559,2.789393,-8.499339
1747672494.8165693,8.689597,0.45919374,1.300154,2.865559,2.789393,-8.499339
1747672494.8183732,8.689597,0.45919374,1.300154,2.865559,2.789393,-8.499339
1747672494.8193004,8.689597,0.45919374,1.300154,2.865559,2.789393,-8.499339
1747672494.8202128,8.689597,0.45919374,1.300154,2.865559,2.789393,-8.499339
1747672494.8210638,8.689597,0.45919374,1.300154,2.865559,2.789393,-8.499339
1747672494.822191,8.689597,0.45919374,1.300154,2.865559,2.789393,-8.499339
1747672494.8230898,8.689597,0.45919374,1.300154,2.865559,2.789393,-8.499339
1747672494.8240118,8.689597,0.45919374,1.300154,2.865559,2.789393,-8.499339
1747672494.824824,8.689597,0.45919374,1.300154,2.865559,2.789393,-8.499339
1747672494.8257911,8.689597,0.45919374,1.300154,2.865559,2.789393,-8.499339
1747672494.8265643,8.689597,0.45919374,1.300154,2.865559,2.789393,-8.499339
1747672494.8274188,8.689597,0.45919374,1.300154,2.865559,2.789393,-8.499339
1747672494.8282444,8.689597,0.45919374,1.300154,2.865559,2.789393,-8.499339
1747672494.8306608,8.689597,0.45919374,1.300154,2.865559,2.789393,-8.499339
1747672494.831584,8.689597,0.45919374,1.300154,2.865559,2.789393,-8.499339
1747672494.8323915,8.689597,0.45919374,1.300154,2.865559,2.789393,-8.499339
1747672494.8332512,8.689597,0.45919374,1.300154,2.865559,2.789393,-8.499339
1747672494.8340776,8.689597,0.45919374,1.300154,2.865559,2.789393,-8.499339
1747672494.8350704,8.689597,0.45919374,1.300154,2.865559,2.789393,-8.499339
1747672494.8359175,8.689597,0.45919374,1.300154,2.865559,2.789393,-8.499339
1747672494.8370316,8.689597,0.45919374,1.300154,2.865559,2.789393,-8.499339
1747672494.8379638,8.689597,0.45919374,1.300154,2.865559,2.789393,-8.499339
1747672494.838859,8.689597,0.45919374,1.300154,2.865559,2.789393,-8.499339
1747672494.8397236,8.689597,0.45919374,1.300154,2.865559,2.789393,-8.499339
1747672494.840587,8.689597,0.45919374,1.300154,2.865559,2.789393,-8.499339
1747672494.8414536,8.689597,0.45919374,1.300154,2.865559,2.789393,-8.499339
1747672494.8422298,8.689597,0.45919374,1.300154,2.865559,2.789393,-8.499339
1747672494.8430758,8.689597,0.45919374,1.300154,2.865559,2.789393,-8.499339
1747672494.8439195,8.689597,0.45919374,1.300154,2.865559,2.789393,-8.499339
1747672494.8452444,8.689597,0.45919374,1.300154,2.865559,2.789393,-8.499339
1747672494.8461075,8.689597,0.45919374,1.300154,2.865559,2.789393,-8.499339
1747672494.8469076,8.689597,0.45919374,1.300154,2.865559,2.789393,-8.499339
1747672494.8476985,8.689597,0.45919374,1.300154,2.865559,2.789393,-8.499339
1747672494.8484347,8.689597,0.45919374,1.300154,2.865559,2.789393,-8.499339
1747672494.8492184,8.689597,0.45919374,1.300154,2.865559,2.789393,-8.499339
1747672494.8499565,8.689597,0.45919374,1.300154,2.865559,2.789393,-8.499339
1747672494.850683,8.689597,0.45919374,1.300154,2.865559,2.789393,-8.499339
1747672494.853052,8.689597,0.45919374,1.300154,2.865559,2.789393,-8.499339
1747672494.854049,8.689597,0.45919374,1.300154,2.865559,2.789393,-8.499339
1747672494.8550932,8.689597,0.45919374,1.300154,2.865559,2.789393,-8.499339
1747672494.8561127,8.689597,0.45919374,1.300154,2.865559,2.789393,-8.499339
1747672494.8569674,8.689597,0.45919374,1.300154,2.865559,2.789393,-8.499339
1747672494.857995,8.689597,0.45919374,1.300154,2.865559,2.789393,-8.499339
1747672494.8589928,8.689597,0.45919374,1.300154,2.865559,2.789393,-8.499339
1747672494.8600256,8.689597,0.45919374,1.300154,2.865559,2.789393,-8.499339
1747672494.861343,8.689597,0.45919374,1.300154,2.865559,2.789393,-8.499339
1747672494.8622315,8.689597,0.45919374,1.300154,2.865559,2.789393,-8.499339
1747672494.8630145,8.689597,0.45919374,1.300154,2.865559,2.789393,-8.499339
1747672494.8641355,8.689597,0.45919374,1.300154,2.865559,2.789393,-8.499339
1747672494.8651724,8.689597,0.45919374,1.300154,2.865559,2.789393,-8.499339
1747672494.8668816,8.689597,0.45919374,1.300154,2.865559,2.789393,-8.499339
1747672494.868041,8.689597,0.45919374,1.300154,2.865559,2.789393,-8.499339
1747672494.8688254,8.689597,0.45919374,1.300154,2.865559,2.789393,-8.499339
1747672494.869616,8.689597,0.45919374,1.300154,2.865559,2.789393,-8.499339
1747672494.8704164,8.689597,0.45919374,1.300154,2.865559,2.789393,-8.499339
1747672494.8712316,8.689597,0.45919374,1.300154,2.865559,2.789393,-8.499339
1747672494.8720088,8.689597,0.45919374,1.300154,2.865559,2.789393,-8.499339
1747672494.8727808,8.689597,0.45919374,1.300154,2.865559,2.789393,-8.499339
1747672494.873771,8.689597,0.45919374,1.300154,2.865559,2.789393,-8.499339
1747672494.8746927,8.689597,0.45919374,1.300154,2.865559,2.789393,-8.499339
1747672494.87568,8.689597,0.45919374,1.300154,2.865559,2.789393,-8.499339
1747672494.8767812,8.689597,0.45919374,1.300154,2.865559,2.789393,-8.499339
1747672494.8776808,8.689597,0.45919374,1.300154,2.865559,2.789393,-8.499339
1747672494.8786714,8.689597,0.45919374,1.300154,2.865559,2.789393,-8.499339
1747672494.879681,8.689597,0.45919374,1.300154,2.865559,2.789393,-8.499339
1747672494.8807142,8.689597,0.45919374,1.300154,2.865559,2.789393,-8.499339
1747672494.8820462,8.689597,0.45919374,1.300154,2.865559,2.789393,-8.499339
1747672494.882802,8.689597,0.45919374,1.300154,2.865559,2.789393,-8.499339
1747672494.883576,8.689597,0.45919374,1.300154,2.865559,2.789393,-8.499339
1747672494.8843808,8.689597,0.45919374,1.300154,2.865559,2.789393,-8.499339
1747672494.8851392,8.689597,0.45919374,1.300154,2.865559,2.789393,-8.499339
1747672494.8858821,8.689597,0.45919374,1.300154,2.865559,2.789393,-8.499339
1747672494.886623,8.689597,0.45919374,1.300154,2.865559,2.789393,-8.499339
1747672494.8874364,8.689597,0.45919374,1.300154,2.865559,2.789393,-8.499339
1747672494.888255,8.689597,0.45919374,1.300154,2.865559,2.789393,-8.499339
1747672494.8890529,8.689597,0.45919374,1.300154,2.865559,2.789393,-8.499339
1747672494.8898602,8.689597,0.45919374,1.300154,2.865559,2.789393,-8.499339
1747672494.8906944,8.689597,0.45919374,1.300154,2.865559,2.789393,-8.499339
1747672494.8926034,8.689597,0.45919374,1.300154,2.865559,2.789393,-8.499339
1747672494.8936706,8.689597,0.45919374,1.300154,2.865559,2.789393,-8.499339
1747672494.8945873,8.689597,0.45919374,1.300154,2.865559,2.789393,-8.499339
1747672494.8959002,8.689597,0.45919374,1.300154,2.865559,2.789393,-8.499339
1747672494.8984184,8.689597,0.45919374,1.300154,2.865559,2.789393,-8.499339
1747672494.8992662,8.689597,0.45919374,1.300154,2.865559,2.789393,-8.499339
1747672494.9003356,8.689597,0.45919374,1.300154,2.865559,2.789393,-8.499339
1747672494.9011612,8.689597,0.45919374,1.300154,2.865559,2.789393,-8.499339
1747672494.9020448,8.689597,0.45919374,1.300154,2.865559,2.789393,-8.499339
1747672494.903077,8.689597,0.45919374,1.300154,2.865559,2.789393,-8.499339
1747672494.903873,8.689597,0.45919374,1.300154,2.865559,2.789393,-8.499339
1747672494.906247,8.689597,0.45919374,1.300154,2.865559,2.789393,-8.499339
1747672494.9070418,8.689597,0.45919374,1.300154,2.865559,2.789393,-8.499339
1747672494.9081585,8.689597,0.45919374,1.300154,2.865559,2.789393,-8.499339
1747672494.9089332,8.689597,0.45919374,1.300154,2.865559,2.789393,-8.499339
1747672494.909722,8.689597,0.45919374,1.300154,2.865559,2.789393,-8.499339
1747672494.9105203,8.689597,0.45919374,1.300154,2.865559,2.789393,-8.499339
1747672494.9113665,8.689597,0.45919374,1.300154,2.865559,2.789393,-8.499339
1747672494.912168,8.689597,0.45919374,1.300154,2.865559,2.789393,-8.499339
1747672494.9129715,8.689597,0.45919374,1.300154,2.865559,2.789393,-8.499339
1747672494.9137545,8.689597,0.45919374,1.300154,2.865559,2.789393,-8.499339
1747672494.9145498,8.689597,0.45919374,1.300154,2.865559,2.789393,-8.499339
1747672494.9153843,8.689597,0.45919374,1.300154,2.865559,2.789393,-8.499339
1747672494.9161847,8.689597,0.45919374,1.300154,2.865559,2.789393,-8.499339
1747672494.9171274,8.689597,0.45919374,1.300154,2.865559,2.789393,-8.499339
1747672494.9179513,8.689597,0.45919374,1.300154,2.865559,2.789393,-8.499339
1747672494.9186988,8.689597,0.45919374,1.300154,2.865559,2.789393,-8.499339
1747672494.919452,8.689597,0.45919374,1.300154,2.865559,2.789393,-8.499339
1747672494.920255,8.689597,0.45919374,1.300154,2.865559,2.789393,-8.499339
1747672494.9210505,8.689597,0.45919374,1.300154,2.865559,2.789393,-8.499339
1747672494.9218836,8.689597,0.45919374,1.300154,2.865559,2.789393,-8.499339
1747672494.9229405,8.689597,0.45919374,1.300154,2.865559,2.789393,-8.499339
1747672494.9250998,8.689597,0.45919374,1.300154,2.865559,2.789393,-8.499339
1747672494.926051,8.689597,0.45919374,1.300154,2.865559,2.789393,-8.499339
1747672494.9277976,8.689597,0.45919374,1.300154,2.865559,2.789393,-8.499339
1747672494.9289496,8.689597,0.45919374,1.300154,2.865559,2.789393,-8.499339
1747672494.9298143,8.689597,0.45919374,1.300154,2.865559,2.789393,-8.499339
1747672494.9583156,8.689597,0.45919374,1.300154,2.865559,2.789393,-8.499339
1747672494.9592297,8.689597,0.45919374,1.300154,2.865559,2.789393,-8.499339
1747672494.9600399,8.689597,0.45919374,1.300154,2.865559,2.789393,-8.499339
1747672494.9610317,8.689597,0.45919374,1.300154,2.865559,2.789393,-8.499339
1747672494.9618297,8.689597,0.45919374,1.300154,2.865559,2.789393,-8.499339
1747672494.9626136,8.689597,0.45919374,1.300154,2.865559,2.789393,-8.499339
1747672494.9633694,8.689597,0.45919374,1.300154,2.865559,2.789393,-8.499339
1747672494.9942636,8.689597,0.45919374,1.300154,2.865559,2.789393,-8.499339
1747672494.9952095,8.689597,0.45919374,1.300154,2.865559,2.789393,-8.499339
1747672494.9960184,8.689597,0.45919374,1.300154,2.865559,2.789393,-8.499339
1747672494.9967804,8.689597,0.45919374,1.300154,2.865559,2.789393,-8.499339
1747672494.9975562,8.689597,0.45919374,1.300154,2.865559,2.789393,-8.499339
1747672494.9983838,8.689597,0.45919374,1.300154,2.865559,2.789393,-8.499339
1747672494.9991472,8.689597,0.45919374,1.300154,2.865559,2.789393,-8.499339
1747672494.9999175,8.689597,0.45919374,1.300154,2.865559,2.789393,-8.499339
1747672495.0006573,8.689597,0.45919374,1.300154,2.865559,2.789393,-8.499339
1747672495.0015044,8.689597,0.45919374,1.300154,2.865559,2.789393,-8.499339
1747672495.0023055,8.689597,0.45919374,1.300154,2.865559,2.789393,-8.499339
1747672495.0030785,8.689597,0.45919374,1.300154,2.865559,2.789393,-8.499339
1747672495.0038495,8.689597,0.45919374,1.300154,2.865559,2.789393,-8.499339
1747672495.0045888,8.689597,0.45919374,1.300154,2.865559,2.789393,-8.499339
1747672495.0053594,8.689597,0.45919374,1.300154,2.865559,2.789393,-8.499339
1747672495.006112,8.689597,0.45919374,1.300154,2.865559,2.789393,-8.499339
1747672495.0068636,8.689597,0.45919374,1.300154,2.865559,2.789393,-8.499339
1747672495.0076015,8.689597,0.45919374,1.300154,2.865559,2.789393,-8.499339
1747672495.0083146,8.689597,0.45919374,1.300154,2.865559,2.789393,-8.499339
1747672495.0090635,4.621163,-1.0910579,-0.16858254,2.3382537,2.6583655,-9.830918
1747672495.0098035,2.0688124,-1.9940697,0.2736492,4.3089914,1.6815187,-5.7711987
1747672495.0105543,0.08365062,-2.7384443,-1.5767928,-1.2612722,-0.25513065,-0.73995876
1747672495.011264,0.37993613,-1.1686682,1.1151586,-0.124635845,-0.5214465,0.48402917
1747672495.0120046,0.37993613,-1.1686682,1.1151586,-0.124635845,-0.5214465,0.48402917
1747672495.0128295,0.37993613,-1.1686682,1.1151586,-0.124635845,-0.5214465,0.48402917
1747672495.0136445,0.677686,-0.9695174,0.6119125,0.71159613,-0.6993456,0.8078693
1747672495.014469,0.677686,-0.9695174,0.6119125,0.71159613,-0.6993456,0.8078693
1747672495.0152483,0.677686,-0.9695174,0.6119125,0.71159613,-0.6993456,0.8078693
1747672495.0160568,0.677686,-0.9695174,0.6119125,0.71159613,-0.6993456,0.8078693
1747672495.0252016,0.677686,-0.9695174,0.6119125,0.71159613,-0.6993456,0.8078693
1747672495.026096,0.677686,-0.9695174,0.6119125,0.71159613,-0.6993456,0.8078693
1747672495.0271902,0.76408225,-0.85236996,0.30244794,0.993891,-0.63649505,0.8568714
1747672495.0281148,0.76408225,-0.85236996,0.30244794,0.993891,-0.63649505,0.8568714
1747672495.028903,0.76408225,-0.85236996,0.30244794,0.993891,-0.63649505,0.8568714
1747672495.0296915,0.76408225,-0.85236996,0.30244794,0.993891,-0.63649505,0.8568714
1747672495.030645,0.76408225,-0.85236996,0.30244794,0.993891,-0.63649505,0.8568714
1747672495.031464,0.76408225,-0.85236996,0.30244794,0.993891,-0.63649505,0.8568714
1747672495.0327854,0.76408225,-0.85236996,0.30244794,0.993891,-0.63649505,0.8568714
1747672495.0336025,0.7372359,-0.7313175,-0.05729244,1.0652636,-0.46605283,0.838762
1747672495.0344274,0.7372359,-0.7313175,-0.05729244,1.0652636,-0.46605283,0.838762
1747672495.0354042,0.7372359,-0.7313175,-0.05729244,1.0652636,-0.46605283,0.838762
1747672495.0361917,0.7372359,-0.7313175,-0.05729244,1.0652636,-0.46605283,0.838762
1747672495.0370076,0.7372359,-0.7313175,-0.05729244,1.0652636,-0.46605283,0.838762
1747672495.0377865,0.7372359,-0.7313175,-0.05729244,1.0652636,-0.46605283,0.838762
1747672495.0385942,0.7372359,-0.7313175,-0.05729244,1.0652636,-0.46605283,0.838762
1747672495.0394945,0.7372359,-0.7313175,-0.05729244,1.0652636,-0.46605283,0.838762
1747672495.0404556,0.7372359,-0.7313175,-0.05729244,1.0652636,-0.46605283,0.838762
1747672495.0412457,0.7372359,-0.7313175,-0.05729244,1.0652636,-0.46605283,0.838762
1747672495.0420341,0.7372359,-0.7313175,-0.05729244,1.0652636,-0.46605283,0.838762
1747672495.0428169,0.7372359,-0.7313175,-0.05729244,1.0652636,-0.46605283,0.838762
1747672495.043592,0.7372359,-0.7313175,-0.05729244,1.0652636,-0.46605283,0.838762
1747672495.0443723,0.65669703,-0.67664874,-0.23545423,1.0652636,-0.46605283,0.838762
1747672495.045157,0.65669703,-0.67664874,-0.23545423,1.0652636,-0.46605283,0.838762
1747672495.0460975,0.65669703,-0.67664874,-0.23545423,1.0652636,-0.46605283,0.838762
1747672495.0472224,0.65669703,-0.67664874,-0.23545423,0.93956256,-0.34461278,0.8313051
1747672495.0480075,0.65669703,-0.67664874,-0.23545423,0.93956256,-0.34461278,0.8313051
1747672495.0488107,0.65669703,-0.67664874,-0.23545423,0.93956256,-0.34461278,0.8313051
1747672495.0496066,0.65669703,-0.67664874,-0.23545423,0.93956256,-0.34461278,0.8313051
1747672495.0503685,0.65669703,-0.67664874,-0.23545423,0.93956256,-0.34461278,0.8313051
1747672495.0511222,0.65669703,-0.67664874,-0.23545423,0.93956256,-0.34461278,0.8313051
1747672495.051922,0.65669703,-0.67664874,-0.23545423,0.93956256,-0.34461278,0.8313051
1747672495.0526903,0.65669703,-0.67664874,-0.23545423,0.93956256,-0.34461278,0.8313051
1747672495.0534148,0.65669703,-0.67664874,-0.23545423,0.93956256,-0.34461278,0.8313051
1747672495.054117,0.65669703,-0.67664874,-0.23545423,0.6444845,-0.29348013,0.9250483
1747672495.0556068,0.42142585,-0.5775615,-0.4346049,0.6444845,-0.29348013,0.9250483
1747672495.0563676,0.42142585,-0.5775615,-0.4346049,0.6444845,-0.29348013,0.9250483
1747672495.0575426,0.42142585,-0.5775615,-0.4346049,0.6444845,-0.29348013,0.9250483
1747672495.0584817,0.42142585,-0.5775615,-0.4346049,0.6444845,-0.29348013,0.9250483
1747672495.0594122,0.42142585,-0.5775615,-0.4346049,0.6444845,-0.29348013,0.9250483
1747672495.0603786,0.42142585,-0.5775615,-0.4346049,0.6444845,-0.29348013,0.9250483
1747672495.0612347,0.42142585,-0.5775615,-0.4346049,0.6444845,-0.29348013,0.9250483
1747672495.0620537,0.42142585,-0.5775615,-0.4346049,0.6444845,-0.29348013,0.9250483
1747672495.0628562,0.42142585,-0.5775615,-0.4346049,0.6444845,-0.29348013,0.9250483
1747672495.0636613,0.42142585,-0.5775615,-0.4346049,0.6444845,-0.29348013,0.9250483
1747672495.0648763,0.42142585,-0.5775615,-0.4346049,0.6444845,-0.29348013,0.9250483
1747672495.0679967,0.42142585,-0.5775615,-0.4346049,0.6444845,-0.29348013,0.9250483
1747672495.0690665,0.25693128,-0.5180115,-0.42142585,0.6444845,-0.29348013,0.9250483
1747672495.06988,0.25693128,-0.5180115,-0.42142585,0.23542327,-0.28708854,1.2073432
1747672495.0708055,0.25693128,-0.5180115,-0.42142585,0.23542327,-0.28708854,1.2073432
1747672495.0715895,0.25693128,-0.5180115,-0.42142585,0.23542327,-0.28708854,1.2073432
1747672495.0744858,0.25693128,-0.5180115,-0.42142585,0.23542327,-0.28708854,1.2073432
1747672495.0800772,0.25693128,-0.5180115,-0.42142585,0.23542327,-0.28708854,1.2073432
1747672495.0817115,0.19884564,-0.49555823,-0.19201204,-0.08628636,-0.22636852,1.8656762
1747672495.084277,0.19884564,-0.49555823,-0.19201204,-0.08628636,-0.22636852,1.8656762
1747672495.086139,0.19884564,-0.49555823,-0.19201204,-0.08628636,-0.22636852,1.8656762
1747672495.087708,0.19884564,-0.49555823,-0.19201204,-0.08628636,-0.22636852,1.8656762
1747672495.088565,0.19884564,-0.49555823,-0.19201204,-0.08628636,-0.22636852,1.8656762
1747672495.089372,0.19884564,-0.49555823,-0.19201204,-0.08628636,-0.22636852,1.8656762
1747672495.0901818,0.19884564,-0.49555823,-0.19201204,-0.08628636,-0.22636852,1.8656762
1747672495.0909677,0.19884564,-0.49555823,-0.19201204,-0.08628636,-0.22636852,1.8656762
1747672495.0917232,0.19884564,-0.49555823,-0.19201204,-0.08628636,-0.22636852,1.8656762
1747672495.0925202,0.19884564,-0.49555823,-0.19201204,-0.08628636,-0.22636852,1.8656762
1747672495.093046,0.19884564,-0.49555823,-0.19201204,-0.12676637,-0.22530326,2.28539
1747672495.0937927,0.20323867,-0.4770099,-0.13392642,-0.12676637,-0.22530326,2.28539
1747672495.0945106,0.20323867,-0.4770099,-0.13392642,-0.12676637,-0.22530326,2.28539
1747672495.0952454,0.20323867,-0.4770099,-0.13392642,-0.12676637,-0.22530326,2.28539
1747672495.0960464,0.20323867,-0.4770099,-0.13392642,-0.12676637,-0.22530326,2.28539
1747672495.0981522,0.20323867,-0.4770099,-0.13392642,-0.12676637,-0.22530326,2.28539
1747672495.0997846,0.20323867,-0.4770099,-0.13392642,-0.12676637,-0.22530326,2.28539
1747672495.100811,0.20323867,-0.4770099,-0.13392642,-0.12676637,-0.22530326,2.28539
1747672495.101742,0.20323867,-0.4770099,-0.13392642,-0.12676637,-0.22530326,2.28539
1747672495.1025383,0.20323867,-0.4770099,-0.13392642,-0.12676637,-0.22530326,2.28539
1747672495.1033888,0.20323867,-0.4770099,-0.13392642,-0.12676637,-0.22530326,2.28539
1747672495.10424,0.20323867,-0.4770099,-0.13392642,-0.12676637,-0.22530326,2.28539
1747672495.1051466,0.20323867,-0.4770099,-0.13392642,-0.12676637,-0.22530326,2.28539
1747672495.1060221,0.20323867,-0.4770099,-0.13392642,-0.12676637,-0.22530326,2.28539
1747672495.1158335,0.29305172,-0.45406854,-0.13978378,-0.09054741,-0.09427583,3.409243
1747672495.1167293,0.29305172,-0.45406854,-0.13978378,-0.09054741,-0.09427583,3.409243
1747672495.1177413,0.29305172,-0.45406854,-0.13978378,-0.09054741,-0.09427583,3.409243
1747672495.1187959,0.29305172,-0.45406854,-0.13978378,-0.09054741,-0.09427583,3.409243
1747672495.1198392,0.29305172,-0.45406854,-0.13978378,-0.09054741,-0.09427583,3.409243
1747672495.1206532,0.29305172,-0.45406854,-0.13978378,-0.09054741,-0.09427583,3.409243
1747672495.121485,0.29305172,-0.45406854,-0.13978378,-0.09054741,-0.09427583,3.409243
1747672495.1222897,0.29305172,-0.45406854,-0.13978378,-0.09054741,-0.09427583,3.409243
1747672495.1234145,0.29305172,-0.45406854,-0.13978378,-0.09054741,-0.09427583,3.409243
1747672495.1255736,0.29305172,-0.45406854,-0.13978378,-0.09054741,-0.09427583,3.409243
1747672495.1274588,0.29305172,-0.45406854,-0.13978378,-0.09054741,-0.09427583,3.409243
1747672495.1282856,0.29305172,-0.45406854,-0.13978378,-0.09054741,-0.09427583,3.409243
1747672495.1292207,0.29305172,-0.45406854,-0.13978378,-0.09054741,-0.09427583,3.409243
1747672495.1310804,0.4634037,-0.48237914,-0.24277595,-0.101200044,-0.13582112,4.076098
1747672495.1318517,0.4634037,-0.48237914,-0.24277595,-0.101200044,-0.13582112,4.076098
1747672495.1326334,0.4634037,-0.48237914,-0.24277595,-0.101200044,-0.13582112,4.076098
1747672495.1334565,0.64547044,-0.5307025,-0.39409143,-0.19494325,-0.32756856,4.8356314
1747672495.1342254,0.64547044,-0.5307025,-0.39409143,-0.19494325,-0.32756856,4.8356314
1747672495.134975,0.64547044,-0.5307025,-0.39409143,-0.19494325,-0.32756856,4.8356314
1747672495.135731,0.64547044,-0.5307025,-0.39409143,-0.19494325,-0.32756856,4.8356314
1747672495.1364882,0.64547044,-0.5307025,-0.39409143,-0.19494325,-0.32756856,4.8356314
1747672495.137241,0.64547044,-0.5307025,-0.39409143,-0.19494325,-0.32756856,4.8356314
1747672495.1379397,0.64547044,-0.5307025,-0.39409143,-0.19494325,-0.32756856,4.8356314
1747672495.138637,0.64547044,-0.5307025,-0.39409143,-0.19494325,-0.32756856,4.8356314
1747672495.139391,0.64547044,-0.5307025,-0.39409143,-0.19494325,-0.32756856,4.8356314
1747672495.1401217,0.64547044,-0.5307025,-0.39409143,-0.19494325,-0.32756856,4.8356314
1747672495.1408284,0.64547044,-0.5307025,-0.39409143,-0.19494325,-0.32756856,4.8356314
1747672495.1415439,0.64547044,-0.5307025,-0.39409143,-0.19494325,-0.32756856,4.8356314
1747672495.1422856,0.64547044,-0.5307025,-0.39409143,-0.19494325,-0.32756856,4.8356314
1747672495.1430447,0.64547044,-0.5307025,-0.39409143,-0.19494325,-0.32756856,4.8356314
1747672495.143839,0.64547044,-0.5307025,-0.39409143,-0.19494325,-0.32756856,4.8356314
1747672495.144608,0.8231441,-0.52191645,-0.49220246,-0.32703593,-0.48522758,5.3331094
1747672495.1458068,0.8231441,-0.52191645,-0.49220246,-0.32703593,-0.48522758,5.3331094
1747672495.1478083,0.8231441,-0.52191645,-0.49220246,-0.32703593,-0.48522758,5.3331094
1747672495.1486697,0.8231441,-0.52191645,-0.49220246,-0.32703593,-0.48522758,5.3331094
1747672495.1494713,0.8231441,-0.52191645,-0.49220246,-0.32703593,-0.48522758,5.3331094
1747672495.150473,0.8231441,-0.52191645,-0.49220246,-0.32703593,-0.48522758,5.3331094
1747672495.151259,0.8231441,-0.52191645,-0.49220246,-0.32703593,-0.48522758,5.3331094
1747672495.1522982,0.8231441,-0.52191645,-0.49220246,-0.32703593,-0.48522758,5.3331094
1747672495.1530724,0.8231441,-0.52191645,-0.49220246,-0.32703593,-0.48522758,5.3331094
1747672495.1539576,0.8231441,-0.52191645,-0.49220246,-0.32703593,-0.48522758,5.3331094
1747672495.154927,0.8231441,-0.52191645,-0.49220246,-0.32703593,-0.48522758,5.3331094
1747672495.1558876,1.3566532,-0.55706066,-0.6327794,-0.7488803,-0.7057372,6.317413
1747672495.1612868,1.3566532,-0.55706066,-0.6327794,-0.7488803,-0.7057372,6.317413
1747672495.162259,1.3566532,-0.55706066,-0.6327794,-0.7488803,-0.7057372,6.317413
1747672495.1631427,1.3566532,-0.55706066,-0.6327794,-0.7488803,-0.7057372,6.317413
1747672495.1641943,1.3566532,-0.55706066,-0.6327794,-0.7488803,-0.7057372,6.317413
1747672495.1649823,1.3566532,-0.55706066,-0.6327794,-0.7488803,-0.7057372,6.317413
1747672495.1659365,1.3566532,-0.55706066,-0.6327794,-0.7488803,-0.7057372,6.317413
1747672495.1668165,1.3566532,-0.55706066,-0.6327794,-0.7488803,-0.7057372,6.317413
1747672495.1675982,1.3566532,-0.55706066,-0.6327794,-0.7488803,-0.7057372,6.317413
1747672495.1684017,1.3566532,-0.55706066,-0.6327794,-0.7488803,-0.7057372,6.317413
1747672495.1692162,1.7578834,-0.64394504,-0.6845195,-1.1206573,-0.7238466,6.917156
1747672495.169997,1.7578834,-0.64394504,-0.6845195,-1.1206573,-0.7238466,6.917156
1747672495.172111,1.7578834,-0.64394504,-0.6845195,-1.1206573,-0.7238466,6.917156
1747672495.1740239,1.7578834,-0.64394504,-0.6845195,-1.1206573,-0.7238466,6.917156
1747672495.1749399,1.7578834,-0.64394504,-0.6845195,-1.1206573,-0.7238466,6.917156
1747672495.1757283,1.7578834,-0.64394504,-0.6845195,-1.1206573,-0.7238466,6.917156
1747672495.1765895,2.2884638,-0.7342462,-0.67036426,-1.7608808,-0.6812361,7.7714977
1747672495.1773763,2.2884638,-0.7342462,-0.67036426,-1.7608808,-0.6812361,7.7714977
1747672495.1781576,2.2884638,-0.7342462,-0.67036426,-1.7608808,-0.6812361,7.7714977
1747672495.1789725,2.2884638,-0.7342462,-0.67036426,-1.7608808,-0.6812361,7.7714977
1747672495.1797428,2.2884638,-0.7342462,-0.67036426,-1.7608808,-0.6812361,7.7714977
1747672495.1805434,2.2884638,-0.7342462,-0.67036426,-1.7608808,-0.6812361,7.7714977
1747672495.1812863,2.2884638,-0.7342462,-0.67036426,-1.7608808,-0.6812361,7.7714977
1747672495.1820083,2.2884638,-0.7342462,-0.67036426,-1.7608808,-0.6812361,7.7714977
1747672495.1827857,2.8317351,-0.8757994,-0.4677967,-1.7608808,-0.6812361,7.7714977
1747672495.1835222,2.8317351,-0.8757994,-0.4677967,-1.7608808,-0.6812361,7.7714977
1747672495.1842725,2.8317351,-0.8757994,-0.4677967,-1.7608808,-0.6812361,7.7714977
1747672495.1850133,2.8317351,-0.8757994,-0.4677967,-1.7608808,-0.6812361,7.7714977
1747672495.1857216,2.8317351,-0.8757994,-0.4677967,-1.7608808,-0.6812361,7.7714977
1747672495.1864128,2.8317351,-0.8757994,-0.4677967,-1.7608808,-0.6812361,7.7714977
1747672495.1871166,2.8317351,-0.8757994,-0.4677967,-2.3883212,-0.48416233,8.696147
1747672495.187855,2.8317351,-0.8757994,-0.4677967,-2.3883212,-0.48416233,8.696147
1747672495.1885521,2.8317351,-0.8757994,-0.4677967,-2.3883212,-0.48416233,8.696147
1747672495.1892915,2.8317351,-0.8757994,-0.4677967,-2.3883212,-0.48416233,8.696147
1747672495.1900349,2.8317351,-0.8757994,-0.4677967,-2.3883212,-0.48416233,8.696147
1747672495.191538,2.8317351,-0.8757994,-0.4677967,-2.3883212,-0.48416233,8.696147
1747672495.192534,2.8317351,-0.8757994,-0.4677967,-2.3883212,-0.48416233,8.696147
1747672495.1935422,2.8317351,-0.8757994,-0.4677967,-2.3883212,-0.48416233,8.696147
1747672495.1943202,2.8317351,-0.8757994,-0.4677967,-2.3883212,-0.48416233,8.696147
1747672495.1951308,2.8317351,-0.8757994,-0.4677967,-2.3883212,-0.48416233,8.696147
1747672495.195909,2.8317351,-0.8757994,-0.4677967,-2.3883212,-0.48416233,8.696147
1747672495.196682,2.8317351,-0.8757994,-0.4677967,-2.3883212,-0.48416233,8.696147
1747672495.1974788,2.8317351,-0.8757994,-0.4677967,-2.3883212,-0.48416233,8.696147
1747672495.1983273,3.3813522,-0.9988043,-0.28280133,-2.7739465,-0.36378753,9.490833
1747672495.1991203,3.3813522,-0.9988043,-0.28280133,-2.7739465,-0.36378753,9.490833
1747672495.1999223,3.3813522,-0.9988043,-0.28280133,-2.7739465,-0.36378753,9.490833
1747672495.2007277,3.3813522,-0.9988043,-0.28280133,-2.7739465,-0.36378753,9.490833
1747672495.201647,3.3813522,-0.9988043,-0.28280133,-2.7739465,-0.36378753,9.490833
1747672495.2028673,3.3813522,-0.9988043,-0.28280133,-2.7739465,-0.36378753,9.490833
1747672495.2069297,3.3813522,-0.9988043,-0.28280133,-3.0413277,-0.45966128,10.243975
1747672495.2077253,3.3813522,-0.9988043,-0.28280133,-3.0413277,-0.45966128,10.243975
1747672495.2087517,4.2477555,-1.0373653,-0.15540345,-3.0413277,-0.45966128,10.243975
1747672495.2095523,4.2477555,-1.0373653,-0.15540345,-3.0413277,-0.45966128,10.243975
1747672495.2103298,4.2477555,-1.0373653,-0.15540345,-3.0413277,-0.45966128,10.243975
1747672495.2111135,4.2477555,-1.0373653,-0.15540345,-3.0413277,-0.45966128,10.243975
1747672495.2118888,4.2477555,-1.0373653,-0.15540345,-3.0413277,-0.45966128,10.243975
1747672495.2126749,5.533449,-1.0568899,-0.09487725,-3.2053783,-0.8602004,10.523074
1747672495.2134662,5.533449,-1.0568899,-0.09487725,-3.2053783,-0.8602004,10.523074
1747672495.2142391,5.533449,-1.0568899,-0.09487725,-3.2053783,-0.8602004,10.523074
1747672495.21503,5.533449,-1.0568899,-0.09487725,-3.2053783,-0.8602004,10.523074
1747672495.2158723,5.533449,-1.0568899,-0.09487725,-3.2053783,-0.8602004,10.523074
1747672495.216683,5.533449,-1.0568899,-0.09487725,-3.2053783,-0.8602004,10.523074
1747672495.2175088,5.533449,-1.0568899,-0.09487725,-3.2053783,-0.8602004,10.523074
1747672495.2191098,5.533449,-1.0568899,-0.09487725,-3.2053783,-0.8602004,10.523074
1747672495.2199385,5.533449,-1.0568899,-0.09487725,-3.2053783,-0.8602004,10.523074
1747672495.2207518,5.533449,-1.0568899,-0.09487725,-3.2053783,-0.8602004,10.523074
1747672495.221582,5.533449,-1.0568899,-0.09487725,-3.2053783,-0.8602004,10.523074
1747672495.2223935,5.533449,-1.0568899,-0.09487725,-3.2053783,-0.8602004,10.523074
1747672495.223169,5.533449,-1.0568899,-0.09487725,-3.2053783,-0.8602004,10.523074
1747672495.223952,5.533449,-1.0568899,-0.09487725,-3.2053783,-0.8602004,10.523074
1747672495.2247195,5.533449,-1.0568899,-0.09487725,-3.2053783,-0.8602004,10.523074
1747672495.2254598,5.533449,-1.0568899,-0.09487725,-3.2053783,-0.8602004,10.523074
1747672495.2262394,5.533449,-1.0568899,-0.09487725,-3.2053783,-0.8602004,10.523074
1747672495.2269945,5.533449,-1.0568899,-0.09487725,-3.2053783,-0.8602004,10.523074
1747672495.2277408,5.533449,-1.0568899,-0.09487725,-3.2053783,-0.8602004,10.523074
1747672495.2284667,5.533449,-1.0568899,-0.09487725,-3.2053783,-0.8602004,10.523074
1747672495.2291558,5.533449,-1.0568899,-0.09487725,-3.2053783,-0.8602004,10.523074
1747672495.2298527,5.533449,-1.0568899,-0.09487725,-3.2053783,-0.8602004,10.523074
1747672495.2305422,5.533449,-1.0568899,-0.09487725,-3.2053783,-0.8602004,10.523074
1747672495.2312856,5.533449,-1.0568899,-0.09487725,-3.2053783,-0.8602004,10.523074
1747672495.232011,5.533449,-1.0568899,-0.09487725,-3.2053783,-0.8602004,10.523074
1747672495.2327766,5.533449,-1.0568899,-0.09487725,-3.2053783,-0.8602004,10.523074
1747672495.233537,5.533449,-1.0568899,-0.09487725,-3.2053783,-0.8602004,10.523074
1747672495.2342684,5.533449,-1.0568899,-0.09487725,-3.2053783,-0.8602004,10.523074
1747672495.2350252,5.533449,-1.0568899,-0.09487725,-3.2053783,-0.8602004,10.523074
1747672495.2357728,5.533449,-1.0568899,-0.09487725,-3.2053783,-0.8602004,10.523074
1747672495.2365363,5.533449,-1.0568899,-0.09487725,-3.2053783,-0.8602004,10.523074
1747672495.2372818,5.533449,-1.0568899,-0.09487725,-3.2053783,-0.8602004,10.523074
1747672495.2386909,5.533449,-1.0568899,-0.09487725,-3.2053783,-0.8602004,10.523074
1747672495.240577,5.533449,-1.0568899,-0.09487725,-3.2053783,-0.8602004,10.523074
1747672495.2413635,5.533449,-1.0568899,-0.09487725,-3.2053783,-0.8602004,10.523074
1747672495.2421572,5.533449,-1.0568899,-0.09487725,-3.2053783,-0.8602004,10.523074
1747672495.2429464,5.533449,-1.0568899,-0.09487725,-3.2053783,-0.8602004,10.523074
1747672495.2437298,5.533449,-1.0568899,-0.09487725,-3.2053783,-0.8602004,10.523074
1747672495.2445064,5.533449,-1.0568899,-0.09487725,-3.2053783,-0.8602004,10.523074
1747672495.2453685,5.533449,-1.0568899,-0.09487725,-3.2053783,-0.8602004,10.523074
1747672495.24632,5.533449,-1.0568899,-0.09487725,-3.2053783,-0.8602004,10.523074
1747672495.2471848,5.533449,-1.0568899,-0.09487725,-3.2053783,-0.8602004,10.523074
1747672495.2480693,5.533449,-1.0568899,-0.09487725,-3.2053783,-0.8602004,10.523074
1747672495.2489746,5.533449,-1.0568899,-0.09487725,-3.2053783,-0.8602004,10.523074
1747672495.2499118,5.533449,-1.0568899,-0.09487725,-3.2053783,-0.8602004,10.523074
1747672495.250856,5.533449,-1.0568899,-0.09487725,-3.2053783,-0.8602004,10.523074
1747672495.2534206,5.533449,-1.0568899,-0.09487725,-3.2053783,-0.8602004,10.523074
1747672495.2542384,5.533449,-1.0568899,-0.09487725,-3.2053783,-0.8602004,10.523074
1747672495.2550218,5.533449,-1.0568899,-0.09487725,-3.2053783,-0.8602004,10.523074
1747672495.2559626,5.533449,-1.0568899,-0.09487725,-3.2053783,-0.8602004,10.523074
1747672495.2569752,5.533449,-1.0568899,-0.09487725,-3.2053783,-0.8602004,10.523074
1747672495.2577732,5.533449,-1.0568899,-0.09487725,-3.2053783,-0.8602004,10.523074
1747672495.2585871,5.533449,-1.0568899,-0.09487725,-3.2053783,-0.8602004,10.523074
1747672495.2594073,5.533449,-1.0568899,-0.09487725,-3.2053783,-0.8602004,10.523074
1747672495.260224,5.533449,-1.0568899,-0.09487725,-3.2053783,-0.8602004,10.523074
1747672495.2610333,5.533449,-1.0568899,-0.09487725,-3.2053783,-0.8602004,10.523074
1747672495.2618191,5.533449,-1.0568899,-0.09487725,-3.2053783,-0.8602004,10.523074
1747672495.2625973,5.533449,-1.0568899,-0.09487725,-3.2053783,-0.8602004,10.523074
1747672495.2636068,5.533449,-1.0568899,-0.09487725,-3.2053783,-0.8602004,10.523074
1747672495.2674246,5.533449,-1.0568899,-0.09487725,-3.2053783,-0.8602004,10.523074
1747672495.26821,5.533449,-1.0568899,-0.09487725,-3.2053783,-0.8602004,10.523074
1747672495.2690368,5.533449,-1.0568899,-0.09487725,-3.2053783,-0.8602004,10.523074
1747672495.2699485,5.533449,-1.0568899,-0.09487725,-3.2053783,-0.8602004,10.523074
1747672495.2707403,5.533449,-1.0568899,-0.09487725,-3.2053783,-0.8602004,10.523074
1747672495.2715218,5.533449,-1.0568899,-0.09487725,-3.2053783,-0.8602004,10.523074
1747672495.2722816,5.533449,-1.0568899,-0.09487725,-3.2053783,-0.8602004,10.523074
1747672495.2730052,5.533449,-1.0568899,-0.09487725,-3.2053783,-0.8602004,10.523074
1747672495.2737637,5.533449,-1.0568899,-0.09487725,-3.2053783,-0.8602004,10.523074
1747672495.2745175,5.533449,-1.0568899,-0.09487725,-3.2053783,-0.8602004,10.523074
1747672495.275234,5.533449,-1.0568899,-0.09487725,-3.2053783,-0.8602004,10.523074
1747672495.2759576,5.533449,-1.0568899,-0.09487725,-3.2053783,-0.8602004,10.523074
1747672495.2766538,5.533449,-1.0568899,-0.09487725,-3.2053783,-0.8602004,10.523074
1747672495.2773724,5.533449,-1.0568899,-0.09487725,-3.2053783,-0.8602004,10.523074
1747672495.2781253,5.372371,0.22489876,1.3772761,-5.7066174,-0.7781751,8.3414135
1747672495.2788718,5.372371,0.22489876,1.3772761,-5.624592,-0.92305094,7.9920073
1747672495.279583,5.372371,0.22489876,1.3772761,-5.624592,-0.92305094,7.9920073
1747672495.2803047,5.372371,0.22489876,1.3772761,-5.624592,-0.92305094,7.9920073
1747672495.280986,5.372371,0.22489876,1.3772761,-5.624592,-0.92305094,7.9920073
1747672495.2816749,5.372371,0.22489876,1.3772761,-5.624592,-0.92305094,7.9920073
1747672495.2823641,5.372371,0.22489876,1.3772761,-5.624592,-0.92305094,7.9920073
1747672495.2830646,5.372371,0.22489876,1.3772761,-5.624592,-0.92305094,7.9920073
1747672495.283791,5.372371,0.22489876,1.3772761,-5.624592,-0.92305094,7.9920073
1747672495.2845223,5.372371,0.22489876,1.3772761,-5.624592,-0.92305094,7.9920073
1747672495.2858768,5.372371,0.22489876,1.3772761,-5.624592,-0.92305094,7.9920073
1747672495.287528,4.9813914,0.43381175,1.8668548,-5.0046086,-1.407746,7.68095
1747672495.2883556,4.9813914,0.43381175,1.8668548,-5.0046086,-1.407746,7.68095
1747672495.289168,4.9813914,0.43381175,1.8668548,-5.0046086,-1.407746,7.68095
1747672495.289963,4.9813914,0.43381175,1.8668548,-5.0046086,-1.407746,7.68095
1747672495.2907853,4.9813914,0.43381175,1.8668548,-5.0046086,-1.407746,7.68095
1747672495.291811,4.9813914,0.43381175,1.8668548,-5.0046086,-1.407746,7.68095
1747672495.292615,4.9813914,0.43381175,1.8668548,-5.0046086,-1.407746,7.68095
1747672495.2931414,4.9813914,0.43381175,1.8668548,-5.0046086,-1.407746,7.68095
1747672495.2942991,4.9813914,0.43381175,1.8668548,-5.0046086,-1.407746,7.68095
1747672495.2963302,4.9813914,0.43381175,1.8668548,-5.0046086,-1.407746,7.68095
1747672495.2972357,4.9813914,0.43381175,1.8668548,-5.0046086,-1.407746,7.68095
1747672495.300705,4.9813914,0.43381175,1.8668548,-5.0046086,-1.407746,7.68095
1747672495.3015053,4.9813914,0.43381175,1.8668548,-5.0046086,-1.407746,7.68095
1747672495.3023202,4.9813914,0.43381175,1.8668548,-5.0046086,-1.407746,7.68095
1747672495.3031418,4.2121234,0.79794514,2.021099,-4.0820904,-1.900963,7.365632
1747672495.3040655,4.2121234,0.79794514,2.021099,-3.0647635,-2.2770011,7.0322046
1747672495.3048522,4.2121234,0.79794514,2.021099,-3.0647635,-2.2770011,7.0322046
1747672495.3056364,4.2121234,0.79794514,2.021099,-3.0647635,-2.2770011,7.0322046
1747672495.306415,4.2121234,0.79794514,2.021099,-3.0647635,-2.2770011,7.0322046
1747672495.3072262,4.2121234,0.79794514,2.021099,-3.0647635,-2.2770011,7.0322046
1747672495.3080351,4.2121234,0.79794514,2.021099,-3.0647635,-2.2770011,7.0322046
1747672495.308854,4.2121234,0.79794514,2.021099,-3.0647635,-2.2770011,7.0322046
1747672495.3096611,4.2121234,0.79794514,2.021099,-3.0647635,-2.2770011,7.0322046
1747672495.31067,4.2121234,0.79794514,2.021099,-3.0647635,-2.2770011,7.0322046
1747672495.3126175,4.2121234,0.79794514,2.021099,-3.0647635,-2.2770011,7.0322046
1747672495.3137343,3.934874,0.9575586,1.7316471,-3.0647635,-2.2770011,7.0322046
1747672495.314581,3.934874,0.9575586,1.7316471,-3.0647635,-2.2770011,7.0322046
1747672495.315396,3.934874,0.9575586,1.7316471,-3.0647635,-2.2770011,7.0322046
1747672495.3161898,3.934874,0.9575586,1.7316471,-3.0647635,-2.2770011,7.0322046
1747672495.3169758,3.934874,0.9575586,1.7316471,-3.0647635,-2.2770011,7.0322046
1747672495.3177655,3.934874,0.9575586,1.7316471,-3.0647635,-2.2770011,7.0322046
1747672495.3185234,3.934874,0.9575586,1.7316471,-3.0647635,-2.2770011,7.0322046
1747672495.3192458,3.934874,0.9575586,1.7316471,-3.0647635,-2.2770011,7.0322046
1747672495.3199873,3.934874,0.9575586,1.7316471,-3.0647635,-2.2770011,7.0322046
1747672495.3207657,3.934874,0.9575586,1.7316471,-3.0647635,-2.2770011,7.0322046
1747672495.321478,3.934874,0.9575586,1.7316471,-3.0647635,-2.2770011,7.0322046
1747672495.322185,3.934874,0.9575586,1.7316471,-3.0647635,-2.2770011,7.0322046
1747672495.322918,3.934874,0.9575586,1.7316471,-3.0647635,-2.2770011,7.0322046
1747672495.3236709,3.912909,1.1352323,1.3465248,-1.604287,-2.4730096,6.1714716
1747672495.324425,3.912909,1.1352323,1.3465248,-1.604287,-2.4730096,6.1714716
1747672495.3252068,3.912909,1.1352323,1.3465248,-1.604287,-2.4730096,6.1714716
1747672495.3259451,3.912909,1.1352323,1.3465248,-1.604287,-2.4730096,6.1714716
1747672495.3267162,3.912909,1.1352323,1.3465248,-1.604287,-2.4730096,6.1714716
1747672495.3274555,3.912909,1.1352323,1.3465248,-1.604287,-2.4730096,6.1714716
1747672495.328205,3.912909,1.1352323,1.3465248,-1.604287,-2.4730096,6.1714716
1747672495.3288965,3.912909,1.1352323,1.3465248,-1.604287,-2.4730096,6.1714716
1747672495.3296099,3.912909,1.1352323,1.3465248,-1.604287,-2.4730096,6.1714716
1747672495.330358,3.912909,1.1352323,1.3465248,-1.604287,-2.4730096,6.1714716
1747672495.3310971,3.912909,1.1352323,1.3465248,-1.604287,-2.4730096,6.1714716
1747672495.3326397,3.912909,1.1352323,1.3465248,-1.604287,-2.4730096,6.1714716
1747672495.333771,3.912909,1.1352323,1.3465248,-1.604287,-2.4730096,6.1714716
1747672495.3347344,3.912909,1.1352323,1.3465248,-1.604287,-2.4730096,6.1714716
1747672495.335978,3.912909,1.1352323,1.3465248,-1.604287,-2.4730096,6.1714716
1747672495.3371215,3.8772764,1.2411531,1.0897766,-1.3305143,-2.2780664,5.427918
1747672495.3380985,3.8772764,1.2411531,1.0897766,-1.3305143,-2.2780664,5.427918
1747672495.3389113,3.8772764,1.2411531,1.0897766,-1.3305143,-2.2780664,5.427918
1747672495.3398614,3.8772764,1.2411531,1.0897766,-1.3305143,-2.2780664,5.427918
1747672495.3407378,3.8772764,1.2411531,1.0897766,-1.3305143,-2.2780664,5.427918
1747672495.3415513,3.8772764,1.2411531,1.0897766,-1.3305143,-2.2780664,5.427918
1747672495.3427203,3.8772764,1.2411531,1.0897766,-1.3305143,-2.2780664,5.427918
1747672495.3435194,3.8772764,1.2411531,1.0897766,-1.3305143,-2.2780664,5.427918
1747672495.3443298,3.396484,1.3221802,0.91307914,-1.2186615,-2.0074894,4.5863595
1747672495.345116,3.396484,1.3221802,0.91307914,-1.2186615,-2.0074894,4.5863595
1747672495.3460748,3.396484,1.3221802,0.91307914,-1.2186615,-2.0074894,4.5863595
1747672495.3473108,3.396484,1.3221802,0.91307914,-1.2186615,-2.0074894,4.5863595
1747672495.348988,3.396484,1.3221802,0.91307914,-1.2186615,-2.0074894,4.5863595
1747672495.350163,3.396484,1.3221802,0.91307914,-1.2186615,-2.0074894,4.5863595
1747672495.3509505,3.396484,1.3221802,0.91307914,-1.2186615,-2.0074894,4.5863595
1747672495.3517368,3.396484,1.3221802,0.91307914,-1.2186615,-2.0074894,4.5863595
1747672495.352549,3.396484,1.3221802,0.91307914,-1.2186615,-2.0074894,4.5863595
1747672495.353597,3.396484,1.3221802,0.91307914,-1.2186615,-2.0074894,4.5863595
1747672495.3543918,2.9737766,1.3329186,0.8989239,-1.2186615,-2.0074894,4.5863595
1747672495.3556488,2.9737766,1.3329186,0.8989239,-1.1558111,-1.8572872,4.129361
1747672495.3566785,2.9737766,1.3329186,0.8989239,-1.1558111,-1.8572872,4.129361
1747672495.3574948,2.9737766,1.3329186,0.8989239,-1.1558111,-1.8572872,4.129361
1747672495.3584943,2.9737766,1.3329186,0.8989239,-1.1558111,-1.8572872,4.129361
1747672495.3595157,2.9737766,1.3329186,0.8989239,-1.1558111,-1.8572872,4.129361
1747672495.3603096,2.9737766,1.3329186,0.8989239,-1.1558111,-1.8572872,4.129361
1747672495.361485,2.9737766,1.3329186,0.8989239,-1.1558111,-1.8572872,4.129361
1747672495.3622909,2.9737766,1.3329186,0.8989239,-1.1558111,-1.8572872,4.129361
1747672495.3630884,2.9737766,1.3329186,0.8989239,-1.1558111,-1.8572872,4.129361
1747672495.3638825,2.9737766,1.3329186,0.8989239,-1.1558111,-1.8572872,4.129361
1747672495.3646986,2.9737766,1.3329186,0.8989239,-1.1558111,-1.8572872,4.129361
1747672495.3655179,2.9737766,1.3329186,0.8989239,-1.1558111,-1.8572872,4.129361
1747672495.3662815,2.9737766,1.3329186,0.8989239,-1.1558111,-1.8572872,4.129361
1747672495.3670244,2.9737766,1.3329186,0.8989239,-1.1558111,-1.8572872,4.129361
1747672495.3677528,1.956546,1.3275493,0.9179603,-0.9906952,-1.7422386,3.5914032
1747672495.3684797,1.956546,1.3275493,0.9179603,-0.9906952,-1.7422386,3.5914032
1747672495.3692205,1.956546,1.3275493,0.9179603,-0.9906952,-1.7422386,3.5914032
1747672495.3699121,1.956546,1.3275493,0.9179603,-0.9906952,-1.7422386,3.5914032
1747672495.370622,1.956546,1.3275493,0.9179603,-0.9906952,-1.7422386,3.5914032
1747672495.371408,1.956546,1.3275493,0.9179603,-0.9906952,-1.7422386,3.5914032
1747672495.372159,1.956546,1.3275493,0.9179603,-0.9906952,-1.7422386,3.5914032
1747672495.3728876,1.956546,1.3275493,0.9179603,-0.9906952,-1.7422386,3.5914032
1747672495.3735802,1.956546,1.3275493,0.9179603,-0.9906952,-1.7422386,3.5914032
1747672495.3742888,1.956546,1.3275493,0.9179603,-0.9906952,-1.7422386,3.5914032
1747672495.375016,1.2434106,1.3480502,0.8833042,-0.68496454,-1.7699355,3.380481
1747672495.3757231,1.2434106,1.3480502,0.8833042,-0.68496454,-1.7699355,3.380481
1747672495.37642,1.2434106,1.3480502,0.8833042,-0.68496454,-1.7699355,3.380481
1747672495.377162,1.2434106,1.3480502,0.8833042,-0.68496454,-1.7699355,3.380481
1747672495.3779073,1.2434106,1.3480502,0.8833042,-0.68496454,-1.7699355,3.380481
1747672495.3802774,1.2434106,1.3480502,0.8833042,-0.68496454,-1.7699355,3.380481
1747672495.381306,1.2434106,1.3480502,0.8833042,-0.68496454,-1.7699355,3.380481
1747672495.3822606,1.2434106,1.3480502,0.8833042,-0.68496454,-1.7699355,3.380481
1747672495.383106,1.2434106,1.3480502,0.8833042,-0.68496454,-1.7699355,3.380481
1747672495.383905,1.2434106,1.3480502,0.8833042,-0.68496454,-1.7699355,3.380481
1747672495.3846893,1.2434106,1.3480502,0.8833042,-0.68496454,-1.7699355,3.380481
1747672495.3857617,1.2434106,1.3480502,0.8833042,-0.68496454,-1.7699355,3.380481
1747672495.3874462,0.73577154,1.4076002,0.737358,-0.44101915,-1.8306556,3.4561148
1747672495.3884847,0.73577154,1.4076002,0.737358,-0.44101915,-1.8306556,3.4561148
1747672495.3894343,0.73577154,1.4076002,0.737358,-0.44101915,-1.8306556,3.4561148
1747672495.3905158,0.73577154,1.4076002,0.737358,-0.44101915,-1.8306556,3.4561148
1747672495.3916557,0.73577154,1.4076002,0.737358,-0.44101915,-1.8306556,3.4561148
1747672495.3924818,0.73577154,1.4076002,0.737358,-0.44101915,-1.8306556,3.4561148
1747672495.394226,0.73577154,1.4076002,0.737358,-0.44101915,-1.8306556,3.4561148
1747672495.3950262,0.73577154,1.4076002,0.737358,-0.44101915,-1.8306556,3.4561148
1747672495.3962274,0.73577154,1.4076002,0.737358,-0.44101915,-1.8306556,3.4561148
1747672495.397326,0.73577154,1.4076002,0.737358,-0.44101915,-1.8306556,3.4561148
1747672495.3984,0.73577154,1.4076002,0.737358,-0.44101915,-1.8306556,3.4561148
1747672495.3992522,0.73577154,1.4076002,0.737358,-0.44101915,-1.8306556,3.4561148
1747672495.4000843,0.5058697,1.5306051,0.50501543,-0.32384014,-1.7816534,3.6542537
1747672495.400917,0.5058697,1.5306051,0.50501543,-0.32384014,-1.7816534,3.6542537
1747672495.4019337,0.5058697,1.5306051,0.50501543,-0.32384014,-1.7816534,3.6542537
1747672495.4027946,0.5058697,1.5306051,0.50501543,-0.32384014,-1.7816534,3.6542537
1747672495.4036086,0.5058697,1.5306051,0.50501543,-0.32384014,-1.7816534,3.6542537
1747672495.4044175,0.5058697,1.5306051,0.50501543,-0.32384014,-1.7816534,3.6542537
1747672495.4063272,0.5058697,1.5306051,0.50501543,-0.32384014,-1.7816534,3.6542537
1747672495.4071126,0.5058697,1.5306051,0.50501543,-0.32384014,-1.7816534,3.6542537
1747672495.4082365,0.52929914,1.7448874,0.3712721,-0.34727594,-1.6325165,3.6702328
1747672495.4092364,0.52929914,1.7448874,0.3712721,-0.34727594,-1.6325165,3.6702328
1747672495.4100535,0.52929914,1.7448874,0.3712721,-0.34727594,-1.6325165,3.6702328
1747672495.4108531,0.52929914,1.7448874,0.3712721,-0.34727594,-1.6325165,3.6702328
1747672495.4116302,0.52929914,1.7448874,0.3712721,-0.34727594,-1.6325165,3.6702328
1747672495.4124424,0.52929914,1.7448874,0.3712721,-0.42610547,-1.4343776,3.4262874
1747672495.4132242,0.52929914,1.7448874,0.3712721,-0.42610547,-1.4343776,3.4262874
1747672495.4139953,0.52929914,1.7448874,0.3712721,-0.42610547,-1.4343776,3.4262874
1747672495.4147806,0.5844561,2.0323868,0.25656518,-0.42610547,-1.4343776,3.4262874
1747672495.4154892,0.5844561,2.0323868,0.25656518,-0.42610547,-1.4343776,3.4262874
1747672495.416236,0.5844561,2.0323868,0.25656518,-0.42610547,-1.4343776,3.4262874
1747672495.4169824,0.5844561,2.0323868,0.25656518,-0.42610547,-1.4343776,3.4262874
1747672495.4177628,0.5844561,2.0323868,0.25656518,-0.42610547,-1.4343776,3.4262874
1747672495.4185357,0.5844561,2.0323868,0.25656518,-0.42610547,-1.4343776,3.4262874
1747672495.419279,0.5844561,2.0323868,0.25656518,-0.42610547,-1.4343776,3.4262874
1747672495.420027,0.5844561,2.0323868,0.25656518,-0.42610547,-1.4343776,3.4262874
1747672495.4207304,0.5844561,2.0323868,0.25656518,-0.42610547,-1.4343776,3.4262874
1747672495.4214196,0.5844561,2.0323868,0.25656518,-0.42610547,-1.4343776,3.4262874
1747672495.422112,0.5844561,2.0323868,0.25656518,-0.42610547,-1.4343776,3.4262874
1747672495.4228358,0.49025002,2.404818,0.18822916,-0.51132655,-1.2586089,2.956506
1747672495.423584,0.49025002,2.404818,0.18822916,-0.51132655,-1.2586089,2.956506
1747672495.4243603,0.49025002,2.404818,0.18822916,-0.51132655,-1.2586089,2.956506
1747672495.4251554,0.49025002,2.404818,0.18822916,-0.51132655,-1.2586089,2.956506
1747672495.426749,0.49025002,2.404818,0.18822916,-0.51132655,-1.2586089,2.956506
1747672495.4278984,0.49025002,2.404818,0.18822916,-0.51132655,-1.2586089,2.956506
1747672495.429004,0.49025002,2.404818,0.18822916,-0.51132655,-1.2586089,2.956506
1747672495.4298534,0.49025002,2.404818,0.18822916,-0.51132655,-1.2586089,2.956506
1747672495.4308956,0.49025002,2.404818,0.18822916,-0.51132655,-1.2586089,2.956506
1747672495.4319236,0.49025002,2.404818,0.18822916,-0.51132655,-1.2586089,2.956506
1747672495.4328723,0.49025002,2.404818,0.18822916,-0.51132655,-1.2586089,2.956506
1747672495.4339478,0.49025002,2.404818,0.18822916,-0.51132655,-1.2586089,2.956506
1747672495.4350982,0.49025002,2.404818,0.18822916,-0.51132655,-1.2586089,2.956506
1747672495.4360752,0.27450338,2.800679,0.19457464,-0.5305013,-1.0913626,2.3716764
1747672495.4370701,0.27450338,2.800679,0.19457464,-0.5305013,-1.0913626,2.3716764
1747672495.4378574,0.27450338,2.800679,0.19457464,-0.5305013,-1.0913626,2.3716764
1747672495.4386687,0.27450338,2.800679,0.19457464,-0.5305013,-1.0913626,2.3716764
1747672495.44188,0.27450338,2.800679,0.19457464,-0.5305013,-1.0913626,2.3716764
1747672495.442674,0.27450338,2.800679,0.19457464,-0.5305013,-1.0913626,2.3716764
1747672495.443612,0.27450338,2.800679,0.19457464,-0.5305013,-1.0913626,2.3716764
1747672495.4445317,-0.04862841,3.133085,0.23996928,-0.42823598,-1.0775142,1.780455
1747672495.4453342,-0.04862841,3.133085,0.23996928,-0.42823598,-1.0775142,1.780455
1747672495.4461424,-0.04862841,3.133085,0.23996928,-0.42823598,-1.0775142,1.780455
1747672495.447228,-0.04862841,3.133085,0.23996928,-0.42823598,-1.0775142,1.780455
1747672495.4488091,-0.04862841,3.133085,0.23996928,-0.42823598,-1.0775142,1.780455
1747672495.450568,-0.04862841,3.133085,0.23996928,-0.42823598,-1.0775142,1.780455
1747672495.4513845,-0.04862841,3.133085,0.23996928,-0.42823598,-1.0775142,1.780455
1747672495.4532843,-0.04862841,3.133085,0.23996928,-0.42823598,-1.0775142,1.780455
1747672495.4540958,-0.04862841,3.133085,0.23996928,-0.42823598,-1.0775142,1.780455
1747672495.4551764,-0.04862841,3.133085,0.23996928,-0.42823598,-1.0775142,1.780455
1747672495.4563694,-0.2799947,3.3405337,0.23752871,-0.25459802,-1.2500869,1.2297137
1747672495.4571896,-0.2799947,3.3405337,0.23752871,-0.25459802,-1.2500869,1.2297137
1747672495.457987,-0.2799947,3.3405337,0.23752871,-0.25459802,-1.2500869,1.2297137
1747672495.4588227,-0.2799947,3.3405337,0.23752871,-0.25459802,-1.2500869,1.2297137
1747672495.459635,-0.2799947,3.3405337,0.23752871,-0.25459802,-1.2500869,1.2297137
1747672495.4604132,-0.2799947,3.3405337,0.23752871,-0.25459802,-1.2500869,1.2297137
1747672495.4611647,-0.2799947,3.3405337,0.23752871,-0.25459802,-1.2500869,1.2297137
1747672495.4619024,-0.2799947,3.3405337,0.23752871,-0.25459802,-1.2500869,1.2297137
1747672495.4626417,-0.2799947,3.3405337,0.23752871,-0.25459802,-1.2500869,1.2297137
1747672495.4633653,-0.2799947,3.3405337,0.23752871,-0.25459802,-1.2500869,1.2297137
1747672495.464102,-0.3610217,3.4117982,0.17163326,-0.25459802,-1.2500869,1.2297137
1747672495.464816,-0.3610217,3.4117982,0.17163326,-0.25459802,-1.2500869,1.2297137
1747672495.4655166,-0.3610217,3.4117982,0.17163326,-0.16618113,-1.4322469,0.8941557
1747672495.4662187,-0.3610217,3.4117982,0.17163326,-0.16618113,-1.4322469,0.8941557
1747672495.4669492,-0.3610217,3.4117982,0.17163326,-0.16618113,-1.4322469,0.8941557
1747672495.4676847,-0.3610217,3.4117982,0.17163326,-0.16618113,-1.4322469,0.8941557
1747672495.4684317,-0.3610217,3.4117982,0.17163326,-0.16618113,-1.4322469,0.8941557
1747672495.469137,-0.3610217,3.4117982,0.17163326,-0.16618113,-1.4322469,0.8941557
1747672495.469843,-0.3610217,3.4117982,0.17163326,-0.16618113,-1.4322469,0.8941557
1747672495.470559,-0.3610217,3.4117982,0.17163326,-0.16618113,-1.4322469,0.8941557
1747672495.4713013,-0.3610217,3.4117982,0.17163326,-0.16618113,-1.4322469,0.8941557
1747672495.4726703,-0.3610217,3.4117982,0.17163326,-0.16618113,-1.4322469,0.8941557
1747672495.4737015,-0.3610217,3.4117982,0.17163326,-0.16618113,-1.4322469,0.8941557
1747672495.4747858,-0.3610217,3.4117982,0.17163326,-0.16618113,-1.4322469,0.8941557
1747672495.4758437,-0.3610217,3.4117982,0.17163326,-0.16618113,-1.4322469,0.8941557
1747672495.476834,-0.3610217,3.4117982,0.17163326,-0.16618113,-1.4322469,0.8941557
1747672495.4785745,-0.35467622,3.4044764,0.068641104,-0.16298534,-1.7006934,0.28908592
1747672495.4807017,-0.35467622,3.4044764,0.068641104,-0.16298534,-1.7006934,0.28908592
1747672495.4818726,-0.35467622,3.4044764,0.068641104,-0.16298534,-1.7006934,0.28908592
1747672495.482727,-0.35467622,3.4044764,0.068641104,-0.16298534,-1.7006934,0.28908592
1747672495.4835448,-0.35467622,3.4044764,0.068641104,-0.16298534,-1.7006934,0.28908592
1747672495.4843678,-0.35467622,3.4044764,0.068641104,-0.16298534,-1.7006934,0.28908592
1747672495.48571,-0.35467622,3.4044764,0.068641104,-0.16298534,-1.7006934,0.28908592
1747672495.4872313,-0.35467622,3.4044764,0.068641104,-0.16298534,-1.7006934,0.28908592
1747672495.4884083,-0.29707867,3.2463274,-0.049482606,-0.5219792,-1.8157419,-0.47896916
1747672495.489525,-0.29707867,3.2463274,-0.049482606,-0.5219792,-1.8157419,-0.47896916
1747672495.4906127,-0.29707867,3.2463274,-0.049482606,-0.5219792,-1.8157419,-0.47896916
1747672495.4914277,-0.29707867,3.2463274,-0.049482606,-0.5219792,-1.8157419,-0.47896916
1747672495.4922252,-0.29707867,3.2463274,-0.049482606,-0.5219792,-1.8157419,-0.47896916
1747672495.493284,-0.29707867,3.2463274,-0.049482606,-0.5219792,-1.8157419,-0.47896916
1747672495.494267,-0.29707867,3.2463274,-0.049482606,-0.5219792,-1.8157419,-0.47896916
1747672495.4952278,-0.29707867,3.2463274,-0.049482606,-0.5219792,-1.8157419,-0.47896916
1747672495.4962242,-0.29707867,3.2463274,-0.049482606,-0.5219792,-1.8157419,-0.47896916
1747672495.4972262,-0.29707867,3.2463274,-0.049482606,-0.5219792,-1.8157419,-0.47896916
1747672495.4982271,-0.29707867,3.2463274,-0.049482606,-0.5219792,-1.8157419,-0.47896916
1747672495.499229,-0.29707867,3.2463274,-0.049482606,-0.5219792,-1.8157419,-0.47896916
1747672495.5002384,-0.29707867,3.2463274,-0.049482606,-0.5219792,-1.8157419,-0.47896916
1747672495.5012276,-0.29707867,3.2463274,-0.049482606,-0.5219792,-1.8157419,-0.47896916
1747672495.502489,-0.29707867,3.2463274,-0.049482606,-0.5219792,-1.8157419,-0.47896916
1747672495.5032425,-0.29707867,3.2463274,-0.049482606,-0.5219792,-1.8157419,-0.47896916
1747672495.5042276,-0.29707867,3.2463274,-0.049482606,-0.5219792,-1.8157419,-0.47896916
1747672495.5052285,0.13880756,2.6786504,0.5108728,-0.5219792,-1.8157419,-0.47896916
1747672495.5060349,0.13880756,2.6786504,0.5108728,-1.6990955,-1.2543479,-1.601757
1747672495.506864,0.13880756,2.6786504,0.5108728,-1.6990955,-1.2543479,-1.601757
1747672495.5076363,0.13880756,2.6786504,0.5108728,-1.6990955,-1.2543479,-1.601757
1747672495.5084016,0.13880756,2.6786504,0.5108728,-1.6990955,-1.2543479,-1.601757
1747672495.509163,0.13880756,2.6786504,0.5108728,-1.6990955,-1.2543479,-1.601757
1747672495.5099485,0.13880756,2.6786504,0.5108728,-1.6990955,-1.2543479,-1.601757
1747672495.5106843,0.13880756,2.6786504,0.5108728,-1.6990955,-1.2543479,-1.601757
1747672495.5115209,0.13880756,2.6786504,0.5108728,-1.6990955,-1.2543479,-1.601757
1747672495.5122533,0.13880756,2.6786504,0.5108728,-1.6990955,-1.2543479,-1.601757
1747672495.5129833,0.558586,2.4121397,0.9745816,-1.6990955,-1.2543479,-1.601757
1747672495.5136817,0.558586,2.4121397,0.9745816,-1.9686072,-0.866592,-2.0193403
1747672495.5144255,0.558586,2.4121397,0.9745816,-1.9686072,-0.866592,-2.0193403
1747672495.5151668,0.558586,2.4121397,0.9745816,-1.9686072,-0.866592,-2.0193403
1747672495.5158958,0.558586,2.4121397,0.9745816,-1.9686072,-0.866592,-2.0193403
1747672495.5166364,0.558586,2.4121397,0.9745816,-1.9686072,-0.866592,-2.0193403
1747672495.5173695,0.558586,2.4121397,0.9745816,-1.9686072,-0.866592,-2.0193403
1747672495.518109,0.558586,2.4121397,0.9745816,-1.9686072,-0.866592,-2.0193403
1747672495.519566,0.558586,2.4121397,0.9745816,-1.9686072,-0.866592,-2.0193403
1747672495.5211103,0.558586,2.4121397,0.9745816,-1.9686072,-0.866592,-2.0193403
1747672495.5219064,0.558586,2.4121397,0.9745816,-1.9686072,-0.866592,-2.0193403
1747672495.522694,0.558586,2.4121397,0.9745816,-1.9686072,-0.866592,-2.0193403
1747672495.523544,0.558586,2.4121397,0.9745816,-1.9686072,-0.866592,-2.0193403
1747672495.5243301,0.558586,2.4121397,0.9745816,-1.9686072,-0.866592,-2.0193403
1747672495.5251155,1.1067386,2.152951,1.4080273,-1.9313229,-0.4490086,-2.4923174
1747672495.5259638,1.1067386,2.152951,1.4080273,-1.9313229,-0.4490086,-2.4923174
1747672495.526881,1.1067386,2.152951,1.4080273,-1.9313229,-0.4490086,-2.4923174
1747672495.5276644,1.1067386,2.152951,1.4080273,-1.9313229,-0.4490086,-2.4923174
1747672495.528582,1.1067386,2.152951,1.4080273,-1.9313229,-0.4490086,-2.4923174
1747672495.5293655,1.1067386,2.152951,1.4080273,-1.9313229,-0.4490086,-2.4923174
1747672495.5302813,1.1067386,2.152951,1.4080273,-1.9313229,-0.4490086,-2.4923174
1747672495.5310762,1.1067386,2.152951,1.4080273,-1.9313229,-0.4490086,-2.4923174
1747672495.5318573,1.1067386,2.152951,1.4080273,-1.9313229,-0.4490086,-2.4923174
1747672495.5329528,1.1067386,2.152951,1.4080273,-1.9313229,-0.4490086,-2.4923174
1747672495.5337613,1.1067386,2.152951,1.4080273,-1.9313229,-0.4490086,-2.4923174
1747672495.5346208,1.1067386,2.152951,1.4080273,-1.9313229,-0.4490086,-2.4923174
1747672495.5354087,1.1067386,2.152951,1.4080273,-1.9313229,-0.4490086,-2.4923174
1747672495.5362258,1.1067386,2.152951,1.4080273,-1.9313229,-0.4490086,-2.4923174
1747672495.5370579,1.6407359,1.8830237,1.8053524,-1.600026,0.09427583,-3.1261494
1747672495.5378485,1.6407359,1.8830237,1.8053524,-1.600026,0.09427583,-3.1261494
1747672495.5389605,1.6407359,1.8830237,1.8053524,-1.600026,0.09427583,-3.1261494
1747672495.5399451,1.6407359,1.8830237,1.8053524,-1.600026,0.09427583,-3.1261494
1747672495.5409129,1.6407359,1.8830237,1.8053524,-1.600026,0.09427583,-3.1261494
1747672495.54171,1.6407359,1.8830237,1.8053524,-1.600026,0.09427583,-3.1261494
1747672495.5425172,1.6407359,1.8830237,1.8053524,-1.600026,0.09427583,-3.1261494
1747672495.543335,1.6407359,1.8830237,1.8053524,-1.600026,0.09427583,-3.1261494
1747672495.5441186,1.6407359,1.8830237,1.8053524,-1.600026,0.09427583,-3.1261494
1747672495.5449228,1.6407359,1.8830237,1.8053524,-1.600026,0.09427583,-3.1261494
1747672495.545751,1.6407359,1.8830237,1.8053524,-1.600026,0.09427583,-3.1261494
1747672495.5479553,1.6407359,1.8830237,1.8053524,-1.600026,0.09427583,-3.1261494
1747672495.5487351,1.6407359,1.8830237,1.8053524,-1.600026,0.09427583,-3.1261494
1747672495.5495186,1.6407359,1.8830237,1.8053524,-1.600026,0.09427583,-3.1261494
1747672495.5503798,1.6407359,1.8830237,1.8053524,-1.600026,0.09427583,-3.1261494
1747672495.551265,1.9848565,1.5462247,2.166069,-0.89162564,0.6428866,-3.9304233
1747672495.552102,1.9848565,1.5462247,2.166069,-0.89162564,0.6428866,-3.9304233
1747672495.5528977,1.9848565,1.5462247,2.166069,-0.89162564,0.6428866,-3.9304233
1747672495.5536566,1.9804636,1.1733052,2.191451,0.09693899,0.89961517,-4.7485456
1747672495.554416,1.9804636,1.1733052,2.191451,0.09693899,0.89961517,-4.7485456
1747672495.5551488,1.9804636,1.1733052,2.191451,0.09693899,0.89961517,-4.7485456
1747672495.5559025,1.9804636,1.1733052,2.191451,0.09693899,0.89961517,-4.7485456
1747672495.5566463,1.9804636,1.1733052,2.191451,0.09693899,0.89961517,-4.7485456
1747672495.5573785,1.9804636,1.1733052,2.191451,0.09693899,0.89961517,-4.7485456
1747672495.558075,1.9804636,1.1733052,2.191451,0.09693899,0.89961517,-4.7485456
1747672495.558766,1.9804636,1.1733052,2.191451,0.09693899,0.89961517,-4.7485456
1747672495.5594535,1.9804636,1.1733052,2.191451,0.09693899,0.89961517,-4.7485456
1747672495.5601456,1.9804636,1.1733052,2.191451,0.09693899,0.89961517,-4.7485456
1747672495.560879,1.9804636,1.1733052,2.191451,0.09693899,0.89961517,-4.7485456
1747672495.561622,1.9804636,1.1733052,2.191451,0.09693899,0.89961517,-4.7485456
1747672495.5623589,1.9804636,1.1733052,2.191451,0.09693899,0.89961517,-4.7485456
1747672495.5630605,1.9804636,1.1733052,2.191451,0.09693899,0.89961517,-4.7485456
1747672495.5637727,1.7837534,0.9014255,1.8663669,1.0514152,0.866592,-5.371725
1747672495.5645053,1.7837534,0.9014255,1.8663669,1.0514152,0.866592,-5.371725
1747672495.5652354,1.7837534,0.9014255,1.8663669,1.0514152,0.866592,-5.371725
1747672495.5667398,1.7837534,0.9014255,1.8663669,1.0514152,0.866592,-5.371725
1747672495.568192,1.7837534,0.9014255,1.8663669,1.0514152,0.866592,-5.371725
1747672495.569335,1.7837534,0.9014255,1.8663669,1.0514152,0.866592,-5.371725
1747672495.5703402,1.7837534,0.9014255,1.8663669,1.0514152,0.866592,-5.371725
1747672495.5714018,1.7837534,0.9014255,1.8663669,1.0514152,0.866592,-5.371725
1747672495.5722697,1.7837534,0.9014255,1.8663669,1.0514152,0.866592,-5.371725
1747672495.5731995,1.7837534,0.9014255,1.8663669,1.0514152,0.866592,-5.371725
1747672495.5741205,1.7837534,0.9014255,1.8663669,1.0514152,0.866592,-5.371725
1747672495.5750499,1.7837534,0.9014255,1.8663669,1.0514152,0.866592,-5.371725
1747672495.5760393,1.7837534,0.9014255,1.8663669,1.0514152,0.866592,-5.371725
1747672495.5768478,1.7837534,0.9014255,1.8663669,1.0514152,0.866592,-5.371725
1747672495.5776753,1.6060797,0.7286329,1.3958244,1.5733944,0.8239814,-5.6795864
1747672495.5784879,1.6060797,0.7286329,1.3958244,1.5733944,0.8239814,-5.6795864
1747672495.5808208,1.6060797,0.7286329,1.3958244,1.5733944,0.8239814,-5.6795864
1747672495.5817375,1.6060797,0.7286329,1.3958244,1.5733944,0.8239814,-5.6795864
1747672495.5827444,1.6060797,0.7286329,1.3958244,1.5733944,0.8239814,-5.6795864
1747672495.583558,1.6060797,0.7286329,1.3958244,1.5733944,0.8239814,-5.6795864
1747672495.5845015,1.6060797,0.7286329,1.3958244,1.5733944,0.8239814,-5.6795864
1747672495.585559,1.6060797,0.7286329,1.3958244,1.5733944,0.8239814,-5.6795864
1747672495.586469,1.6060797,0.7286329,1.3958244,1.5733944,0.8239814,-5.6795864
1747672495.5873332,1.6060797,0.7286329,1.3958244,1.5733944,0.8239814,-5.6795864
1747672495.5882647,1.6060797,0.7286329,1.3958244,1.5733944,0.8239814,-5.6795864
1747672495.589198,1.462086,0.59928256,0.74126285,1.7544892,0.8623309,-5.8447022
1747672495.5901117,1.462086,0.59928256,0.74126285,1.7544892,0.8623309,-5.8447022
1747672495.590941,1.462086,0.59928256,0.74126285,1.7544892,0.8623309,-5.8447022
1747672495.591759,1.462086,0.59928256,0.74126285,1.7544892,0.8623309,-5.8447022
1747672495.593779,1.462086,0.59928256,0.74126285,1.7544892,0.8623309,-5.8447022
1747672495.595108,1.462086,0.59928256,0.74126285,1.7544892,0.8623309,-5.8447022
1747672495.5959523,1.462086,0.59928256,0.74126285,1.7544892,0.8623309,-5.8447022
1747672495.5967638,1.462086,0.59928256,0.74126285,1.7544892,0.8623309,-5.8447022
1747672495.5975506,1.4816105,0.6036756,0.24826722,1.4519544,1.0061415,-5.825527
1747672495.5983727,1.4816105,0.6036756,0.24826722,1.4519544,1.0061415,-5.825527
1747672495.5991626,1.4816105,0.6036756,0.24826722,1.4519544,1.0061415,-5.825527
1747672495.5999267,1.4816105,0.6036756,0.24826722,1.4519544,1.0061415,-5.825527
1747672495.6006691,1.4816105,0.6036756,0.24826722,1.4519544,1.0061415,-5.825527
1747672495.6014264,1.4816105,0.6036756,0.24826722,1.4519544,1.0061415,-5.825527
1747672495.6022654,1.4816105,0.6036756,0.24826722,1.4519544,1.0061415,-5.825527
1747672495.6030452,1.4816105,0.6036756,0.24826722,1.4519544,1.0061415,-5.825527
1747672495.603746,1.4816105,0.6036756,0.24826722,1.4519544,1.0061415,-5.825527
1747672495.604459,1.4816105,0.6036756,0.24826722,1.4519544,1.0061415,-5.825527
1747672495.6051865,1.4816105,0.6036756,0.24826722,1.4519544,1.0061415,-5.825527
1747672495.605906,1.4816105,0.6036756,0.24826722,1.4519544,1.0061415,-5.825527
1747672495.6066544,1.4816105,0.6036756,0.24826722,1.4519544,1.0061415,-5.825527
1747672495.6073802,1.4816105,0.6036756,0.24826722,1.4519544,1.0061415,-5.825527
1747672495.6080976,1.7466567,0.72765666,0.13892959,1.4519544,1.0061415,-5.825527
1747672495.6088228,1.7466567,0.72765666,0.13892959,0.91293097,1.1691269,-5.7275233
1747672495.6095214,1.7466567,0.72765666,0.13892959,0.91293097,1.1691269,-5.7275233
1747672495.6102161,1.7466567,0.72765666,0.13892959,0.91293097,1.1691269,-5.7275233
1747672495.6109471,1.7466567,0.72765666,0.13892959,0.91293097,1.1691269,-5.7275233
1747672495.611682,1.7466567,0.72765666,0.13892959,0.91293097,1.1691269,-5.7275233
1747672495.613201,1.7466567,0.72765666,0.13892959,0.91293097,1.1691269,-5.7275233
1747672495.6142464,1.7466567,0.72765666,0.13892959,0.91293097,1.1691269,-5.7275233
1747672495.6151688,1.7466567,0.72765666,0.13892959,0.91293097,1.1691269,-5.7275233
1747672495.6161864,1.7466567,0.72765666,0.13892959,0.91293097,1.1691269,-5.7275233
1747672495.6169996,1.7466567,0.72765666,0.13892959,0.91293097,1.1691269,-5.7275233
1747672495.617796,1.7466567,0.72765666,0.13892959,0.91293097,1.1691269,-5.7275233
1747672495.6187115,1.7466567,0.72765666,0.13892959,0.91293097,1.1691269,-5.7275233
1747672495.61953,1.7466567,0.72765666,0.13892959,0.91293097,1.1691269,-5.7275233
1747672495.6204581,1.7466567,0.72765666,0.13892959,0.91293097,1.1691269,-5.7275233
1747672495.6214063,1.7466567,0.72765666,0.13892959,0.91293097,1.1691269,-5.7275233
1747672495.62231,2.233307,0.9448676,0.40641633,0.37603807,1.4109417,-5.5783863
1747672495.6232438,2.233307,0.9448676,0.40641633,0.37603807,1.4109417,-5.5783863
1747672495.6240485,2.233307,0.9448676,0.40641633,0.37603807,1.4109417,-5.5783863
1747672495.6248913,2.233307,0.9448676,0.40641633,0.37603807,1.4109417,-5.5783863
1747672495.6259942,2.233307,0.9448676,0.40641633,0.37603807,1.4109417,-5.5783863
1747672495.6268575,2.233307,0.9448676,0.40641633,0.37603807,1.4109417,-5.5783863
1747672495.6277857,3.060661,1.3163228,0.6338777,0.11185268,1.4556828,-5.383443
1747672495.6288834,3.060661,1.3163228,0.6338777,0.11185268,1.4556828,-5.383443
1747672495.629805,3.060661,1.3163228,0.6338777,0.11185268,1.4556828,-5.383443
1747672495.63109,3.060661,1.3163228,0.6338777,0.11185268,1.4556828,-5.383443
1747672495.632375,3.060661,1.3163228,0.6338777,0.11185268,1.4556828,-5.383443
1747672495.633531,3.060661,1.3163228,0.6338777,-0.069242135,1.5664701,-5.2279143
1747672495.6346333,3.060661,1.3163228,0.6338777,-0.069242135,1.5664701,-5.2279143
1747672495.6355612,3.060661,1.3163228,0.6338777,-0.069242135,1.5664701,-5.2279143
1747672495.6365643,3.060661,1.3163228,0.6338777,-0.069242135,1.5664701,-5.2279143
1747672495.6376572,3.060661,1.3163228,0.6338777,-0.069242135,1.5664701,-5.2279143
1747672495.6386936,3.060661,1.3163228,0.6338777,-0.069242135,1.5664701,-5.2279143
1747672495.63952,3.060661,1.3163228,0.6338777,-0.069242135,1.5664701,-5.2279143
1747672495.6417928,3.060661,1.3163228,0.6338777,-0.069242135,1.5664701,-5.2279143
1747672495.6425917,3.060661,1.3163228,0.6338777,-0.069242135,1.5664701,-5.2279143
1747672495.643393,3.060661,1.3163228,0.6338777,-0.069242135,1.5664701,-5.2279143
1747672495.6442237,5.841937,1.7385418,1.1429812,-0.08415583,1.9243988,-5.3418975
1747672495.645014,5.841937,1.7385418,1.1429812,-0.08415583,1.9243988,-5.3418975
1747672495.645801,5.841937,1.7385418,1.1429812,-0.08415583,1.9243988,-5.3418975
1747672495.646597,5.841937,1.7385418,1.1429812,-0.08415583,1.9243988,-5.3418975
1747672495.6473186,5.841937,1.7385418,1.1429812,-0.08415583,1.9243988,-5.3418975
1747672495.6480165,5.841937,1.7385418,1.1429812,-0.08415583,1.9243988,-5.3418975
1747672495.648714,5.841937,1.7385418,1.1429812,-0.08415583,1.9243988,-5.3418975
1747672495.6494458,5.841937,1.7385418,1.1429812,-0.08415583,1.9243988,-5.3418975
1747672495.6502035,5.841937,1.7385418,1.1429812,-0.08415583,1.9243988,-5.3418975
1747672495.6509347,5.841937,1.7385418,1.1429812,-0.08415583,1.9243988,-5.3418975
1747672495.6516373,5.841937,1.7385418,1.1429812,-0.08415583,1.9243988,-5.3418975
1747672495.6523938,7.213051,1.5925956,1.3699543,-0.08415583,1.9243988,-5.3418975
1747672495.6531365,7.213051,1.5925956,1.3699543,-0.08415583,1.9243988,-5.3418975
1747672495.653881,7.213051,1.5925956,1.3699543,0.103330575,2.4250727,-5.7797213
1747672495.654627,7.213051,1.5925956,1.3699543,0.103330575,2.4250727,-5.7797213
1747672495.6553607,7.213051,1.5925956,1.3699543,0.103330575,2.4250727,-5.7797213
1747672495.6560636,7.213051,1.5925956,1.3699543,0.103330575,2.4250727,-5.7797213
1747672495.6567545,7.213051,1.5925956,1.3699543,0.103330575,2.4250727,-5.7797213
1747672495.6574554,7.213051,1.5925956,1.3699543,0.103330575,2.4250727,-5.7797213
1747672495.6581922,7.213051,1.5925956,1.3699543,0.103330575,2.4250727,-5.7797213
1747672495.658945,7.213051,1.5925956,1.3699543,0.103330575,2.4250727,-5.7797213
1747672495.660426,7.213051,1.5925956,1.3699543,0.103330575,2.4250727,-5.7797213
1747672495.6615505,7.213051,1.5925956,1.3699543,0.103330575,2.4250727,-5.7797213
1747672495.6627095,7.7319164,1.5130329,1.3806928,0.103330575,2.4250727,-5.7797213
1747672495.663658,7.7319164,1.5130329,1.3806928,0.7169224,3.024816,-6.78533
1747672495.664705,7.7319164,1.5130329,1.3806928,0.7169224,3.024816,-6.78533
1747672495.6655548,7.7319164,1.5130329,1.3806928,0.7169224,3.024816,-6.78533
1747672495.6663766,7.7319164,1.5130329,1.3806928,0.7169224,3.024816,-6.78533
1747672495.6673057,7.7319164,1.5130329,1.3806928,0.7169224,3.024816,-6.78533
1747672495.6681783,7.7319164,1.5130329,1.3806928,0.7169224,3.024816,-6.78533
1747672495.6689885,7.7319164,1.5130329,1.3806928,0.7169224,3.024816,-6.78533
1747672495.669855,7.7319164,1.5130329,1.3806928,0.7169224,3.024816,-6.78533
1747672495.6706839,7.7319164,1.5130329,1.3806928,0.7169224,3.024816,-6.78533
1747672495.6714845,7.7319164,1.5130329,1.3806928,0.7169224,3.024816,-6.78533
1747672495.672293,7.7319164,1.5130329,1.3806928,0.7169224,3.024816,-6.78533
1747672495.6751335,7.7319164,1.5130329,1.3806928,0.7169224,3.024816,-6.78533
1747672495.6761644,7.708487,1.2679994,1.0170475,1.2815121,3.0216203,-7.5267534
1747672495.6775246,7.708487,1.2679994,1.0170475,1.2815121,3.0216203,-7.5267534
1747672495.678494,7.708487,1.2679994,1.0170475,1.2815121,3.0216203,-7.5267534
1747672495.6794298,7.708487,1.2679994,1.0170475,1.2815121,3.0216203,-7.5267534
1747672495.680239,7.708487,1.2679994,1.0170475,1.2815121,3.0216203,-7.5267534
1747672495.68106,7.708487,1.2679994,1.0170475,1.2815121,3.0216203,-7.5267534
1747672495.6819706,7.708487,1.2679994,1.0170475,1.2815121,3.0216203,-7.5267534
1747672495.6830173,7.708487,1.2679994,1.0170475,1.2815121,3.0216203,-7.5267534
1747672495.6840577,7.708487,1.2679994,1.0170475,1.5765902,2.9118981,-7.9794903
1747672495.684876,7.708487,1.2679994,1.0170475,1.5765902,2.9118981,-7.9794903
1747672495.6856737,7.708487,1.2679994,1.0170475,1.5765902,2.9118981,-7.9794903
1747672495.687285,7.708487,1.2679994,1.0170475,1.5765902,2.9118981,-7.9794903
1747672495.6881056,7.708487,1.2679994,1.0170475,1.5765902,2.9118981,-7.9794903
1747672495.688906,7.545457,1.0420024,0.6870822,1.5765902,2.9118981,-7.9794903
1747672495.6897078,7.545457,1.0420024,0.6870822,1.5765902,2.9118981,-7.9794903
1747672495.690683,7.545457,1.0420024,0.6870822,1.5765902,2.9118981,-7.9794903
1747672495.6915545,7.545457,1.0420024,0.6870822,1.5765902,2.9118981,-7.9794903
1747672495.6925747,7.545457,1.0420024,0.6870822,1.5765902,2.9118981,-7.9794903
1747672495.6931038,7.545457,1.0420024,0.6870822,1.5765902,2.9118981,-7.9794903
1747672495.6938565,7.545457,1.0420024,0.6870822,1.5765902,2.9118981,-7.9794903
1747672495.6946237,7.545457,1.0420024,0.6870822,1.5765902,2.9118981,-7.9794903
1747672495.6954474,7.545457,1.0420024,0.6870822,1.5765902,2.9118981,-7.9794903
1747672495.6961904,7.545457,1.0420024,0.6870822,1.5765902,2.9118981,-7.9794903
1747672495.696946,7.0919986,0.70081043,-0.10903258,1.6586155,2.9289424,-8.427966
1747672495.6976848,7.0919986,0.70081043,-0.10903258,1.6586155,2.9289424,-8.427966
1747672495.6984115,7.0919986,0.70081043,-0.10903258,1.6586155,2.9289424,-8.427966
1747672495.6991575,7.0919986,0.70081043,-0.10903258,1.6586155,2.9289424,-8.427966
1747672495.6998816,7.0919986,0.70081043,-0.10903258,1.6586155,2.9289424,-8.427966
1747672495.7005832,7.0919986,0.70081043,-0.10903258,1.6586155,2.9289424,-8.427966
1747672495.7013187,7.0919986,0.70081043,-0.10903258,1.6586155,2.9289424,-8.427966
1747672495.702053,7.0919986,0.70081043,-0.10903258,1.6586155,2.9289424,-8.427966
1747672495.7027566,7.0919986,0.70081043,-0.10903258,1.6586155,2.9289424,-8.427966
1747672495.7034528,7.0919986,0.70081043,-0.10903258,1.6586155,2.9289424,-8.427966
1747672495.7041924,7.0919986,0.70081043,-0.10903258,1.6586155,2.9289424,-8.427966
1747672495.7048965,7.0919986,0.70081043,-0.10903258,1.6586155,2.9289424,-8.427966
1747672495.7056196,7.0919986,0.70081043,-0.10903258,1.6586155,2.9289424,-8.427966
1747672495.7063403,7.0919986,0.70081043,-0.10903258,1.6586155,2.9289424,-8.427966
1747672495.7079513,7.0919986,0.70081043,-0.10903258,1.6586155,2.9289424,-8.427966
1747672495.7103086,6.517488,0.4386929,-0.7943453,1.3209269,3.0013802,-8.713457
1747672495.7111154,6.517488,0.4386929,-0.7943453,1.3209269,3.0013802,-8.713457
1747672495.7119465,6.517488,0.4386929,-0.7943453,1.3209269,3.0013802,-8.713457
1747672495.7128491,6.517488,0.4386929,-0.7943453,1.3209269,3.0013802,-8.713457
1747672495.7136605,6.517488,0.4386929,-0.7943453,1.3209269,3.0013802,-8.713457
1747672495.7144623,6.517488,0.4386929,-0.7943453,1.3209269,3.0013802,-8.713457
1747672495.7152944,6.517488,0.4386929,-0.7943453,1.3209269,3.0013802,-8.713457
1747672495.7161024,6.517488,0.4386929,-0.7943453,1.3209269,3.0013802,-8.713457
1747672495.7170475,6.517488,0.4386929,-0.7943453,1.3209269,3.0013802,-8.713457
1747672495.7178485,6.517488,0.4386929,-0.7943453,1.3209269,3.0013802,-8.713457
1747672495.718653,6.517488,0.4386929,-0.7943453,1.3209269,3.0013802,-8.713457
1747672495.7194655,5.7765303,0.08334555,-1.1560382,1.3209269,3.0013802,-8.713457
1747672495.7219381,5.7765303,0.08334555,-1.1560382,1.3209269,3.0013802,-8.713457
1747672495.7228532,5.7765303,0.08334555,-1.1560382,1.3209269,3.0013802,-8.713457
1747672495.723981,5.7765303,0.08334555,-1.1560382,1.3209269,3.0013802,-8.713457
1747672495.7253094,5.7765303,0.08334555,-1.1560382,1.3209269,3.0013802,-8.713457
1747672495.726129,5.1483264,-0.17145021,-0.9812932,-0.03834949,4.0091195,-8.793352
1747672495.7269373,5.1483264,-0.17145021,-0.9812932,-0.03834949,4.0091195,-8.793352
1747672495.7277977,5.1483264,-0.17145021,-0.9812932,-0.03834949,4.0091195,-8.793352
1747672495.7286897,5.1483264,-0.17145021,-0.9812932,-0.03834949,4.0091195,-8.793352
1747672495.729473,5.1483264,-0.17145021,-0.9812932,-0.03834949,4.0091195,-8.793352
1747672495.7304068,5.1483264,-0.17145021,-0.9812932,-0.03834949,4.0091195,-8.793352
1747672495.7313905,5.1483264,-0.17145021,-0.9812932,-0.03834949,4.0091195,-8.793352
1747672495.7323625,5.1483264,-0.17145021,-0.9812932,-0.03834949,4.0091195,-8.793352
1747672495.7333753,5.1483264,-0.17145021,-0.9812932,-0.03834949,4.0091195,-8.793352
1747672495.7343454,5.1483264,-0.17145021,-0.9812932,-0.03834949,4.0091195,-8.793352
1747672495.735165,5.1483264,-0.17145021,-0.9812932,-0.03834949,4.0091195,-8.793352
1747672495.7361596,5.1483264,-0.17145021,-0.9812932,-0.03834949,4.0091195,-8.793352
1747672495.7371826,4.4327507,-0.3188608,-0.58055115,-0.17363797,4.269044,-8.592017
1747672495.7381463,4.4327507,-0.3188608,-0.58055115,-0.17363797,4.269044,-8.592017
