timestamp,acc_x,acc_y,acc_z,gyro_x,gyro_y,gyro_z
1747679419.0522358,-0.17309761,0.55779284,0.87451816,0.4177165,0.08269109,-0.23728748
1747679419.0529764,-0.17309761,0.55779284,0.87451816,0.4177165,0.08269109,-0.23728748
1747679419.0535302,-0.17309761,0.55779284,0.87451816,0.4177165,0.08269109,-0.23728748
1747679419.0540836,-0.17309761,0.55779284,0.87451816,0.4177165,0.08269109,-0.23728748
1747679419.0546205,-0.17309761,0.55779284,0.87451816,0.4177165,0.08269109,-0.23728748
1747679419.0551455,-0.17309761,0.55779284,0.87451816,0.4177165,0.08269109,-0.23728748
1747679419.0556679,-0.17309761,0.55779284,0.87451816,0.4177165,0.08269109,-0.23728748
1747679419.0561898,-0.17309761,0.55779284,0.87451816,0.4177165,0.08269109,-0.23728748
1747679419.0567117,-0.17309761,0.55779284,0.87451816,0.4177165,0.08269109,-0.23728748
1747679419.0572352,-0.17309761,0.55779284,0.87451816,0.4177165,0.08269109,-0.23728748
1747679419.057757,-0.17309761,0.55779284,0.87451816,0.4177165,0.08269109,-0.23728748
1747679419.0582786,-0.17309761,0.55779284,0.87451816,0.4177165,0.08269109,-0.23728748
1747679419.0588005,-0.17309761,0.55779284,0.87451816,0.4177165,0.08269109,-0.23728748
1747679419.059322,-0.17309761,0.55779284,0.87451816,0.4177165,0.08269109,-0.23728748
1747679419.0598435,-0.17309761,0.55779284,0.87451816,0.4177165,0.08269109,-0.23728748
1747679419.060366,-0.17309761,0.55779284,0.87451816,0.4177165,0.08269109,-0.23728748
1747679419.0608938,-0.17309761,0.55779284,0.87451816,0.4177165,0.08269109,-0.23728748
1747679419.061423,-0.16528776,0.5612097,0.80178905,0.35699648,-0.045140546,-0.25859275
1747679419.0619462,-0.16528776,0.5612097,0.80178905,0.35699648,-0.045140546,-0.25859275
1747679419.0624683,-0.16528776,0.5612097,0.80178905,0.35699648,-0.045140546,-0.25859275
1747679419.0629902,-0.16528776,0.5612097,0.80178905,0.35699648,-0.045140546,-0.25859275
1747679419.0635252,-0.16528776,0.5612097,0.80178905,0.35699648,-0.045140546,-0.25859275
1747679419.0640821,-0.16528776,0.5612097,0.80178905,0.35699648,-0.045140546,-0.25859275
1747679419.064649,-0.16528776,0.5612097,0.80178905,0.35699648,-0.045140546,-0.25859275
1747679419.0652645,-0.16528776,0.5612097,0.80178905,0.35699648,-0.045140546,-0.25859275
1747679419.0658422,-0.16528776,0.5612097,0.80178905,0.35699648,-0.045140546,-0.25859275
1747679419.0663936,-0.16528776,0.5612097,0.80178905,0.35699648,-0.045140546,-0.25859275
1747679419.0669303,-0.16528776,0.5612097,0.80178905,0.35699648,-0.045140546,-0.25859275
1747679419.0674536,-0.16528776,0.5612097,0.80178905,0.35699648,-0.045140546,-0.25859275
1747679419.067976,-0.16528776,0.5612097,0.80178905,0.35699648,-0.045140546,-0.25859275
1747679419.0684977,-0.16528776,0.5612097,0.80178905,0.35699648,-0.045140546,-0.25859275
1747679419.069019,-0.16528776,0.5612097,0.80178905,0.35699648,-0.045140546,-0.25859275
1747679419.0695403,-0.16528776,0.5612097,0.80178905,0.35699648,-0.045140546,-0.25859275
1747679419.0700638,-0.16528776,0.5612097,0.80178905,0.35699648,-0.045140546,-0.25859275
1747679419.0705853,-0.16528776,0.5612097,0.80178905,0.35699648,-0.045140546,-0.25859275
1747679419.071107,-0.16528776,0.5612097,0.80178905,0.35699648,-0.045140546,-0.25859275
1747679419.0716488,-0.16528776,0.5612097,0.80178905,0.35699648,-0.045140546,-0.25859275
1747679419.0721986,-0.1296554,0.5695076,0.7383342,0.35699648,-0.045140546,-0.25859275
1747679419.0727522,-0.1296554,0.5695076,0.7383342,0.35699648,-0.045140546,-0.25859275
1747679419.073284,-0.1296554,0.5695076,0.7383342,0.08855004,-0.038748965,-0.2543317
1747679419.073833,-0.1296554,0.5695076,0.7383342,0.08855004,-0.038748965,-0.2543317
1747679419.0743911,-0.1296554,0.5695076,0.7383342,0.08855004,-0.038748965,-0.2543317
1747679419.074919,-0.1296554,0.5695076,0.7383342,0.08855004,-0.038748965,-0.2543317
1747679419.0754406,-0.1296554,0.5695076,0.7383342,0.08855004,-0.038748965,-0.2543317
1747679419.0759625,-0.1296554,0.5695076,0.7383342,0.08855004,-0.038748965,-0.2543317
1747679419.0764844,-0.1296554,0.5695076,0.7383342,0.08855004,-0.038748965,-0.2543317
1747679419.0770059,-0.1296554,0.5695076,0.7383342,0.08855004,-0.038748965,-0.2543317
1747679419.0775316,-0.1296554,0.5695076,0.7383342,0.08855004,-0.038748965,-0.2543317
1747679419.0780578,-0.1296554,0.5695076,0.7383342,0.08855004,-0.038748965,-0.2543317
1747679419.0785913,-0.1296554,0.5695076,0.7383342,0.08855004,-0.038748965,-0.2543317
1747679419.0791469,-0.1296554,0.5695076,0.7383342,0.08855004,-0.038748965,-0.2543317
1747679419.0797017,-0.1296554,0.5695076,0.7383342,0.08855004,-0.038748965,-0.2543317
1747679419.0802572,-0.1296554,0.5695076,0.7383342,0.08855004,-0.038748965,-0.2543317
1747679419.080899,-0.1296554,0.5695076,0.7383342,0.08855004,-0.038748965,-0.2543317
1747679419.0814614,-0.1296554,0.5695076,0.7383342,0.08855004,-0.038748965,-0.2543317
1747679419.082012,-0.11940502,0.5665789,0.73052436,-0.0126500055,-0.01105211,-0.259658
1747679419.0825572,-0.11940502,0.5665789,0.73052436,-0.0126500055,-0.01105211,-0.259658
1747679419.0832703,-0.11940502,0.5665789,0.73052436,-0.0126500055,-0.01105211,-0.259658
1747679419.0838268,-0.11940502,0.5665789,0.73052436,-0.0126500055,-0.01105211,-0.259658
1747679419.0843806,-0.11940502,0.5665789,0.73052436,-0.0126500055,-0.01105211,-0.259658
1747679419.0849326,-0.11940502,0.5665789,0.73052436,-0.0126500055,-0.01105211,-0.259658
1747679419.0854647,-0.11940502,0.5665789,0.73052436,-0.0126500055,-0.01105211,-0.259658
1747679419.0859914,-0.11940502,0.5665789,0.73052436,-0.0126500055,-0.01105211,-0.259658
1747679419.0865183,-0.11940502,0.5665789,0.73052436,-0.0126500055,-0.01105211,-0.259658
1747679419.0870545,-0.11940502,0.5665789,0.73052436,-0.0126500055,-0.01105211,-0.259658
1747679419.0876205,-0.11940502,0.5665789,0.73052436,-0.0126500055,-0.01105211,-0.259658
1747679419.10236,-0.122821815,0.5402207,0.7851932,-0.0126500055,-0.01105211,-0.259658
1747679419.1030402,-0.122821815,0.5402207,0.7851932,-0.0126500055,-0.01105211,-0.259658
1747679419.1041195,-0.15064433,0.537292,0.82717097,-0.0126500055,-0.01105211,-0.259658
1747679419.1047819,-0.15064433,0.537292,0.82717097,-0.0126500055,-0.01105211,-0.259658
1747679419.1056042,-0.15064433,0.537292,0.82717097,-0.0126500055,-0.01105211,-0.259658
1747679419.106176,-0.15064433,0.537292,0.82717097,-0.0126500055,-0.01105211,-0.259658
1747679419.10673,-0.15064433,0.537292,0.82717097,-0.0126500055,-0.01105211,-0.259658
1747679419.1072586,-0.15064433,0.537292,0.82717097,-0.0126500055,-0.01105211,-0.259658
1747679419.1077812,-0.15064433,0.537292,0.82717097,-0.0126500055,-0.01105211,-0.259658
1747679419.1083047,-0.15064433,0.537292,0.82717097,-0.0126500055,-0.01105211,-0.259658
1747679419.108827,-0.15064433,0.537292,0.82717097,-0.0126500055,-0.01105211,-0.259658
1747679419.1093566,-0.15064433,0.537292,0.82717097,-0.0126500055,-0.01105211,-0.259658
1747679419.1098957,-0.15064433,0.537292,0.82717097,-0.0126500055,-0.01105211,-0.259658
1747679419.1108797,-0.15064433,0.537292,0.82717097,-0.0126500055,-0.01105211,-0.259658
1747679419.111558,-0.15064433,0.537292,0.82717097,-0.0126500055,-0.01105211,-0.259658
1747679419.1121907,-0.15064433,0.537292,0.82717097,-0.0126500055,-0.01105211,-0.259658
1747679419.112739,-0.15064433,0.537292,0.82717097,-0.40679756,-0.02277001,-0.356597
1747679419.1132836,-0.15064433,0.537292,0.82717097,-0.40679756,-0.02277001,-0.356597
1747679419.1138294,-0.15064433,0.537292,0.82717097,-0.40679756,-0.02277001,-0.356597
1747679419.1143885,-0.15064433,0.537292,0.82717097,-0.40679756,-0.02277001,-0.356597
1747679419.1149359,-0.15064433,0.537292,0.82717097,-0.40679756,-0.02277001,-0.356597
1747679419.115474,-0.18481235,0.5402207,0.89355457,-0.40679756,-0.02277001,-0.356597
1747679419.1160123,-0.18481235,0.5402207,0.89355457,-0.40679756,-0.02277001,-0.356597
1747679419.1165485,-0.18481235,0.5402207,0.89355457,-0.40679756,-0.02277001,-0.356597
1747679419.117086,-0.18481235,0.5402207,0.89355457,-0.40679756,-0.02277001,-0.356597
1747679419.117622,-0.18481235,0.5402207,0.89355457,-0.40679756,-0.02277001,-0.356597
1747679419.1181576,-0.18481235,0.5402207,0.89355457,-0.40679756,-0.02277001,-0.356597
1747679419.1187034,-0.18481235,0.5402207,0.89355457,-0.40679756,-0.02277001,-0.356597
1747679419.119244,-0.18481235,0.5402207,0.89355457,-0.40679756,-0.02277001,-0.356597
1747679419.119784,-0.18481235,0.5402207,0.89355457,-0.40679756,-0.02277001,-0.356597
1747679419.1203382,-0.18481235,0.5402207,0.89355457,-0.40679756,-0.02277001,-0.356597
1747679419.120896,-0.18481235,0.5402207,0.89355457,-0.40679756,-0.02277001,-0.356597
1747679419.1222792,-0.18481235,0.5402207,0.89355457,-0.40679756,-0.02277001,-0.356597
1747679419.1228466,-0.18481235,0.5402207,0.89355457,-0.40679756,-0.02277001,-0.356597
1747679419.1233978,-0.18481235,0.5402207,0.89355457,-0.40679756,-0.02277001,-0.356597
1747679419.1239548,-0.22874266,0.52460104,0.95212835,-0.30240172,-0.23582274,-0.3832286
1747679419.124507,-0.22874266,0.52460104,0.95212835,-0.30240172,-0.23582274,-0.3832286
1747679419.125035,-0.22874266,0.52460104,0.95212835,-0.30240172,-0.23582274,-0.3832286
1747679419.1255698,-0.22874266,0.52460104,0.95212835,-0.30240172,-0.23582274,-0.3832286
1747679419.1261284,-0.22874266,0.52460104,0.95212835,-0.30240172,-0.23582274,-0.3832286
1747679419.1267233,-0.22874266,0.52460104,0.95212835,-0.30240172,-0.23582274,-0.3832286
1747679419.127293,-0.22874266,0.52460104,0.95212835,-0.30240172,-0.23582274,-0.3832286
1747679419.127853,-0.22874266,0.52460104,0.95212835,-0.30240172,-0.23582274,-0.3832286
1747679419.1284273,-0.22874266,0.52460104,0.95212835,-0.30240172,-0.23582274,-0.3832286
1747679419.1289728,-0.22874266,0.52460104,0.95212835,-0.30240172,-0.23582274,-0.3832286
1747679419.1295204,-0.22874266,0.52460104,0.95212835,-0.30240172,-0.23582274,-0.3832286
1747679419.130067,-0.26144633,0.51337445,0.9452948,-0.30240172,-0.23582274,-0.3832286
1747679419.1306045,-0.26144633,0.51337445,0.9452948,-0.14900376,-0.3103912,-0.36724964
1747679419.1311293,-0.26144633,0.51337445,0.9452948,-0.14900376,-0.3103912,-0.36724964
1747679419.1316514,-0.26144633,0.51337445,0.9452948,-0.14900376,-0.3103912,-0.36724964
1747679419.132173,-0.26144633,0.51337445,0.9452948,-0.14900376,-0.3103912,-0.36724964
1747679419.1326942,-0.26144633,0.51337445,0.9452948,-0.14900376,-0.3103912,-0.36724964
1747679419.1332157,-0.26144633,0.51337445,0.9452948,-0.14900376,-0.3103912,-0.36724964
1747679419.1337376,-0.26144633,0.51337445,0.9452948,-0.14900376,-0.3103912,-0.36724964
1747679419.1342735,-0.26144633,0.51337445,0.9452948,-0.14900376,-0.3103912,-0.36724964
1747679419.134806,-0.26144633,0.51337445,0.9452948,-0.14900376,-0.3103912,-0.36724964
1747679419.1353292,-0.26144633,0.51337445,0.9452948,-0.14900376,-0.3103912,-0.36724964
1747679419.135851,-0.26144633,0.51337445,0.9452948,-0.14900376,-0.3103912,-0.36724964
1747679419.1363723,-0.26144633,0.51337445,0.9452948,-0.14900376,-0.3103912,-0.36724964
1747679419.1368937,-0.26144633,0.51337445,0.9452948,-0.14900376,-0.3103912,-0.36724964
1747679419.1374154,-0.26144633,0.51337445,0.9452948,-0.14900376,-0.3103912,-0.36724964
1747679419.137937,-0.26144633,0.51337445,0.9452948,-0.14900376,-0.3103912,-0.36724964
1747679419.1384583,-0.26144633,0.51337445,0.9452948,-0.14900376,-0.3103912,-0.36724964
1747679419.1389906,-0.26144633,0.51337445,0.9452948,-0.14900376,-0.3103912,-0.36724964
1747679419.139512,-0.26144633,0.51337445,0.9452948,-0.14900376,-0.3103912,-0.36724964
1747679419.1400337,-0.26144633,0.51337445,0.9452948,-0.14900376,-0.3103912,-0.36724964
1747679419.1405685,-0.26144633,0.51337445,0.9452948,-0.14900376,-0.3103912,-0.36724964
1747679419.1411057,-0.26144633,0.51337445,0.9452948,-0.14900376,-0.3103912,-0.36724964
1747679419.1416507,-0.26144633,0.51337445,0.9452948,-0.14900376,-0.3103912,-0.36724964
1747679419.1426644,-0.25949386,0.50702894,0.9223533,-0.032890014,-0.3508712,-0.35553175
1747679419.143227,-0.25949386,0.50702894,0.9223533,-0.032890014,-0.3508712,-0.35553175
1747679419.1437757,-0.25949386,0.50702894,0.9223533,-0.032890014,-0.3508712,-0.35553175
1747679419.1443162,-0.25949386,0.50702894,0.9223533,-0.032890014,-0.3508712,-0.35553175
1747679419.1448436,-0.25949386,0.50702894,0.9223533,-0.032890014,-0.3508712,-0.35553175
1747679419.1453667,-0.25949386,0.50702894,0.9223533,-0.032890014,-0.3508712,-0.35553175
1747679419.1458893,-0.25949386,0.50702894,0.9223533,-0.032890014,-0.3508712,-0.35553175
1747679419.1464121,-0.25949386,0.50702894,0.9223533,-0.032890014,-0.3508712,-0.35553175
1747679419.1469355,-0.25949386,0.50702894,0.9223533,-0.032890014,-0.3508712,-0.35553175
1747679419.1474586,-0.25949386,0.50702894,0.9223533,-0.032890014,-0.3508712,-0.35553175
1747679419.1479812,-0.25949386,0.50702894,0.9223533,-0.032890014,-0.3508712,-0.35553175
1747679419.1485033,-0.25949386,0.50702894,0.9223533,-0.032890014,-0.3508712,-0.35553175
1747679419.1490257,-0.25949386,0.50702894,0.9223533,-0.032890014,-0.3508712,-0.35553175
1747679419.1495523,-0.25949386,0.50702894,0.9223533,-0.032890014,-0.3508712,-0.35553175
1747679419.1500955,-0.24143364,0.5026359,0.9047812,0.03635212,-0.34980595,-0.31505173
1747679419.1506226,-0.24143364,0.5026359,0.9047812,0.03635212,-0.34980595,-0.31505173
1747679419.1511478,-0.24143364,0.5026359,0.9047812,0.03635212,-0.34980595,-0.31505173
1747679419.1516724,-0.24143364,0.5026359,0.9047812,0.03635212,-0.34980595,-0.31505173
1747679419.1522026,-0.24143364,0.5026359,0.9047812,0.03635212,-0.34980595,-0.31505173
1747679419.1527297,-0.24143364,0.5026359,0.9047812,0.03635212,-0.34980595,-0.31505173
1747679419.1532557,-0.24143364,0.5026359,0.9047812,0.03635212,-0.34980595,-0.31505173
1747679419.153781,-0.24143364,0.5026359,0.9047812,0.03635212,-0.34980595,-0.31505173
1747679419.154318,-0.24143364,0.5026359,0.9047812,0.03635212,-0.34980595,-0.31505173
1747679419.1548693,-0.24143364,0.5026359,0.9047812,0.03635212,-0.34980595,-0.31505173
1747679419.155398,-0.24143364,0.5026359,0.9047812,0.03635212,-0.34980595,-0.31505173
1747679419.1559234,-0.24143364,0.5026359,0.9047812,0.03635212,-0.34980595,-0.31505173
1747679419.156456,-0.24143364,0.5026359,0.9047812,0.03635212,-0.34980595,-0.31505173
1747679419.157006,-0.24143364,0.5026359,0.9047812,0.03635212,-0.34980595,-0.31505173
1747679419.1576064,-0.24143364,0.5026359,0.9047812,0.03635212,-0.34980595,-0.31505173
1747679419.158171,-0.24143364,0.5026359,0.9047812,0.03635212,-0.34980595,-0.31505173
1747679419.1587179,-0.24143364,0.5026359,0.9047812,0.03635212,-0.34980595,-0.31505173
1747679419.15925,-0.24143364,0.5026359,0.9047812,0.03635212,-0.34980595,-0.31505173
1747679419.15978,-0.24143364,0.5026359,0.9047812,0.03635212,-0.34980595,-0.31505173
1747679419.160314,-0.24143364,0.5026359,0.9047812,0.03635212,-0.34980595,-0.31505173
1747679419.1608398,-0.24143364,0.5026359,0.9047812,0.03635212,-0.34980595,-0.31505173
1747679419.161364,-0.24143364,0.5026359,0.9047812,0.03635212,-0.34980595,-0.31505173
1747679419.1618867,-0.24143364,0.5026359,0.9047812,0.03635212,-0.34980595,-0.31505173
1747679419.162408,-0.24143364,0.5026359,0.9047812,0.03635212,-0.34980595,-0.31505173
1747679419.1629477,-0.24143364,0.5026359,0.9047812,0.060853187,-0.31997856,-0.23728748
1747679419.1634853,-0.24143364,0.5026359,0.9047812,0.060853187,-0.31997856,-0.23728748
1747679419.1640134,-0.24143364,0.5026359,0.9047812,0.060853187,-0.31997856,-0.23728748
1747679419.1645381,-0.24143364,0.5026359,0.9047812,0.060853187,-0.31997856,-0.23728748
1747679419.1650693,-0.24533854,0.5021478,0.89355457,0.060853187,-0.31997856,-0.23728748
1747679419.1655986,-0.24533854,0.5021478,0.89355457,0.060853187,-0.31997856,-0.23728748
1747679419.1661224,-0.24533854,0.5021478,0.89355457,0.060853187,-0.31997856,-0.23728748
1747679419.1666443,-0.24533854,0.5021478,0.89355457,0.060853187,-0.31997856,-0.23728748
1747679419.1671653,-0.24533854,0.5021478,0.89355457,0.060853187,-0.31997856,-0.23728748
1747679419.1676898,-0.24533854,0.5021478,0.89355457,0.060853187,-0.31997856,-0.23728748
1747679419.168214,-0.24533854,0.5021478,0.89355457,0.060853187,-0.31997856,-0.23728748
1747679419.168736,-0.24533854,0.5021478,0.89355457,0.060853187,-0.31997856,-0.23728748
1747679419.1692739,-0.24533854,0.5021478,0.89355457,0.060853187,-0.31997856,-0.23728748
1747679419.1698043,-0.24240986,0.5094695,0.8896497,0.044874232,-0.32956594,-0.15313165
1747679419.1703267,-0.24240986,0.5094695,0.8896497,0.044874232,-0.32956594,-0.15313165
1747679419.170845,-0.24240986,0.5094695,0.8896497,0.044874232,-0.32956594,-0.15313165
1747679419.1713889,-0.24240986,0.5094695,0.8896497,0.044874232,-0.32956594,-0.15313165
1747679419.171952,-0.24240986,0.5094695,0.8896497,0.044874232,-0.32956594,-0.15313165
1747679419.1725621,-0.24240986,0.5094695,0.8896497,0.044874232,-0.32956594,-0.15313165
1747679419.1749003,-0.24240986,0.5094695,0.8896497,0.044874232,-0.32956594,-0.15313165
1747679419.1767097,-0.24240986,0.5094695,0.8896497,0.044874232,-0.32956594,-0.15313165
1747679419.1772704,-0.24240986,0.5094695,0.8896497,0.044874232,-0.32956594,-0.15313165
1747679419.177804,-0.24240986,0.5094695,0.8896497,0.044874232,-0.32956594,-0.15313165
1747679419.178331,-0.24240986,0.5094695,0.8896497,0.044874232,-0.32956594,-0.15313165
1747679419.1788576,-0.24240986,0.5094695,0.8896497,0.044874232,-0.32956594,-0.15313165
1747679419.179384,-0.24240986,0.5094695,0.8896497,0.044874232,-0.32956594,-0.15313165
1747679419.1799104,-0.24240986,0.5094695,0.8896497,0.044874232,-0.32956594,-0.15313165
1747679419.1804364,-0.24240986,0.5094695,0.8896497,0.044874232,-0.32956594,-0.15313165
1747679419.1809707,-0.24240986,0.5094695,0.8896497,0.044874232,-0.32956594,-0.15313165
1747679419.181497,-0.24240986,0.5094695,0.8896497,0.044874232,-0.32956594,-0.15313165
1747679419.1820238,-0.24240986,0.5094695,0.8896497,0.044874232,-0.32956594,-0.15313165
1747679419.18255,-0.24240986,0.5094695,0.8896497,0.044874232,-0.32956594,-0.15313165
1747679419.1830935,-0.24240986,0.5094695,0.8896497,0.044874232,-0.32956594,-0.15313165
1747679419.183636,-0.24240986,0.5094695,0.8896497,0.044874232,-0.32956594,-0.15313165
1747679419.1841764,-0.24240986,0.5094695,0.8896497,0.044874232,-0.32956594,-0.15313165
1747679419.1847157,-0.24240986,0.5094695,0.8896497,0.044874232,-0.32956594,-0.15313165
1747679419.1852436,-0.24240986,0.5094695,0.8896497,0.044874232,-0.32956594,-0.15313165
1747679419.185791,-0.24240986,0.5094695,0.8896497,0.044874232,-0.32956594,-0.15313165
1747679419.186339,-0.20531316,0.52118427,0.8598747,0.011851058,-0.4009386,-0.084954776
1747679419.1868675,-0.20531316,0.52118427,0.8598747,0.011851058,-0.4009386,-0.084954776
1747679419.187405,-0.20531316,0.52118427,0.8598747,0.011851058,-0.4009386,-0.084954776
1747679419.1879668,-0.20531316,0.52118427,0.8598747,0.011851058,-0.4009386,-0.084954776
1747679419.1885133,-0.20531316,0.52118427,0.8598747,0.011851058,-0.4009386,-0.084954776
1747679419.1890721,-0.20531316,0.52118427,0.8598747,0.011851058,-0.4009386,-0.084954776
1747679419.1896284,-0.20531316,0.52118427,0.8598747,0.011851058,-0.4009386,-0.084954776
1747679419.1902258,-0.20531316,0.52118427,0.8598747,0.011851058,-0.4009386,-0.084954776
1747679419.190785,-0.20531316,0.52118427,0.8598747,0.011851058,-0.4009386,-0.084954776
1747679419.1913326,-0.20531316,0.52118427,0.8598747,0.011851058,-0.4009386,-0.084954776
1747679419.1918745,-0.20531316,0.52118427,0.8598747,0.011851058,-0.4009386,-0.084954776
1747679419.192413,-0.20531316,0.52118427,0.8598747,0.011851058,-0.4009386,-0.084954776
1747679419.193437,-0.20531316,0.52118427,0.8598747,0.011851058,-0.4009386,-0.084954776
1747679419.1939907,-0.20531316,0.52118427,0.8598747,0.011851058,-0.4009386,-0.084954776
1747679419.1945336,-0.20531316,0.52118427,0.8598747,0.011851058,-0.4009386,-0.084954776
1747679419.19507,-0.20531316,0.52118427,0.8598747,0.011851058,-0.4009386,-0.084954776
1747679419.1956086,-0.18578859,0.528506,0.82619476,-0.0105194785,-0.43396178,-0.052996866
1747679419.196149,-0.18578859,0.528506,0.82619476,-0.0105194785,-0.43396178,-0.052996866
1747679419.1966853,-0.18578859,0.528506,0.82619476,-0.0105194785,-0.43396178,-0.052996866
1747679419.1972206,-0.18578859,0.528506,0.82619476,-0.0105194785,-0.43396178,-0.052996866
1747679419.1977558,-0.18578859,0.528506,0.82619476,-0.0105194785,-0.43396178,-0.052996866
1747679419.1982908,-0.18578859,0.528506,0.82619476,-0.0105194785,-0.43396178,-0.052996866
1747679419.1988642,-0.18578859,0.528506,0.82619476,-0.0105194785,-0.43396178,-0.052996866
1747679419.1993995,-0.18578859,0.528506,0.82619476,-0.0105194785,-0.43396178,-0.052996866
1747679419.1999342,-0.18578859,0.528506,0.82619476,-0.0105194785,-0.43396178,-0.052996866
1747679419.2004693,-0.18578859,0.528506,0.82619476,-0.0105194785,-0.43396178,-0.052996866
1747679419.2010071,-0.18578859,0.528506,0.82619476,-0.0105194785,-0.43396178,-0.052996866
1747679419.2015429,-0.18578859,0.528506,0.82619476,-0.0105194785,-0.43396178,-0.052996866
1747679419.2020786,-0.18578859,0.528506,0.82619476,-0.0105194785,-0.43396178,-0.052996866
1747679419.2026136,-0.18578859,0.528506,0.82619476,-0.0105194785,-0.43396178,-0.052996866
1747679419.2032268,-0.19066972,0.5660908,0.7549301,-0.053130023,-0.46272388,-0.034887385
1747679419.2038045,-0.19066972,0.5660908,0.7549301,-0.053130023,-0.46272388,-0.034887385
1747679419.205529,-0.19066972,0.5660908,0.7549301,-0.053130023,-0.46272388,-0.034887385
1747679419.2060926,-0.19066972,0.5660908,0.7549301,-0.053130023,-0.46272388,-0.034887385
1747679419.206813,-0.19066972,0.5660908,0.7549301,-0.053130023,-0.46272388,-0.034887385
1747679419.2074027,-0.19066972,0.5660908,0.7549301,-0.053130023,-0.46272388,-0.034887385
1747679419.2079456,-0.19066972,0.5660908,0.7549301,-0.053130023,-0.46272388,-0.034887385
1747679419.2085013,-0.19066972,0.5660908,0.7549301,-0.053130023,-0.46272388,-0.034887385
1747679419.2090638,-0.19066972,0.5660908,0.7549301,-0.053130023,-0.46272388,-0.034887385
1747679419.2096217,-0.19066972,0.5660908,0.7549301,-0.053130023,-0.46272388,-0.034887385
1747679419.210169,-0.19066972,0.5660908,0.7549301,-0.053130023,-0.46272388,-0.034887385
1747679419.2107093,-0.19066972,0.5660908,0.7549301,-0.053130023,-0.46272388,-0.034887385
1747679419.2113223,-0.19066972,0.5660908,0.7549301,-0.053130023,-0.46272388,-0.034887385
1747679419.2118769,-0.17846686,0.5533998,0.74712026,-0.21291956,-0.5894903,0.03648528
1747679419.2124174,-0.17846686,0.5533998,0.74712026,-0.21291956,-0.5894903,0.03648528
1747679419.212948,-0.17846686,0.5533998,0.74712026,-0.21291956,-0.5894903,0.03648528
1747679419.2134707,-0.17846686,0.5533998,0.74712026,-0.21291956,-0.5894903,0.03648528
1747679419.2140133,-0.17846686,0.5533998,0.74712026,-0.21291956,-0.5894903,0.03648528
1747679419.21455,-0.17846686,0.5533998,0.74712026,-0.21291956,-0.5894903,0.03648528
1747679419.215074,-0.17846686,0.5533998,0.74712026,-0.21291956,-0.5894903,0.03648528
1747679419.2155998,-0.17846686,0.5533998,0.74712026,-0.21291956,-0.5894903,0.03648528
1747679419.2161222,-0.17846686,0.5533998,0.74712026,-0.21291956,-0.5894903,0.03648528
1747679419.2166705,-0.17846686,0.5533998,0.74712026,-0.21291956,-0.5894903,0.03648528
1747679419.2172213,-0.17846686,0.5533998,0.74712026,-0.21291956,-0.5894903,0.03648528
1747679419.2177796,-0.17846686,0.5533998,0.74712026,-0.21291956,-0.5894903,0.03648528
1747679419.2183592,-0.17846686,0.5533998,0.74712026,-0.21291956,-0.5894903,0.03648528
1747679419.2189152,-0.17846686,0.5533998,0.74712026,-0.21291956,-0.5894903,0.03648528
1747679419.2194657,-0.17846686,0.5533998,0.74712026,-0.21291956,-0.5894903,0.03648528
1747679419.2202497,-0.17846686,0.5533998,0.74712026,-0.21291956,-0.5894903,0.03648528
1747679419.220817,-0.17846686,0.5533998,0.74712026,-0.21291956,-0.5894903,0.03648528
1747679419.2213836,-0.17846686,0.5533998,0.74712026,-0.21291956,-0.5894903,0.03648528
1747679419.221933,-0.17846686,0.5533998,0.74712026,-0.21291956,-0.5894903,0.03648528
1747679419.222476,-0.17846686,0.5533998,0.74712026,-0.21291956,-0.5894903,0.03648528
1747679419.2230198,-0.17846686,0.5533998,0.74712026,-0.21291956,-0.5894903,0.03648528
1747679419.2235713,-0.17846686,0.5533998,0.74712026,-0.21291956,-0.5894903,0.03648528
1747679419.2241259,-0.17846686,0.5533998,0.74712026,-0.21291956,-0.5894903,0.03648528
1747679419.2246623,-0.17846686,0.5533998,0.74712026,-0.21291956,-0.5894903,0.03648528
1747679419.2252052,-0.14088205,0.5221605,0.7427272,-0.21291956,-0.5894903,0.03648528
1747679419.2257464,-0.14088205,0.5221605,0.7427272,-0.30666277,-0.54794496,0.06311687
1747679419.226271,-0.14088205,0.5221605,0.7427272,-0.30666277,-0.54794496,0.06311687
1747679419.2267933,-0.14088205,0.5221605,0.7427272,-0.30666277,-0.54794496,0.06311687
1747679419.2273152,-0.14088205,0.5221605,0.7427272,-0.30666277,-0.54794496,0.06311687
1747679419.2278368,-0.14088205,0.5221605,0.7427272,-0.30666277,-0.54794496,0.06311687
1747679419.228359,-0.14088205,0.5221605,0.7427272,-0.30666277,-0.54794496,0.06311687
1747679419.2288804,-0.14088205,0.5221605,0.7427272,-0.30666277,-0.54794496,0.06311687
1747679419.229402,-0.14088205,0.5221605,0.7427272,-0.30666277,-0.54794496,0.06311687
1747679419.2299235,-0.14088205,0.5221605,0.7427272,-0.30666277,-0.54794496,0.06311687
1747679419.230463,-0.14088205,0.5221605,0.7427272,-0.30666277,-0.54794496,0.06311687
1747679419.2309976,-0.14088205,0.5221605,0.7427272,-0.30666277,-0.54794496,0.06311687
1747679419.2315264,-0.14088205,0.5221605,0.7427272,-0.30666277,-0.54794496,0.06311687
1747679419.2320542,-0.14088205,0.5221605,0.7427272,-0.30666277,-0.54794496,0.06311687
1747679419.23258,-0.14088205,0.5221605,0.7427272,-0.30666277,-0.54794496,0.06311687
1747679419.233105,-0.14088205,0.5221605,0.7427272,-0.30666277,-0.54794496,0.06311687
1747679419.2337093,-0.14088205,0.5221605,0.7427272,-0.30666277,-0.54794496,0.06311687
1747679419.2342741,-0.14088205,0.5221605,0.7427272,-0.30666277,-0.54794496,0.06311687
1747679419.234814,-0.14088205,0.5221605,0.7427272,-0.30666277,-0.54794496,0.06311687
1747679419.2353635,-0.15015621,0.52118427,0.771526,-0.37803543,-0.52877027,0.08548741
1747679419.23605,-0.15015621,0.52118427,0.771526,-0.37803543,-0.52877027,0.08548741
1747679419.2366128,-0.15015621,0.52118427,0.771526,-0.37803543,-0.52877027,0.08548741
1747679419.23718,-0.15015621,0.52118427,0.771526,-0.37803543,-0.52877027,0.08548741
1747679419.2377164,-0.15015621,0.52118427,0.771526,-0.37803543,-0.52877027,0.08548741
1747679419.2382398,-0.15015621,0.52118427,0.771526,-0.37803543,-0.52877027,0.08548741
1747679419.238762,-0.15015621,0.52118427,0.771526,-0.37803543,-0.52877027,0.08548741
1747679419.2392845,-0.15015621,0.52118427,0.771526,-0.37803543,-0.52877027,0.08548741
1747679419.2398067,-0.15015621,0.52118427,0.771526,-0.37803543,-0.52877027,0.08548741
1747679419.240328,-0.15015621,0.52118427,0.771526,-0.37803543,-0.52877027,0.08548741
1747679419.2408497,-0.15015621,0.52118427,0.771526,-0.37803543,-0.52877027,0.08548741
1747679419.2413712,-0.15015621,0.52118427,0.771526,-0.37803543,-0.52877027,0.08548741
1747679419.2419007,-0.15015621,0.52118427,0.771526,-0.37803543,-0.52877027,0.08548741
1747679419.2424223,-0.15015621,0.52118427,0.771526,-0.37803543,-0.52877027,0.08548741
1747679419.242944,-0.15015621,0.52118427,0.771526,-0.37803543,-0.52877027,0.08548741
1747679419.2434654,-0.15015621,0.52118427,0.771526,-0.37803543,-0.52877027,0.08548741
1747679419.2440164,-0.15015621,0.52118427,0.771526,-0.37803543,-0.52877027,0.08548741
1747679419.2445605,-0.15015621,0.52118427,0.771526,-0.37803543,-0.52877027,0.08548741
1747679419.2451084,-0.15015621,0.52118427,0.771526,-0.37803543,-0.52877027,0.08548741
1747679419.2456715,-0.15015621,0.52118427,0.771526,-0.37803543,-0.52877027,0.08548741
1747679419.2462258,-0.15015621,0.52118427,0.771526,-0.37803543,-0.52877027,0.08548741
1747679419.2467546,-0.14381073,0.5343633,0.8213136,-0.41851544,-0.5617934,0.13875058
1747679419.2472804,-0.14381073,0.5343633,0.8213136,-0.41851544,-0.5617934,0.13875058
1747679419.2478285,-0.14381073,0.5343633,0.8213136,-0.41851544,-0.5617934,0.13875058
1747679419.2483552,-0.14381073,0.5343633,0.8213136,-0.41851544,-0.5617934,0.13875058
1747679419.2488945,-0.14381073,0.5343633,0.8213136,-0.41851544,-0.5617934,0.13875058
1747679419.2494452,-0.14381073,0.5343633,0.8213136,-0.41851544,-0.5617934,0.13875058
1747679419.2499948,-0.14381073,0.5343633,0.8213136,-0.41851544,-0.5617934,0.13875058
1747679419.250548,-0.14381073,0.5343633,0.8213136,-0.41851544,-0.5617934,0.13875058
1747679419.2511013,-0.14381073,0.5343633,0.8213136,-0.41851544,-0.5617934,0.13875058
1747679419.2517,-0.14381073,0.5343633,0.8213136,-0.41851544,-0.5617934,0.13875058
1747679419.2522519,-0.14918,0.53045845,0.8720776,-0.42703757,-0.55007553,0.1909485
1747679419.2527795,-0.14918,0.53045845,0.8720776,-0.42703757,-0.55007553,0.1909485
1747679419.253302,-0.14918,0.53045845,0.8720776,-0.42703757,-0.55007553,0.1909485
1747679419.2538242,-0.14918,0.53045845,0.8720776,-0.42703757,-0.55007553,0.1909485
1747679419.2543685,-0.14918,0.53045845,0.8720776,-0.42703757,-0.55007553,0.1909485
1747679419.25492,-0.14918,0.53045845,0.8720776,-0.42703757,-0.55007553,0.1909485
1747679419.255448,-0.14918,0.53045845,0.8720776,-0.42703757,-0.55007553,0.1909485
1747679419.25597,-0.14918,0.53045845,0.8720776,-0.42703757,-0.55007553,0.1909485
1747679419.2564917,-0.14918,0.53045845,0.8720776,-0.42703757,-0.55007553,0.1909485
1747679419.2570138,-0.14918,0.53045845,0.8720776,-0.42703757,-0.55007553,0.1909485
1747679419.2575355,-0.14918,0.53045845,0.8720776,-0.42703757,-0.55007553,0.1909485
1747679419.2580585,-0.14918,0.53045845,0.8720776,-0.42703757,-0.55007553,0.1909485
1747679419.2585804,-0.14918,0.53045845,0.8720776,-0.42703757,-0.55007553,0.1909485
1747679419.259102,-0.14918,0.53045845,0.8720776,-0.42703757,-0.55007553,0.1909485
1747679419.259624,-0.14918,0.53045845,0.8720776,-0.42703757,-0.55007553,0.1909485
1747679419.2601457,-0.14918,0.53045845,0.8720776,-0.42703757,-0.55007553,0.1909485
1747679419.260667,-0.14918,0.53045845,0.8720776,-0.42703757,-0.55007553,0.1909485
1747679419.2612147,-0.14918,0.53045845,0.8720776,-0.42703757,-0.55007553,0.1909485
1747679419.2618005,-0.14918,0.53045845,0.8720776,-0.42703757,-0.55007553,0.1909485
1747679419.262356,-0.14869188,0.50605273,0.91015047,-0.42277652,-0.5585976,0.23355906
1747679419.2629006,-0.14869188,0.50605273,0.91015047,-0.42277652,-0.5585976,0.23355906
1747679419.263447,-0.14869188,0.50605273,0.91015047,-0.42277652,-0.5585976,0.23355906
1747679419.2640638,-0.14869188,0.50605273,0.91015047,-0.42277652,-0.5585976,0.23355906
1747679419.264622,-0.14869188,0.50605273,0.91015047,-0.42277652,-0.5585976,0.23355906
1747679419.2651665,-0.14869188,0.50605273,0.91015047,-0.42277652,-0.5585976,0.23355906
1747679419.265712,-0.14869188,0.50605273,0.91015047,-0.42277652,-0.5585976,0.23355906
1747679419.2663279,-0.14869188,0.50605273,0.91015047,-0.42277652,-0.5585976,0.23355906
1747679419.2668912,-0.14869188,0.50605273,0.91015047,-0.42277652,-0.5585976,0.23355906
1747679419.2674441,-0.14869188,0.50605273,0.91015047,-0.42277652,-0.5585976,0.23355906
1747679419.2679808,-0.14869188,0.50605273,0.91015047,-0.42277652,-0.5585976,0.23355906
1747679419.268504,-0.14869188,0.50605273,0.91015047,-0.42277652,-0.5585976,0.23355906
1747679419.269026,-0.14869188,0.50605273,0.91015047,-0.42277652,-0.5585976,0.23355906
1747679419.269563,-0.14869188,0.50605273,0.91015047,-0.42277652,-0.5585976,0.23355906
1747679419.2700963,-0.14869188,0.50605273,0.91015047,-0.42277652,-0.5585976,0.23355906
1747679419.270653,-0.1867648,0.50361216,0.984832,-0.32690278,-0.65979767,0.34115067
1747679419.2712116,-0.1867648,0.50361216,0.984832,-0.32690278,-0.65979767,0.34115067
1747679419.2717636,-0.1867648,0.50361216,0.984832,-0.32690278,-0.65979767,0.34115067
1747679419.2723129,-0.1867648,0.50361216,0.984832,-0.32690278,-0.65979767,0.34115067
1747679419.2728477,-0.1867648,0.50361216,0.984832,-0.32690278,-0.65979767,0.34115067
1747679419.2733788,-0.1867648,0.50361216,0.984832,-0.32690278,-0.65979767,0.34115067
1747679419.2739322,-0.1867648,0.50361216,0.984832,-0.32690278,-0.65979767,0.34115067
1747679419.274487,-0.1867648,0.50361216,0.984832,-0.32690278,-0.65979767,0.34115067
1747679419.2750425,-0.1867648,0.50361216,0.984832,-0.32690278,-0.65979767,0.34115067
1747679419.275598,-0.1867648,0.50361216,0.984832,-0.32690278,-0.65979767,0.34115067
1747679419.276149,-0.1867648,0.50361216,0.984832,-0.32690278,-0.65979767,0.34115067
1747679419.2766829,-0.1867648,0.50361216,0.984832,-0.32690278,-0.65979767,0.34115067
1747679419.277209,-0.1867648,0.50361216,0.984832,-0.32690278,-0.65979767,0.34115067
1747679419.2777371,-0.1867648,0.50361216,0.984832,-0.32690278,-0.65979767,0.34115067
1747679419.2782707,-0.1867648,0.50361216,0.984832,-0.32690278,-0.65979767,0.34115067
1747679419.2787998,-0.1867648,0.50361216,0.984832,-0.32690278,-0.65979767,0.34115067
1747679419.2794254,-0.08426076,0.48359942,0.95847386,-0.32690278,-0.65979767,0.34115067
1747679419.2799776,-0.08426076,0.48359942,0.95847386,-0.32690278,-0.65979767,0.34115067
1747679419.280514,-0.08426076,0.48359942,0.95847386,-0.077631086,-0.68110293,0.76512563
1747679419.2810423,-0.08426076,0.48359942,0.95847386,-0.077631086,-0.68110293,0.76512563
1747679419.2815692,-0.08426076,0.48359942,0.95847386,-0.077631086,-0.68110293,0.76512563
1747679419.2821124,-0.08426076,0.48359942,0.95847386,-0.077631086,-0.68110293,0.76512563
1747679419.2826736,-0.08426076,0.48359942,0.95847386,-0.077631086,-0.68110293,0.76512563
1747679419.2832408,-0.08426076,0.48359942,0.95847386,-0.077631086,-0.68110293,0.76512563
1747679419.283782,-0.08426076,0.48359942,0.95847386,-0.077631086,-0.68110293,0.76512563
1747679419.2843251,-0.08426076,0.48359942,0.95847386,-0.077631086,-0.68110293,0.76512563
1747679419.2848654,-0.08426076,0.48359942,0.95847386,-0.077631086,-0.68110293,0.76512563
1747679419.285393,-0.08426076,0.48359942,0.95847386,-0.077631086,-0.68110293,0.76512563
1747679419.2859194,-0.08426076,0.48359942,0.95847386,-0.077631086,-0.68110293,0.76512563
1747679419.2864704,-0.08426076,0.48359942,0.95847386,-0.077631086,-0.68110293,0.76512563
1747679419.287026,-0.08426076,0.48359942,0.95847386,-0.077631086,-0.68110293,0.76512563
1747679419.287575,-0.08426076,0.48359942,0.95847386,-0.077631086,-0.68110293,0.76512563
1747679419.2881296,-0.08426076,0.48359942,0.95847386,-0.077631086,-0.68110293,0.76512563
1747679419.2886853,-0.08426076,0.48359942,0.95847386,-0.077631086,-0.68110293,0.76512563
1747679419.289235,-0.08426076,0.48359942,0.95847386,-0.077631086,-0.68110293,0.76512563
1747679419.2897916,-0.08426076,0.48359942,0.95847386,-0.077631086,-0.68110293,0.76512563
1747679419.2903411,0.030934256,0.5787818,0.82668287,0.07789741,-0.32317436,0.92491513
1747679419.2908874,0.030934256,0.5787818,0.82668287,0.07789741,-0.32317436,0.92491513
1747679419.2914362,0.030934256,0.5787818,0.82668287,0.07789741,-0.32317436,0.92491513
1747679419.2920046,0.030934256,0.5787818,0.82668287,0.07789741,-0.32317436,0.92491513
1747679419.2925553,0.030934256,0.5787818,0.82668287,0.07789741,-0.32317436,0.92491513
1747679419.2931051,0.030934256,0.5787818,0.82668287,0.07789741,-0.32317436,0.92491513
1747679419.293643,0.030934256,0.5787818,0.82668287,0.07789741,-0.32317436,0.92491513
1747679419.2941933,0.030934256,0.5787818,0.82668287,0.07789741,-0.32317436,0.92491513
1747679419.2950068,0.030934256,0.5787818,0.82668287,0.07789741,-0.32317436,0.92491513
1747679419.2955632,0.030934256,0.5787818,0.82668287,0.07789741,-0.32317436,0.92491513
1747679419.296124,0.030934256,0.5787818,0.82668287,0.07789741,-0.32317436,0.92491513
1747679419.2966747,0.030934256,0.5787818,0.82668287,0.07789741,-0.32317436,0.92491513
1747679419.2972298,0.030934256,0.5787818,0.82668287,0.07789741,-0.32317436,0.92491513
1747679419.2977834,0.030934256,0.5787818,0.82668287,0.07789741,-0.32317436,0.92491513
1747679419.298335,0.030934256,0.5787818,0.82668287,0.07789741,-0.32317436,0.92491513
1747679419.2988853,0.030934256,0.5787818,0.82668287,0.07789741,-0.32317436,0.92491513
1747679419.2994223,0.030934256,0.5787818,0.82668287,0.07789741,-0.32317436,0.92491513
1747679419.299966,0.030934256,0.5787818,0.82668287,0.07789741,-0.32317436,0.92491513
1747679419.3005188,0.030934256,0.5787818,0.82668287,0.07789741,-0.32317436,0.92491513
1747679419.3010736,0.030934256,0.5787818,0.82668287,0.07789741,-0.32317436,0.92491513
1747679419.3016243,0.030934256,0.5787818,0.82668287,0.07789741,-0.32317436,0.92491513
1747679419.3022413,0.0035998444,0.52118427,0.72222644,0.11518163,0.0677774,0.88550043
1747679419.3027918,0.0035998444,0.52118427,0.72222644,0.11518163,0.0677774,0.88550043
1747679419.3033655,0.0035998444,0.52118427,0.72222644,0.11518163,0.0677774,0.88550043
1747679419.3039348,0.0035998444,0.52118427,0.72222644,0.11518163,0.0677774,0.88550043
1747679419.304497,0.0035998444,0.52118427,0.72222644,0.11518163,0.0677774,0.88550043
1747679419.3050375,0.0035998444,0.52118427,0.72222644,0.11518163,0.0677774,0.88550043
1747679419.305562,0.0035998444,0.52118427,0.72222644,0.11518163,0.0677774,0.88550043
1747679419.306081,0.0035998444,0.52118427,0.72222644,0.11518163,0.0677774,0.88550043
1747679419.3065996,0.0035998444,0.52118427,0.72222644,0.11518163,0.0677774,0.88550043
1747679419.307118,0.0035998444,0.52118427,0.72222644,0.11518163,0.0677774,0.88550043
1747679419.3076358,0.0035998444,0.52118427,0.72222644,0.11518163,0.0677774,0.88550043
1747679419.3081536,0.0035998444,0.52118427,0.72222644,0.11518163,0.0677774,0.88550043
1747679419.308672,0.0035998444,0.52118427,0.72222644,0.11518163,0.0677774,0.88550043
1747679419.30919,0.0035998444,0.52118427,0.72222644,0.11518163,0.0677774,0.88550043
1747679419.3097084,0.0035998444,0.52118427,0.72222644,0.11518163,0.0677774,0.88550043
1747679419.310258,0.0035998444,0.52118427,0.72222644,0.11518163,0.0677774,0.88550043
1747679419.3108032,0.0035998444,0.52118427,0.72222644,0.11518163,0.0677774,0.88550043
1747679419.3113277,0.0035998444,0.52118427,0.72222644,0.11518163,0.0677774,0.88550043
1747679419.3118465,0.0035998444,0.52118427,0.72222644,0.11518163,0.0677774,0.88550043
1747679419.3123853,0.0035998444,0.52118427,0.72222644,0.09068057,0.34261543,0.7512772
1747679419.3129213,0.0035998444,0.52118427,0.72222644,0.09068057,0.34261543,0.7512772
1747679419.3134775,-0.020317765,0.4582175,0.68268913,0.09068057,0.34261543,0.7512772
1747679419.3140311,-0.020317765,0.4582175,0.68268913,0.09068057,0.34261543,0.7512772
1747679419.314581,-0.020317765,0.4582175,0.68268913,0.09068057,0.34261543,0.7512772
1747679419.3151057,-0.020317765,0.4582175,0.68268913,0.09068057,0.34261543,0.7512772
1747679419.3156242,-0.020317765,0.4582175,0.68268913,0.09068057,0.34261543,0.7512772
1747679419.3161426,-0.020317765,0.4582175,0.68268913,0.09068057,0.34261543,0.7512772
1747679419.316661,-0.020317765,0.4582175,0.68268913,0.09068057,0.34261543,0.7512772
1747679419.3171797,-0.020317765,0.4582175,0.68268913,0.09068057,0.34261543,0.7512772
1747679419.3176978,-0.020317765,0.4582175,0.68268913,0.09068057,0.34261543,0.7512772
1747679419.3182156,-0.020317765,0.4582175,0.68268913,0.09068057,0.34261543,0.7512772
1747679419.3187342,-0.020317765,0.4582175,0.68268913,0.09068057,0.34261543,0.7512772
1747679419.3192523,-0.020317765,0.4582175,0.68268913,0.09068057,0.34261543,0.7512772
1747679419.3197706,-0.020317765,0.4582175,0.68268913,0.09068057,0.34261543,0.7512772
1747679419.3202884,-0.020317765,0.4582175,0.68268913,0.09068057,0.34261543,0.7512772
1747679419.3208067,-0.020317765,0.4582175,0.68268913,0.09068057,0.34261543,0.7512772
1747679419.3213253,-0.037889887,0.4152634,0.63827074,0.09068057,0.34261543,0.7512772
1747679419.3218436,-0.037889887,0.4152634,0.63827074,0.09068057,0.34261543,0.7512772
1747679419.3223717,-0.037889887,0.4152634,0.63827074,0.00013315796,0.5183839,0.5456813
1747679419.3228905,-0.037889887,0.4152634,0.63827074,0.00013315796,0.5183839,0.5456813
1747679419.3234086,-0.037889887,0.4152634,0.63827074,0.00013315796,0.5183839,0.5456813
1747679419.3239267,-0.037889887,0.4152634,0.63827074,0.00013315796,0.5183839,0.5456813
1747679419.3244555,-0.037889887,0.4152634,0.63827074,0.00013315796,0.5183839,0.5456813
1747679419.3250198,-0.037889887,0.4152634,0.63827074,0.00013315796,0.5183839,0.5456813
1747679419.3255792,-0.037889887,0.4152634,0.63827074,0.00013315796,0.5183839,0.5456813
1747679419.3261302,-0.037889887,0.4152634,0.63827074,0.00013315796,0.5183839,0.5456813
1747679419.326672,-0.037889887,0.4152634,0.63827074,0.00013315796,0.5183839,0.5456813
1747679419.3272128,-0.037889887,0.4152634,0.63827074,0.00013315796,0.5183839,0.5456813
1747679419.327745,-0.037889887,0.4152634,0.63827074,0.00013315796,0.5183839,0.5456813
1747679419.3282652,-0.037889887,0.4152634,0.63827074,0.00013315796,0.5183839,0.5456813
1747679419.3287866,-0.037889887,0.4152634,0.63827074,0.00013315796,0.5183839,0.5456813
1747679419.3293257,-0.037889887,0.4152634,0.63827074,0.00013315796,0.5183839,0.5456813
1747679419.3298664,-0.037889887,0.4152634,0.63827074,0.00013315796,0.5183839,0.5456813
1747679419.3303993,-0.037889887,0.4152634,0.63827074,0.00013315796,0.5183839,0.5456813
1747679419.3309186,-0.037889887,0.4152634,0.63827074,0.00013315796,0.5183839,0.5456813
1747679419.331437,-0.037889887,0.4152634,0.63827074,0.00013315796,0.5183839,0.5456813
1747679419.3319554,-0.037889887,0.4152634,0.63827074,0.00013315796,0.5183839,0.5456813
1747679419.332473,-0.037889887,0.4152634,0.63827074,0.00013315796,0.5183839,0.5456813
1747679419.3329916,-0.037889887,0.4152634,0.63827074,0.00013315796,0.5183839,0.5456813
1747679419.3335278,-0.037889887,0.4152634,0.63827074,0.00013315796,0.5183839,0.5456813
1747679419.3340669,-0.037889887,0.4152634,0.63827074,0.00013315796,0.5183839,0.5456813
1747679419.334587,-0.037889887,0.4152634,0.63827074,0.00013315796,0.5183839,0.5456813
1747679419.3351064,-0.037889887,0.4152634,0.63827074,0.00013315796,0.5183839,0.5456813
1747679419.3356254,-0.2741373,0.2502807,0.61874616,-0.2384859,0.6589987,0.20905799
1747679419.3361437,-0.2741373,0.2502807,0.61874616,-0.2384859,0.6589987,0.20905799
1747679419.3366616,-0.2741373,0.2502807,0.61874616,-0.2384859,0.6589987,0.20905799
1747679419.3371794,-0.2741373,0.2502807,0.61874616,-0.2384859,0.6589987,0.20905799
1747679419.3376973,-0.2741373,0.2502807,0.61874616,-0.2384859,0.6589987,0.20905799
1747679419.338215,-0.2741373,0.2502807,0.61874616,-0.2384859,0.6589987,0.20905799
1747679419.3387327,-0.2741373,0.2502807,0.61874616,-0.2384859,0.6589987,0.20905799
1747679419.3392508,-0.2741373,0.2502807,0.61874616,-0.2384859,0.6589987,0.20905799
1747679419.339769,-0.2741373,0.2502807,0.61874616,-0.2384859,0.6589987,0.20905799
1747679419.3403292,-0.2741373,0.2502807,0.61874616,-0.2384859,0.6589987,0.20905799
1747679419.340869,-0.2741373,0.2502807,0.61874616,-0.2384859,0.6589987,0.20905799
1747679419.3414137,-0.2741373,0.2502807,0.61874616,-0.2384859,0.6589987,0.20905799
1747679419.3419528,-0.2741373,0.2502807,0.61874616,-0.2384859,0.6589987,0.20905799
1747679419.34248,-0.2741373,0.2502807,0.61874616,-0.2384859,0.6589987,0.20905799
1747679419.3430054,-0.2741373,0.2502807,0.61874616,-0.2384859,0.6589987,0.20905799
1747679419.343531,-0.2741373,0.2502807,0.61874616,-0.2384859,0.6589987,0.20905799
1747679419.34407,-0.2741373,0.2502807,0.61874616,-0.2384859,0.6589987,0.20905799
1747679419.3446276,-0.2741373,0.2502807,0.61874616,-0.2384859,0.6589987,0.20905799
1747679419.3451881,-0.2741373,0.2502807,0.61874616,-0.2384859,0.6589987,0.20905799
1747679419.345748,-0.2741373,0.2502807,0.61874616,-0.2384859,0.6589987,0.20905799
1747679419.3462853,-0.2741373,0.2502807,0.61874616,-0.2384859,0.6589987,0.20905799
1747679419.3468063,-0.012507934,0.5265535,0.76566863,-0.461126,0.6941524,-0.29694223
1747679419.3473248,-0.012507934,0.5265535,0.76566863,-0.461126,0.6941524,-0.29694223
1747679419.3478434,-0.012507934,0.5265535,0.76566863,-0.461126,0.6941524,-0.29694223
1747679419.3483622,-0.012507934,0.5265535,0.76566863,-0.461126,0.6941524,-0.29694223
1747679419.3488803,-0.012507934,0.5265535,0.76566863,-0.461126,0.6941524,-0.29694223
1747679419.3493989,-0.012507934,0.5265535,0.76566863,-0.461126,0.6941524,-0.29694223
1747679419.3499177,-0.012507934,0.5265535,0.76566863,-0.461126,0.6941524,-0.29694223
1747679419.3504367,-0.012507934,0.5265535,0.76566863,-0.461126,0.6941524,-0.29694223
1747679419.35096,-0.012507934,0.5265535,0.76566863,-0.461126,0.6941524,-0.29694223
1747679419.3514793,-0.012507934,0.5265535,0.76566863,-0.461126,0.6941524,-0.29694223
1747679419.3519974,-0.012507934,0.5265535,0.76566863,-0.461126,0.6941524,-0.29694223
1747679419.3525157,-0.012507934,0.5265535,0.76566863,-0.461126,0.6941524,-0.29694223
1747679419.3530345,-0.012507934,0.5265535,0.76566863,-0.461126,0.6941524,-0.29694223
1747679419.3535526,-0.012507934,0.5265535,0.76566863,-0.461126,0.6941524,-0.29694223
1747679419.3540704,-0.012507934,0.5265535,0.76566863,-0.461126,0.6941524,-0.29694223
1747679419.354599,-0.012507934,0.5265535,0.76566863,-0.461126,0.6941524,-0.29694223
1747679419.3551328,-0.012507934,0.5265535,0.76566863,-0.461126,0.6941524,-0.29694223
1747679419.3556833,-0.07010544,0.67738086,0.89209026,-0.31838068,0.45979443,-0.5185171
1747679419.3562977,-0.07010544,0.67738086,0.89209026,-0.31838068,0.45979443,-0.5185171
1747679419.3568256,-0.07010544,0.67738086,0.89209026,-0.31838068,0.45979443,-0.5185171
1747679419.3573737,-0.07010544,0.67738086,0.89209026,-0.31838068,0.45979443,-0.5185171
1747679419.3579295,-0.07010544,0.67738086,0.89209026,-0.31838068,0.45979443,-0.5185171
1747679419.358462,-0.07010544,0.67738086,0.89209026,-0.31838068,0.45979443,-0.5185171
1747679419.3589818,-0.07010544,0.67738086,0.89209026,-0.31838068,0.45979443,-0.5185171
1747679419.3595016,-0.07010544,0.67738086,0.89209026,-0.31838068,0.45979443,-0.5185171
1747679419.36002,-0.07010544,0.67738086,0.89209026,-0.31838068,0.45979443,-0.5185171
1747679419.360541,-0.07010544,0.67738086,0.89209026,-0.31838068,0.45979443,-0.5185171
1747679419.3610952,-0.07010544,0.67738086,0.89209026,-0.2182459,0.13062796,-0.550475
1747679419.3616412,-0.07010544,0.67738086,0.89209026,-0.2182459,0.13062796,-0.550475
1747679419.3621726,-0.11940502,0.6314981,0.8989239,-0.2182459,0.13062796,-0.550475
1747679419.362693,-0.11940502,0.6314981,0.8989239,-0.2182459,0.13062796,-0.550475
1747679419.3632119,-0.11940502,0.6314981,0.8989239,-0.2182459,0.13062796,-0.550475
1747679419.3637407,-0.11940502,0.6314981,0.8989239,-0.2182459,0.13062796,-0.550475
1747679419.3642704,-0.11940502,0.6314981,0.8989239,-0.2182459,0.13062796,-0.550475
1747679419.3647983,-0.11940502,0.6314981,0.8989239,-0.2182459,0.13062796,-0.550475
1747679419.3653247,-0.11940502,0.6314981,0.8989239,-0.2182459,0.13062796,-0.550475
1747679419.3658469,-0.11940502,0.6314981,0.8989239,-0.2182459,0.13062796,-0.550475
1747679419.3663676,-0.11940502,0.6314981,0.8989239,-0.2182459,0.13062796,-0.550475
1747679419.3668864,-0.11940502,0.6314981,0.8989239,-0.2182459,0.13062796,-0.550475
1747679419.3674045,-0.11940502,0.6314981,0.8989239,-0.2182459,0.13062796,-0.550475
1747679419.3679225,-0.11940502,0.6314981,0.8989239,-0.2182459,0.13062796,-0.550475
1747679419.3684404,-0.11940502,0.6314981,0.8989239,-0.2182459,0.13062796,-0.550475
1747679419.3689585,-0.11940502,0.6314981,0.8989239,-0.2182459,0.13062796,-0.550475
1747679419.369484,-0.22288527,0.5163031,0.90282875,-0.14900376,-0.30826068,-0.5408876
1747679419.370007,-0.22288527,0.5163031,0.90282875,-0.14900376,-0.30826068,-0.5408876
1747679419.370528,-0.22288527,0.5163031,0.90282875,-0.14900376,-0.30826068,-0.5408876
1747679419.3711016,-0.22288527,0.5163031,0.90282875,-0.14900376,-0.30826068,-0.5408876
1747679419.3716414,-0.22288527,0.5163031,0.90282875,-0.14900376,-0.30826068,-0.5408876
1747679419.3721628,-0.22288527,0.5163031,0.90282875,-0.14900376,-0.30826068,-0.5408876
1747679419.3726811,-0.22288527,0.5163031,0.90282875,-0.14900376,-0.30826068,-0.5408876
1747679419.3731997,-0.22288527,0.5163031,0.90282875,-0.14900376,-0.30826068,-0.5408876
1747679419.3737185,-0.22288527,0.5163031,0.90282875,-0.14900376,-0.30826068,-0.5408876
1747679419.374249,-0.22288527,0.5163031,0.90282875,-0.14900376,-0.30826068,-0.5408876
1747679419.3747854,-0.22288527,0.5163031,0.90282875,-0.14900376,-0.30826068,-0.5408876
1747679419.375308,-0.22288527,0.5163031,0.90282875,-0.14900376,-0.30826068,-0.5408876
1747679419.375847,-0.22288527,0.5163031,0.90282875,-0.14900376,-0.30826068,-0.5408876
1747679419.3763938,-0.22288527,0.5163031,0.90282875,-0.14900376,-0.30826068,-0.5408876
1747679419.376927,-0.22288527,0.5163031,0.90282875,-0.14900376,-0.30826068,-0.5408876
1747679419.3774467,-0.22288527,0.5163031,0.90282875,-0.14900376,-0.30826068,-0.5408876
1747679419.377968,-0.22288527,0.5163031,0.90282875,-0.14900376,-0.30826068,-0.5408876
1747679419.3784895,-0.22288527,0.5163031,0.90282875,-0.14900376,-0.30826068,-0.5408876
1747679419.3790107,-0.22288527,0.5163031,0.90282875,-0.14900376,-0.30826068,-0.5408876
1747679419.3795316,-0.22288527,0.5163031,0.90282875,-0.14900376,-0.30826068,-0.5408876
1747679419.3800535,-0.22288527,0.5163031,0.90282875,-0.14900376,-0.30826068,-0.5408876
1747679419.380579,-0.25851765,0.45919374,0.98922503,-0.14900376,-0.30826068,-0.5408876
1747679419.3811026,-0.25851765,0.45919374,0.98922503,-0.066978455,-0.5585976,-0.514256
1747679419.3816242,-0.25851765,0.45919374,0.98922503,-0.066978455,-0.5585976,-0.514256
1747679419.3821452,-0.25851765,0.45919374,0.98922503,-0.066978455,-0.5585976,-0.514256
1747679419.3826659,-0.25851765,0.45919374,0.98922503,-0.066978455,-0.5585976,-0.514256
1747679419.3831863,-0.25851765,0.45919374,0.98922503,-0.066978455,-0.5585976,-0.514256
1747679419.3837147,-0.25851765,0.45919374,0.98922503,-0.066978455,-0.5585976,-0.514256
1747679419.3842475,-0.25851765,0.45919374,0.98922503,-0.066978455,-0.5585976,-0.514256
1747679419.3847697,-0.25851765,0.45919374,0.98922503,-0.066978455,-0.5585976,-0.514256
1747679419.3852904,-0.25851765,0.45919374,0.98922503,-0.066978455,-0.5585976,-0.514256
1747679419.3858118,-0.25851765,0.45919374,0.98922503,-0.066978455,-0.5585976,-0.514256
1747679419.3864548,-0.25851765,0.45919374,0.98922503,-0.066978455,-0.5585976,-0.514256
1747679419.3870184,-0.25851765,0.45919374,0.98922503,-0.066978455,-0.5585976,-0.514256
1747679419.387578,-0.25851765,0.45919374,0.98922503,-0.066978455,-0.5585976,-0.514256
1747679419.3881426,-0.25851765,0.45919374,0.98922503,-0.066978455,-0.5585976,-0.514256
1747679419.3886878,-0.25851765,0.45919374,0.98922503,-0.066978455,-0.5585976,-0.514256
1747679419.3892233,-0.25851765,0.45919374,0.98922503,-0.066978455,-0.5585976,-0.514256
1747679419.389745,-0.25851765,0.45919374,0.98922503,-0.066978455,-0.5585976,-0.514256
1747679419.3902662,-0.25851765,0.45919374,0.98922503,-0.066978455,-0.5585976,-0.514256
1747679419.3907874,-0.25851765,0.45919374,0.98922503,-0.066978455,-0.5585976,-0.514256
1747679419.3913112,-0.25851765,0.45919374,0.98922503,-0.066978455,-0.5585976,-0.514256
1747679419.3918645,-0.25851765,0.45919374,0.98922503,-0.066978455,-0.5585976,-0.514256
1747679419.3924599,-0.19701521,0.44357404,1.0038685,0.06937529,-0.66405874,-0.5259739
1747679419.392995,-0.19701521,0.44357404,1.0038685,0.06937529,-0.66405874,-0.5259739
1747679419.393502,-0.19701521,0.44357404,1.0038685,0.06937529,-0.66405874,-0.5259739
1747679419.3940306,-0.19701521,0.44357404,1.0038685,0.06937529,-0.66405874,-0.5259739
1747679419.3945687,-0.19701521,0.44357404,1.0038685,0.06937529,-0.66405874,-0.5259739
1747679419.3950884,-0.19701521,0.44357404,1.0038685,0.06937529,-0.66405874,-0.5259739
1747679419.3956072,-0.19701521,0.44357404,1.0038685,0.06937529,-0.66405874,-0.5259739
1747679419.3961256,-0.19701521,0.44357404,1.0038685,0.06937529,-0.66405874,-0.5259739
1747679419.3966432,-0.19701521,0.44357404,1.0038685,0.06937529,-0.66405874,-0.5259739
1747679419.3971612,-0.19701521,0.44357404,1.0038685,0.06937529,-0.66405874,-0.5259739
1747679419.3976793,-0.19701521,0.44357404,1.0038685,0.06937529,-0.66405874,-0.5259739
1747679419.3981972,-0.19701521,0.44357404,1.0038685,0.06937529,-0.66405874,-0.5259739
1747679419.3987148,-0.19701521,0.44357404,1.0038685,0.06937529,-0.66405874,-0.5259739
1747679419.399233,-0.19701521,0.44357404,1.0038685,0.06937529,-0.66405874,-0.5259739
1747679419.399751,-0.19701521,0.44357404,1.0038685,0.06937529,-0.66405874,-0.5259739
1747679419.4002688,-0.19701521,0.44357404,1.0038685,0.06937529,-0.66405874,-0.5259739
1747679419.4007866,-0.19701521,0.44357404,1.0038685,0.06937529,-0.66405874,-0.5259739
1747679419.4013052,-0.12916729,0.4108704,0.8432788,0.06937529,-0.66405874,-0.5259739
1747679419.4018478,-0.12916729,0.4108704,0.8432788,0.06937529,-0.66405874,-0.5259739
1747679419.4023979,-0.12916729,0.4108704,0.8432788,0.06937529,-0.66405874,-0.5259739
1747679419.4029243,-0.12916729,0.4108704,0.8432788,0.06937529,-0.66405874,-0.5259739
1747679419.4034438,-0.12916729,0.4108704,0.8432788,0.06937529,-0.66405874,-0.5259739
1747679419.4039621,-0.12916729,0.4108704,0.8432788,0.06937529,-0.66405874,-0.5259739
1747679419.4044876,-0.12916729,0.4108704,0.8432788,0.06937529,-0.66405874,-0.5259739
1747679419.4050138,-0.12916729,0.4108704,0.8432788,0.06937529,-0.66405874,-0.5259739
1747679419.405533,-0.12916729,0.4108704,0.8432788,0.06937529,-0.66405874,-0.5259739
1747679419.4060514,-0.12916729,0.4108704,0.8432788,0.06937529,-0.66405874,-0.5259739
1747679419.4065695,-0.12916729,0.4108704,0.8432788,0.06937529,-0.66405874,-0.5259739
1747679419.4070897,-0.12916729,0.4108704,0.8432788,0.06937529,-0.66405874,-0.5259739
1747679419.4076278,-0.12916729,0.4108704,0.8432788,0.06937529,-0.66405874,-0.5259739
1747679419.408169,-0.12916729,0.4108704,0.8432788,0.06937529,-0.66405874,-0.5259739
1747679419.4087017,-0.12916729,0.4108704,0.8432788,0.06937529,-0.66405874,-0.5259739
1747679419.4092212,-0.12916729,0.4108704,0.8432788,0.06937529,-0.66405874,-0.5259739
1747679419.4097397,-0.12916729,0.4108704,0.8432788,0.06937529,-0.66405874,-0.5259739
1747679419.4102576,-0.12916729,0.4108704,0.8432788,0.06937529,-0.66405874,-0.5259739
1747679419.410776,-0.12916729,0.4108704,0.8432788,0.06937529,-0.66405874,-0.5259739
1747679419.4112942,-0.12916729,0.4108704,0.8432788,0.06937529,-0.66405874,-0.5259739
1747679419.411812,-0.12916729,0.4108704,0.8432788,0.06937529,-0.66405874,-0.5259739
1747679419.41233,-0.12916729,0.4108704,0.8432788,0.06937529,-0.66405874,-0.5259739
1747679419.4128485,-0.032520626,0.38304785,0.8174087,-0.1916143,-0.38282913,-0.6197171
1747679419.4133673,-0.032520626,0.38304785,0.8174087,-0.1916143,-0.38282913,-0.6197171
1747679419.4138956,-0.032520626,0.38304785,0.8174087,-0.1916143,-0.38282913,-0.6197171
1747679419.4144301,-0.032520626,0.38304785,0.8174087,-0.1916143,-0.38282913,-0.6197171
1747679419.41495,-0.032520626,0.38304785,0.8174087,-0.1916143,-0.38282913,-0.6197171
1747679419.4154682,-0.032520626,0.38304785,0.8174087,-0.1916143,-0.38282913,-0.6197171
1747679419.4159868,-0.032520626,0.38304785,0.8174087,-0.1916143,-0.38282913,-0.6197171
1747679419.4165046,-0.032520626,0.38304785,0.8174087,-0.1916143,-0.38282913,-0.6197171
1747679419.4170423,-0.032520626,0.38304785,0.8174087,-0.1916143,-0.38282913,-0.6197171
1747679419.4176018,-0.032520626,0.38304785,0.8174087,-0.1916143,-0.38282913,-0.6197171
1747679419.4181502,-0.032520626,0.38304785,0.8174087,-0.1916143,-0.38282913,-0.6197171
1747679419.4186897,-0.032520626,0.38304785,0.8174087,-0.1916143,-0.38282913,-0.6197171
1747679419.4192228,-0.032520626,0.38304785,0.8174087,-0.1916143,-0.38282913,-0.6197171
1747679419.4197423,-0.032520626,0.38304785,0.8174087,-0.1916143,-0.38282913,-0.6197171
1747679419.420261,-0.032520626,0.38304785,0.8174087,-0.1916143,-0.38282913,-0.6197171
1747679419.4207795,-0.032520626,0.38304785,0.8174087,-0.1916143,-0.38282913,-0.6197171
1747679419.4212973,-0.032520626,0.38304785,0.8174087,-0.1916143,-0.38282913,-0.6197171
1747679419.4218159,-0.032520626,0.38304785,0.8174087,-0.1916143,-0.38282913,-0.6197171
1747679419.422334,-0.032520626,0.38304785,0.8174087,-0.1916143,-0.38282913,-0.6197171
1747679419.4228551,-0.032520626,0.38304785,0.8174087,-0.1916143,-0.38282913,-0.6197171
1747679419.4233935,-0.032520626,0.38304785,0.8174087,-0.1916143,-0.38282913,-0.6197171
1747679419.4239447,-0.032520626,0.38304785,0.8174087,-0.1916143,-0.38282913,-0.6197171
1747679419.4244933,-0.032520626,0.38304785,0.8174087,-0.1916143,-0.38282913,-0.6197171
1747679419.42502,-0.032520626,0.38304785,0.8174087,-0.1916143,-0.38282913,-0.6197171
1747679419.4255393,-0.09011813,0.3078782,0.7144166,-0.3375554,-0.3103912,-0.63143504
1747679419.4260788,-0.09011813,0.3078782,0.7144166,-0.3375554,-0.3103912,-0.63143504
1747679419.426601,-0.09011813,0.3078782,0.7144166,-0.3375554,-0.3103912,-0.63143504
1747679419.427119,-0.09011813,0.3078782,0.7144166,-0.3375554,-0.3103912,-0.63143504
1747679419.427637,-0.09011813,0.3078782,0.7144166,-0.3375554,-0.3103912,-0.63143504
1747679419.4281552,-0.09011813,0.3078782,0.7144166,-0.3375554,-0.3103912,-0.63143504
1747679419.4286728,-0.09011813,0.3078782,0.7144166,-0.3375554,-0.3103912,-0.63143504
1747679419.4291909,-0.09011813,0.3078782,0.7144166,-0.3375554,-0.3103912,-0.63143504
1747679419.4297087,-0.09011813,0.3078782,0.7144166,-0.3375554,-0.3103912,-0.63143504
1747679419.430227,-0.09011813,0.3078782,0.7144166,-0.3375554,-0.3103912,-0.63143504
1747679419.4307451,-0.09011813,0.3078782,0.7144166,-0.3375554,-0.3103912,-0.63143504
1747679419.431263,-0.09011813,0.3078782,0.7144166,-0.3375554,-0.3103912,-0.63143504
1747679419.431781,-0.09011813,0.3078782,0.7144166,-0.3375554,-0.3103912,-0.63143504
1747679419.4323206,-0.09011813,0.3078782,0.7144166,-0.3375554,-0.3103912,-0.63143504
1747679419.432869,-0.09011813,0.3078782,0.7144166,-0.3375554,-0.3103912,-0.63143504
1747679419.4334013,-0.09011813,0.3078782,0.7144166,-0.3375554,-0.3103912,-0.63143504
1747679419.4339209,-0.09011813,0.3078782,0.7144166,-0.3375554,-0.3103912,-0.63143504
1747679419.4344494,-0.09011813,0.3078782,0.7144166,-0.3375554,-0.3103912,-0.63143504
1747679419.4349854,-0.09011813,0.3078782,0.7144166,-0.3375554,-0.3103912,-0.63143504
1747679419.435506,-0.09011813,0.3078782,0.7144166,-0.3375554,-0.3103912,-0.63143504
1747679419.4360251,-0.0037218733,0.35717776,0.64754486,-0.3375554,-0.3103912,-0.63143504
1747679419.436625,-0.0037218733,0.35717776,0.64754486,-0.3375554,-0.3103912,-0.63143504
1747679419.4371908,-0.0037218733,0.35717776,0.64754486,-0.56126076,-0.0611195,-0.6506098
1747679419.437711,-0.0037218733,0.35717776,0.64754486,-0.56126076,-0.0611195,-0.6506098
1747679419.4382298,-0.0037218733,0.35717776,0.64754486,-0.56126076,-0.0611195,-0.6506098
1747679419.4387507,-0.0037218733,0.35717776,0.64754486,-0.56126076,-0.0611195,-0.6506098
1747679419.4392893,-0.0037218733,0.35717776,0.64754486,-0.56126076,-0.0611195,-0.6506098
1747679419.4398348,-0.0037218733,0.35717776,0.64754486,-0.56126076,-0.0611195,-0.6506098
1747679419.440368,-0.0037218733,0.35717776,0.64754486,-0.56126076,-0.0611195,-0.6506098
1747679419.4408872,-0.0037218733,0.35717776,0.64754486,-0.56126076,-0.0611195,-0.6506098
1747679419.4414058,-0.0037218733,0.35717776,0.64754486,-0.56126076,-0.0611195,-0.6506098
1747679419.4419239,-0.0037218733,0.35717776,0.64754486,-0.56126076,-0.0611195,-0.6506098
1747679419.4424422,-0.0037218733,0.35717776,0.64754486,-0.56126076,-0.0611195,-0.6506098
1747679419.4429607,-0.0037218733,0.35717776,0.64754486,-0.56126076,-0.0611195,-0.6506098
1747679419.4434965,-0.0037218733,0.35717776,0.64754486,-0.56126076,-0.0611195,-0.6506098
1747679419.4440355,-0.0037218733,0.35717776,0.64754486,-0.56126076,-0.0611195,-0.6506098
1747679419.4445558,-0.0037218733,0.35717776,0.64754486,-0.56126076,-0.0611195,-0.6506098
1747679419.4450748,-0.0037218733,0.35717776,0.64754486,-0.56126076,-0.0611195,-0.6506098
1747679419.4455934,-0.0037218733,0.35717776,0.64754486,-0.56126076,-0.0611195,-0.6506098
1747679419.4461112,-0.0037218733,0.35717776,0.64754486,-0.56126076,-0.0611195,-0.6506098
1747679419.4466293,-0.0037218733,0.35717776,0.64754486,-0.56126076,-0.0611195,-0.6506098
1747679419.4471476,-0.0037218733,0.35717776,0.64754486,-0.56126076,-0.0611195,-0.6506098
1747679419.4477139,-0.0037218733,0.35717776,0.64754486,-0.56126076,-0.0611195,-0.6506098
1747679419.448278,-0.0037218733,0.35717776,0.64754486,-0.56126076,-0.0611195,-0.6506098
1747679419.4488156,-0.0037218733,0.35717776,0.64754486,-0.56126076,-0.0611195,-0.6506098
1747679419.449351,0.010433447,0.4792064,0.6114244,-0.715724,0.36711648,-0.74967927
1747679419.449884,0.010433447,0.4792064,0.6114244,-0.715724,0.36711648,-0.74967927
1747679419.4504032,0.010433447,0.4792064,0.6114244,-0.715724,0.36711648,-0.74967927
1747679419.450922,0.010433447,0.4792064,0.6114244,-0.715724,0.36711648,-0.74967927
1747679419.45144,0.010433447,0.4792064,0.6114244,-0.715724,0.36711648,-0.74967927
1747679419.451958,0.010433447,0.4792064,0.6114244,-0.715724,0.36711648,-0.74967927
1747679419.4524765,0.010433447,0.4792064,0.6114244,-0.715724,0.36711648,-0.74967927
1747679419.4529948,0.010433447,0.4792064,0.6114244,-0.715724,0.36711648,-0.74967927
1747679419.4535162,0.010433447,0.4792064,0.6114244,-0.715724,0.36711648,-0.74967927
1747679419.4540672,0.010433447,0.4792064,0.6114244,-0.715724,0.36711648,-0.74967927
1747679419.454622,0.010433447,0.4792064,0.6114244,-0.715724,0.36711648,-0.74967927
1747679419.455153,0.010433447,0.4792064,0.6114244,-0.715724,0.36711648,-0.74967927
1747679419.4556746,0.010433447,0.4792064,0.6114244,-0.715724,0.36711648,-0.74967927
1747679419.456196,-0.14088205,0.47286093,0.65633094,-0.6827008,0.85713774,-0.69854665
1747679419.456715,-0.14088205,0.47286093,0.65633094,-0.6827008,0.85713774,-0.69854665
1747679419.4572332,-0.14088205,0.47286093,0.65633094,-0.6827008,0.85713774,-0.69854665
1747679419.4577518,-0.14088205,0.47286093,0.65633094,-0.6827008,0.85713774,-0.69854665
1747679419.4582698,-0.14088205,0.47286093,0.65633094,-0.6827008,0.85713774,-0.69854665
1747679419.4587884,-0.14088205,0.47286093,0.65633094,-0.6827008,0.85713774,-0.69854665
1747679419.4593065,-0.14088205,0.47286093,0.65633094,-0.6827008,0.85713774,-0.69854665
1747679419.4598246,-0.14088205,0.47286093,0.65633094,-0.6827008,0.85713774,-0.69854665
1747679419.4603426,-0.14088205,0.47286093,0.65633094,-0.6827008,0.85713774,-0.69854665
1747679419.4608626,-0.14088205,0.47286093,0.65633094,-0.6827008,0.85713774,-0.69854665
1747679419.4613829,-0.14088205,0.47286093,0.65633094,-0.6827008,0.85713774,-0.69854665
1747679419.461902,-0.14088205,0.47286093,0.65633094,-0.6827008,0.85713774,-0.69854665
1747679419.462426,-0.08621322,0.5719482,0.51868266,-0.6827008,0.85713774,-0.69854665
1747679419.46299,-0.08621322,0.5719482,0.51868266,-0.6827008,0.85713774,-0.69854665
1747679419.4635396,-0.08621322,0.5719482,0.51868266,-0.71678925,1.0201231,-0.66019714
1747679419.4640865,-0.08621322,0.5719482,0.51868266,-0.71678925,1.0201231,-0.66019714
1747679419.4646413,-0.08621322,0.5719482,0.51868266,-0.71678925,1.0201231,-0.66019714
1747679419.465184,-0.08621322,0.5719482,0.51868266,-0.71678925,1.0201231,-0.66019714
1747679419.4657075,-0.08621322,0.5719482,0.51868266,-0.71678925,1.0201231,-0.66019714
1747679419.4662263,-0.08621322,0.5719482,0.51868266,-0.71678925,1.0201231,-0.66019714
1747679419.4667444,-0.08621322,0.5719482,0.51868266,-0.71678925,1.0201231,-0.66019714
1747679419.4672623,-0.08621322,0.5719482,0.51868266,-0.71678925,1.0201231,-0.66019714
1747679419.46778,-0.08621322,0.5719482,0.51868266,-0.71678925,1.0201231,-0.66019714
1747679419.4682984,-0.08621322,0.5719482,0.51868266,-0.71678925,1.0201231,-0.66019714
1747679419.4688168,-0.08621322,0.5719482,0.51868266,-0.71678925,1.0201231,-0.66019714
1747679419.469337,-0.08621322,0.5719482,0.51868266,-0.71678925,1.0201231,-0.66019714
1747679419.4698765,-0.09499928,0.61783093,0.5103847,-0.71678925,1.0201231,-0.66019714
1747679419.4704158,-0.09499928,0.61783093,0.5103847,-0.71678925,1.0201231,-0.66019714
1747679419.4709473,-0.09499928,0.61783093,0.5103847,-0.95753884,0.51199234,-0.6996119
1747679419.471467,-0.09499928,0.61783093,0.5103847,-0.95753884,0.51199234,-0.6996119
1747679419.4719858,-0.09499928,0.61783093,0.5103847,-0.95753884,0.51199234,-0.6996119
1747679419.4725046,-0.09499928,0.61783093,0.5103847,-0.95753884,0.51199234,-0.6996119
1747679419.4730222,-0.09499928,0.61783093,0.5103847,-0.95753884,0.51199234,-0.6996119
1747679419.4735405,-0.09499928,0.61783093,0.5103847,-0.95753884,0.51199234,-0.6996119
1747679419.4740696,-0.09499928,0.61783093,0.5103847,-0.95753884,0.51199234,-0.6996119
1747679419.4746053,-0.09499928,0.61783093,0.5103847,-0.95753884,0.51199234,-0.6996119
1747679419.4751256,-0.09499928,0.61783093,0.5103847,-0.95753884,0.51199234,-0.6996119
1747679419.4756436,-0.09499928,0.61783093,0.5103847,-0.95753884,0.51199234,-0.6996119
1747679419.4761617,-0.09499928,0.61783093,0.5103847,-0.95753884,0.51199234,-0.6996119
1747679419.4766803,-0.09499928,0.61783093,0.5103847,-0.95753884,0.51199234,-0.6996119
1747679419.4771984,-0.09499928,0.61783093,0.5103847,-0.95753884,0.51199234,-0.6996119
1747679419.4777198,-0.09499928,0.61783093,0.5103847,-0.95753884,0.51199234,-0.6996119
1747679419.478314,-0.09499928,0.61783093,0.5103847,-0.95753884,0.51199234,-0.6996119
1747679419.4788735,-0.09499928,0.61783093,0.5103847,-0.95753884,0.51199234,-0.6996119
1747679419.4794195,-0.09499928,0.61783093,0.5103847,-1.1013495,0.050733183,-0.6729803
1747679419.479945,-0.09499928,0.61783093,0.5103847,-1.1013495,0.050733183,-0.6729803
1747679419.4804661,-0.09499928,0.61783093,0.5103847,-1.1013495,0.050733183,-0.6729803
1747679419.4809875,-0.09402306,0.6041637,0.6128888,-1.1013495,0.050733183,-0.6729803
1747679419.4815092,-0.09402306,0.6041637,0.6128888,-1.1013495,0.050733183,-0.6729803
1747679419.48203,-0.09402306,0.6041637,0.6128888,-1.1013495,0.050733183,-0.6729803
1747679419.482551,-0.09402306,0.6041637,0.6128888,-1.1013495,0.050733183,-0.6729803
1747679419.4831202,-0.09402306,0.6041637,0.6128888,-1.1013495,0.050733183,-0.6729803
1747679419.4836414,-0.09402306,0.6041637,0.6128888,-1.1013495,0.050733183,-0.6729803
1747679419.484168,-0.09402306,0.6041637,0.6128888,-1.1013495,0.050733183,-0.6729803
1747679419.484698,-0.09402306,0.6041637,0.6128888,-1.1013495,0.050733183,-0.6729803
1747679419.4852226,-0.09402306,0.6041637,0.6128888,-1.1013495,0.050733183,-0.6729803
1747679419.485777,-0.09402306,0.6041637,0.6128888,-1.1013495,0.050733183,-0.6729803
1747679419.4863517,-0.09402306,0.6041637,0.6128888,-1.1013495,0.050733183,-0.6729803
1747679419.4869032,-0.09402306,0.6041637,0.6128888,-1.1013495,0.050733183,-0.6729803
1747679419.487439,-0.09402306,0.6041637,0.6128888,-1.1013495,0.050733183,-0.6729803
1747679419.487961,-0.09402306,0.6041637,0.6128888,-1.1013495,0.050733183,-0.6729803
1747679419.4884822,-0.09402306,0.6041637,0.6128888,-1.1013495,0.050733183,-0.6729803
1747679419.4890034,-0.09402306,0.6041637,0.6128888,-1.1013495,0.050733183,-0.6729803
1747679419.4895256,-0.07840339,0.5011716,0.62167484,-1.1460905,-0.15592797,-0.52490866
1747679419.4900467,-0.07840339,0.5011716,0.62167484,-1.1460905,-0.15592797,-0.52490866
1747679419.4905682,-0.07840339,0.5011716,0.62167484,-1.1460905,-0.15592797,-0.52490866
1747679419.4910886,-0.07840339,0.5011716,0.62167484,-1.1460905,-0.15592797,-0.52490866
1747679419.4916096,-0.07840339,0.5011716,0.62167484,-1.1460905,-0.15592797,-0.52490866
1747679419.4921303,-0.07840339,0.5011716,0.62167484,-1.1460905,-0.15592797,-0.52490866
1747679419.4926512,-0.07840339,0.5011716,0.62167484,-1.1460905,-0.15592797,-0.52490866
1747679419.4931746,-0.07840339,0.5011716,0.62167484,-1.1460905,-0.15592797,-0.52490866
1747679419.4937093,-0.07840339,0.5011716,0.62167484,-1.1460905,-0.15592797,-0.52490866
1747679419.4942553,-0.07840339,0.5011716,0.62167484,-1.1460905,-0.15592797,-0.52490866
1747679419.49478,-0.07840339,0.5011716,0.62167484,-1.1460905,-0.15592797,-0.52490866
1747679419.4952986,-0.07840339,0.5011716,0.62167484,-1.1460905,-0.15592797,-0.52490866
1747679419.495817,-0.07840339,0.5011716,0.62167484,-1.1460905,-0.15592797,-0.52490866
1747679419.496335,-0.07840339,0.5011716,0.62167484,-1.1460905,-0.15592797,-0.52490866
1747679419.4968536,-0.07840339,0.5011716,0.62167484,-1.1460905,-0.15592797,-0.52490866
1747679419.4973714,-0.07840339,0.5011716,0.62167484,-1.1460905,-0.15592797,-0.52490866
1747679419.4978895,-0.07840339,0.5011716,0.62167484,-1.1460905,-0.15592797,-0.52490866
1747679419.4984074,-0.07840339,0.5011716,0.62167484,-1.1460905,-0.15592797,-0.52490866
1747679419.4989257,-0.07840339,0.5011716,0.62167484,-1.1460905,-0.15592797,-0.52490866
1747679419.4994438,-0.07840339,0.5011716,0.62167484,-1.1460905,-0.15592797,-0.52490866
1747679419.500005,-0.07840339,0.5011716,0.62167484,-1.1492863,-0.7343661,-0.23302642
1747679419.5005286,-0.07840339,0.5011716,0.62167484,-1.1492863,-0.7343661,-0.23302642
1747679419.5010726,-0.054973897,0.40598923,0.5338142,-1.1492863,-0.7343661,-0.23302642
1747679419.5016165,-0.054973897,0.40598923,0.5338142,-1.1492863,-0.7343661,-0.23302642
1747679419.5021493,-0.054973897,0.40598923,0.5338142,-1.1492863,-0.7343661,-0.23302642
1747679419.5026693,-0.054973897,0.40598923,0.5338142,-1.1492863,-0.7343661,-0.23302642
1747679419.5031874,-0.054973897,0.40598923,0.5338142,-1.1492863,-0.7343661,-0.23302642
1747679419.5037062,-0.054973897,0.40598923,0.5338142,-1.1492863,-0.7343661,-0.23302642
1747679419.5042374,-0.054973897,0.40598923,0.5338142,-1.1492863,-0.7343661,-0.23302642
1747679419.5047758,-0.054973897,0.40598923,0.5338142,-1.1492863,-0.7343661,-0.23302642
1747679419.5052953,-0.054973897,0.40598923,0.5338142,-1.1492863,-0.7343661,-0.23302642
1747679419.5058136,-0.054973897,0.40598923,0.5338142,-1.1492863,-0.7343661,-0.23302642
1747679419.5063314,-0.054973897,0.40598923,0.5338142,-1.1492863,-0.7343661,-0.23302642
1747679419.5068493,-0.054973897,0.40598923,0.5338142,-1.1492863,-0.7343661,-0.23302642
1747679419.5073674,-0.054973897,0.40598923,0.5338142,-1.1492863,-0.7343661,-0.23302642
1747679419.5078855,-0.054973897,0.40598923,0.5338142,-1.1492863,-0.7343661,-0.23302642
1747679419.5084038,-0.054973897,0.40598923,0.5338142,-1.1492863,-0.7343661,-0.23302642
1747679419.5089433,-0.054973897,0.40598923,0.5338142,-1.1492863,-0.7343661,-0.23302642
1747679419.509497,-0.054973897,0.40598923,0.5338142,-1.1492863,-0.7343661,-0.23302642
1747679419.51004,-0.054973897,0.40598923,0.5338142,-1.1492863,-0.7343661,-0.23302642
1747679419.5105803,-0.054973897,0.40598923,0.5338142,-1.1492863,-0.7343661,-0.23302642
1747679419.5111134,-0.054973897,0.40598923,0.5338142,-1.1492863,-0.7343661,-0.23302642
1747679419.511633,-0.054973897,0.40598923,0.5338142,-1.1492863,-0.7343661,-0.23302642
1747679419.5121565,-0.054973897,0.40598923,0.5338142,-1.1492863,-0.7343661,-0.23302642
1747679419.5126796,0.2505858,0.3274028,0.9179603,-1.1492863,-0.7343661,-0.23302642
1747679419.513199,0.2505858,0.3274028,0.9179603,-1.1940274,-1.2883033,-0.13289164
1747679419.5137267,0.2505858,0.3274028,0.9179603,-1.1940274,-1.2883033,-0.13289164
1747679419.5142565,0.2505858,0.3274028,0.9179603,-1.1940274,-1.2883033,-0.13289164
1747679419.5147765,0.2505858,0.3274028,0.9179603,-1.1940274,-1.2883033,-0.13289164
1747679419.5152953,0.2505858,0.3274028,0.9179603,-1.1940274,-1.2883033,-0.13289164
1747679419.5158134,0.2505858,0.3274028,0.9179603,-1.1940274,-1.2883033,-0.13289164
1747679419.5163336,0.2505858,0.3274028,0.9179603,-1.1940274,-1.2883033,-0.13289164
1747679419.516872,0.2505858,0.3274028,0.9179603,-1.1940274,-1.2883033,-0.13289164
1747679419.5174127,0.2505858,0.3274028,0.9179603,-1.1940274,-1.2883033,-0.13289164
1747679419.517945,0.2505858,0.3274028,0.9179603,-1.1940274,-1.2883033,-0.13289164
1747679419.5184646,0.2505858,0.3274028,0.9179603,-1.1940274,-1.2883033,-0.13289164
1747679419.518983,0.2505858,0.3274028,0.9179603,-1.1940274,-1.2883033,-0.13289164
1747679419.519501,0.2505858,0.3274028,0.9179603,-1.1940274,-1.2883033,-0.13289164
1747679419.5200193,0.2505858,0.3274028,0.9179603,-1.1940274,-1.2883033,-0.13289164
1747679419.5205379,0.2505858,0.3274028,0.9179603,-1.1940274,-1.2883033,-0.13289164
1747679419.5210557,0.2505858,0.3274028,0.9179603,-1.1940274,-1.2883033,-0.13289164
1747679419.5215735,0.2505858,0.3274028,0.9179603,-1.1940274,-1.2883033,-0.13289164
1747679419.5220923,0.2505858,0.3274028,0.9179603,-1.1940274,-1.2883033,-0.13289164
1747679419.5226107,0.2505858,0.3274028,0.9179603,-1.1940274,-1.2883033,-0.13289164
1747679419.523129,0.15247476,0.34985608,0.62216294,-1.1514168,-1.3703285,-0.22983064
1747679419.523648,0.15247476,0.34985608,0.62216294,-1.1514168,-1.3703285,-0.22983064
1747679419.52421,0.15247476,0.34985608,0.62216294,-1.1514168,-1.3703285,-0.22983064
1747679419.5247612,0.15247476,0.34985608,0.62216294,-1.1514168,-1.3703285,-0.22983064
1747679419.5252893,0.15247476,0.34985608,0.62216294,-1.1514168,-1.3703285,-0.22983064
1747679419.5258102,0.15247476,0.34985608,0.62216294,-1.1514168,-1.3703285,-0.22983064
1747679419.526329,0.15247476,0.34985608,0.62216294,-1.1514168,-1.3703285,-0.22983064
1747679419.5268476,0.15247476,0.34985608,0.62216294,-1.1514168,-1.3703285,-0.22983064
1747679419.5273664,0.15247476,0.34985608,0.62216294,-1.1514168,-1.3703285,-0.22983064
1747679419.5278842,0.15247476,0.34985608,0.62216294,-1.1514168,-1.3703285,-0.22983064
1747679419.5284023,0.15247476,0.34985608,0.62216294,-1.1514168,-1.3703285,-0.22983064
1747679419.5289204,0.15247476,0.34985608,0.62216294,-1.1514168,-1.3703285,-0.22983064
1747679419.5294383,0.15247476,0.34985608,0.62216294,-1.1514168,-1.3703285,-0.22983064
1747679419.5299563,0.15247476,0.34985608,0.62216294,-1.1514168,-1.3703285,-0.22983064
1747679419.5304742,0.15247476,0.34985608,0.62216294,-1.1514168,-1.3703285,-0.22983064
1747679419.530992,0.15247476,0.34985608,0.62216294,-1.1514168,-1.3703285,-0.22983064
1747679419.5315099,0.15247476,0.34985608,0.62216294,-1.1514168,-1.3703285,-0.22983064
1747679419.5320308,0.15247476,0.34985608,0.62216294,-1.1514168,-1.3703285,-0.22983064
1747679419.5325696,0.15247476,0.34985608,0.62216294,-1.1514168,-1.3703285,-0.22983064
1747679419.5331147,0.15247476,0.34985608,0.62216294,-1.1514168,-1.3703285,-0.22983064
1747679419.533663,0.15247476,0.34985608,0.62216294,-1.1514168,-1.3703285,-0.22983064
1747679419.5342028,0.15247476,0.34985608,0.62216294,-1.1514168,-1.3703285,-0.22983064
1747679419.534724,0.15247476,0.34985608,0.62216294,-1.1514168,-1.3703285,-0.22983064
1747679419.5352447,0.15247476,0.34985608,0.62216294,-1.1514168,-1.3703285,-0.22983064
1747679419.5357955,-0.20140824,0.30836633,0.6758555,-1.24516,-0.053662658,-0.03914844
1747679419.5363278,-0.20140824,0.30836633,0.6758555,-1.24516,-0.053662658,-0.03914844
1747679419.5368476,-0.20140824,0.30836633,0.6758555,-1.24516,-0.053662658,-0.03914844
1747679419.5373666,-0.20140824,0.30836633,0.6758555,-1.24516,-0.053662658,-0.03914844
1747679419.5378847,-0.20140824,0.30836633,0.6758555,-1.24516,-0.053662658,-0.03914844
1747679419.5384028,-0.20140824,0.30836633,0.6758555,-1.24516,-0.053662658,-0.03914844
1747679419.5389209,-0.20140824,0.30836633,0.6758555,-1.24516,-0.053662658,-0.03914844
1747679419.5395305,-0.20140824,0.30836633,0.6758555,-1.24516,-0.053662658,-0.03914844
1747679419.5400856,-0.20140824,0.30836633,0.6758555,-1.24516,-0.053662658,-0.03914844
1747679419.5406215,-0.20140824,0.30836633,0.6758555,-1.24516,-0.053662658,-0.03914844
1747679419.541154,-0.20140824,0.30836633,0.6758555,-1.24516,-0.053662658,-0.03914844
1747679419.5416863,-0.20140824,0.30836633,0.6758555,-1.24516,-0.053662658,-0.03914844
1747679419.5422058,-0.20140824,0.30836633,0.6758555,-1.24516,-0.053662658,-0.03914844
1747679419.5427244,-0.20140824,0.30836633,0.6758555,-1.24516,-0.053662658,-0.03914844
1747679419.543243,-0.20140824,0.30836633,0.6758555,-1.24516,-0.053662658,-0.03914844
1747679419.5437746,0.0035998444,0.17511107,0.43814376,-1.3602085,0.8901609,-0.061518975
1747679419.5443091,0.0035998444,0.17511107,0.43814376,-1.3602085,0.8901609,-0.061518975
1747679419.5448291,0.0035998444,0.17511107,0.43814376,-1.3602085,0.8901609,-0.061518975
1747679419.5453477,0.0035998444,0.17511107,0.43814376,-1.3602085,0.8901609,-0.061518975
1747679419.5458655,0.0035998444,0.17511107,0.43814376,-1.3602085,0.8901609,-0.061518975
1747679419.5463831,0.0035998444,0.17511107,0.43814376,-1.3602085,0.8901609,-0.061518975
1747679419.5469012,0.0035998444,0.17511107,0.43814376,-1.3602085,0.8901609,-0.061518975
1747679419.5474193,0.0035998444,0.17511107,0.43814376,-1.3602085,0.8901609,-0.061518975
1747679419.5479398,0.0035998444,0.17511107,0.43814376,-1.3602085,0.8901609,-0.061518975
1747679419.5484765,0.0035998444,0.17511107,0.43814376,-1.3602085,0.8901609,-0.061518975
1747679419.549013,0.0035998444,0.17511107,0.43814376,-1.3602085,0.8901609,-0.061518975
1747679419.5495453,0.0035998444,0.17511107,0.43814376,-1.3602085,0.8901609,-0.061518975
1747679419.5500646,0.0035998444,0.17511107,0.43814376,-1.3602085,0.8901609,-0.061518975
1747679419.5505834,0.0035998444,0.17511107,0.43814376,-1.3602085,0.8901609,-0.061518975
1747679419.5511017,0.0035998444,0.17511107,0.43814376,-1.3602085,0.8901609,-0.061518975
1747679419.55162,0.0035998444,0.17511107,0.43814376,-1.3602085,0.8901609,-0.061518975
1747679419.5521383,0.0035998444,0.17511107,0.43814376,-1.3602085,0.8901609,-0.061518975
1747679419.5526564,0.0035998444,0.17511107,0.43814376,-1.3602085,0.8901609,-0.061518975
1747679419.553175,0.0035998444,0.17511107,0.43814376,-1.3602085,0.8901609,-0.061518975
1747679419.5537524,0.27938455,0.20830286,0.4596208,-1.7170719,1.6933697,-0.7582014
1747679419.554282,0.27938455,0.20830286,0.4596208,-1.7170719,1.6933697,-0.7582014
1747679419.554853,0.27938455,0.20830286,0.4596208,-1.7170719,1.6933697,-0.7582014
1747679419.5554028,0.27938455,0.20830286,0.4596208,-1.7170719,1.6933697,-0.7582014
1747679419.5559354,0.27938455,0.20830286,0.4596208,-1.7170719,1.6933697,-0.7582014
1747679419.5564554,0.27938455,0.20830286,0.4596208,-1.7170719,1.6933697,-0.7582014
1747679419.556974,0.27938455,0.20830286,0.4596208,-1.7170719,1.6933697,-0.7582014
1747679419.557492,0.27938455,0.20830286,0.4596208,-1.7170719,1.6933697,-0.7582014
1747679419.5580103,0.27938455,0.20830286,0.4596208,-1.7170719,1.6933697,-0.7582014
1747679419.5585284,0.27938455,0.20830286,0.4596208,-1.7170719,1.6933697,-0.7582014
1747679419.5590467,0.27938455,0.20830286,0.4596208,-1.7170719,1.6933697,-0.7582014
1747679419.5595646,0.27938455,0.20830286,0.4596208,-1.7170719,1.6933697,-0.7582014
1747679419.5600827,0.27938455,0.20830286,0.4596208,-1.7170719,1.6933697,-0.7582014
1747679419.5606003,0.27938455,0.20830286,0.4596208,-1.7170719,1.6933697,-0.7582014
1747679419.5611217,0.27938455,0.20830286,0.4596208,-1.8331856,1.876595,-1.0564752
1747679419.561644,0.27938455,0.20830286,0.4596208,-1.8331856,1.876595,-1.0564752
1747679419.5621624,0.27938455,0.20830286,0.4596208,-1.8331856,1.876595,-1.0564752
1747679419.5626805,0.27938455,0.20830286,0.4596208,-1.8331856,1.876595,-1.0564752
1747679419.5631993,-0.09353494,0.277127,0.7344293,-1.8331856,1.876595,-1.0564752
1747679419.563737,-0.09353494,0.277127,0.7344293,-1.8331856,1.876595,-1.0564752
1747679419.5643067,-0.09353494,0.277127,0.7344293,-1.8331856,1.876595,-1.0564752
1747679419.5648704,-0.09353494,0.277127,0.7344293,-1.8331856,1.876595,-1.0564752
1747679419.5654194,-0.09353494,0.277127,0.7344293,-1.8331856,1.876595,-1.0564752
1747679419.5659523,-0.09353494,0.277127,0.7344293,-1.8331856,1.876595,-1.0564752
1747679419.5664723,-0.09353494,0.277127,0.7344293,-1.8331856,1.876595,-1.0564752
1747679419.5669906,-0.09353494,0.277127,0.7344293,-1.8331856,1.876595,-1.0564752
1747679419.567509,-0.09353494,0.277127,0.7344293,-1.8331856,1.876595,-1.0564752
1747679419.568027,-0.09353494,0.277127,0.7344293,-1.8331856,1.876595,-1.0564752
1747679419.568545,-0.09353494,0.277127,0.7344293,-1.8331856,1.876595,-1.0564752
1747679419.569063,-0.09353494,0.277127,0.7344293,-1.8331856,1.876595,-1.0564752
1747679419.5695808,-0.09353494,0.277127,0.7344293,-1.8331856,1.876595,-1.0564752
1747679419.5702112,-0.09353494,0.277127,0.7344293,-1.8331856,1.876595,-1.0564752
1747679419.5707848,-0.09353494,0.277127,0.7344293,-1.8331856,1.876595,-1.0564752
1747679419.5713336,-0.34198523,0.25955486,0.852553,-1.7287897,1.5687338,-0.9914941
1747679419.571865,-0.34198523,0.25955486,0.852553,-1.7287897,1.5687338,-0.9914941
1747679419.5723848,-0.34198523,0.25955486,0.852553,-1.7287897,1.5687338,-0.9914941
1747679419.5729034,-0.34198523,0.25955486,0.852553,-1.7287897,1.5687338,-0.9914941
1747679419.5734215,-0.34198523,0.25955486,0.852553,-1.7287897,1.5687338,-0.9914941
1747679419.5739539,-0.34198523,0.25955486,0.852553,-1.7287897,1.5687338,-0.9914941
1747679419.5744836,-0.34198523,0.25955486,0.852553,-1.7287897,1.5687338,-0.9914941
1747679419.5750039,-0.34198523,0.25955486,0.852553,-1.7287897,1.5687338,-0.9914941
1747679419.575522,-0.34198523,0.25955486,0.852553,-1.7287897,1.5687338,-0.9914941
1747679419.5760403,-0.34198523,0.25955486,0.852553,-1.7287897,1.5687338,-0.9914941
1747679419.5765584,-0.34198523,0.25955486,0.852553,-1.7287897,1.5687338,-0.9914941
1747679419.5770764,-0.34198523,0.25955486,0.852553,-1.7287897,1.5687338,-0.9914941
1747679419.577595,-0.34198523,0.25955486,0.852553,-1.7287897,1.5687338,-0.9914941
1747679419.5781162,-0.34198523,0.25955486,0.852553,-1.7287897,1.5687338,-0.9914941
1747679419.5786371,-0.34198523,0.25955486,0.852553,-1.7287897,1.5687338,-0.9914941
1747679419.5791616,-0.39811838,0.20390983,0.89160216,-1.7287897,1.5687338,-0.9914941
1747679419.5797887,-0.39811838,0.20390983,0.89160216,-1.4805833,0.8763125,-0.8167909
1747679419.5803525,-0.39811838,0.20390983,0.89160216,-1.4805833,0.8763125,-0.8167909
1747679419.5809019,-0.39811838,0.20390983,0.89160216,-1.4805833,0.8763125,-0.8167909
1747679419.5814397,-0.39811838,0.20390983,0.89160216,-1.4805833,0.8763125,-0.8167909
1747679419.5819666,-0.39811838,0.20390983,0.89160216,-1.4805833,0.8763125,-0.8167909
1747679419.582493,-0.39811838,0.20390983,0.89160216,-1.4805833,0.8763125,-0.8167909
1747679419.583025,-0.39811838,0.20390983,0.89160216,-1.4805833,0.8763125,-0.8167909
1747679419.583567,-0.39811838,0.20390983,0.89160216,-1.4805833,0.8763125,-0.8167909
1747679419.5841227,-0.39811838,0.20390983,0.89160216,-1.4805833,0.8763125,-0.8167909
1747679419.5846722,-0.39811838,0.20390983,0.89160216,-1.4805833,0.8763125,-0.8167909
1747679419.5852404,-0.39811838,0.20390983,0.89160216,-1.4805833,0.8763125,-0.8167909
1747679419.5857902,-0.39811838,0.20390983,0.89160216,-1.4805833,0.8763125,-0.8167909
1747679419.5863261,-0.39811838,0.20390983,0.89160216,-1.4805833,0.8763125,-0.8167909
1747679419.5868485,-0.39811838,0.20390983,0.89160216,-1.4805833,0.8763125,-0.8167909
1747679419.58737,-0.39811838,0.20390983,0.89160216,-1.4805833,0.8763125,-0.8167909
1747679419.587891,-0.39811838,0.20390983,0.89160216,-1.4805833,0.8763125,-0.8167909
1747679419.588412,-0.39811838,0.20390983,0.89160216,-1.4805833,0.8763125,-0.8167909
1747679419.5889325,-0.39811838,0.20390983,0.89160216,-1.4805833,0.8763125,-0.8167909
1747679419.5894532,-0.39811838,0.20390983,0.89160216,-1.4805833,0.8763125,-0.8167909
1747679419.5899749,-0.3615098,0.17852788,0.8989239,-1.220659,0.08588688,-0.6591319
1747679419.5904958,-0.3615098,0.17852788,0.8989239,-1.220659,0.08588688,-0.6591319
1747679419.5910172,-0.3615098,0.17852788,0.8989239,-1.220659,0.08588688,-0.6591319
1747679419.5915382,-0.3615098,0.17852788,0.8989239,-1.220659,0.08588688,-0.6591319
1747679419.592059,-0.3615098,0.17852788,0.8989239,-1.220659,0.08588688,-0.6591319
1747679419.5925794,-0.3615098,0.17852788,0.8989239,-1.220659,0.08588688,-0.6591319
1747679419.593103,-0.3615098,0.17852788,0.8989239,-1.220659,0.08588688,-0.6591319
1747679419.5936108,-0.3615098,0.17852788,0.8989239,-1.220659,0.08588688,-0.6591319
1747679419.5941296,-0.3615098,0.17852788,0.8989239,-1.220659,0.08588688,-0.6591319
1747679419.5946639,-0.3615098,0.17852788,0.8989239,-1.220659,0.08588688,-0.6591319
1747679419.5952551,-0.3615098,0.17852788,0.8989239,-1.220659,0.08588688,-0.6591319
1747679419.5958185,-0.3615098,0.17852788,0.8989239,-1.220659,0.08588688,-0.6591319
1747679419.5963619,-0.3615098,0.17852788,0.8989239,-1.220659,0.08588688,-0.6591319
1747679419.596899,-0.3615098,0.17852788,0.8989239,-1.220659,0.08588688,-0.6591319
1747679419.5974221,-0.3615098,0.17852788,0.8989239,-1.220659,0.08588688,-0.6591319
1747679419.5979438,-0.3615098,0.17852788,0.8989239,-1.220659,0.08588688,-0.6591319
1747679419.5984662,-0.3615098,0.17852788,0.8989239,-1.220659,0.08588688,-0.6591319
1747679419.5989883,-0.3615098,0.17852788,0.8989239,-1.220659,0.08588688,-0.6591319
1747679419.5995097,-0.3615098,0.17852788,0.8989239,-1.220659,0.08588688,-0.6591319
1747679419.600031,-0.3615098,0.17852788,0.8989239,-1.220659,0.08588688,-0.6591319
1747679419.6006522,-0.3615098,0.17852788,0.8989239,-1.220659,0.08588688,-0.6591319
1747679419.6012118,-0.25119594,0.17511107,0.9047812,-0.77537876,-1.2361053,-0.46099284
1747679419.601765,-0.25119594,0.17511107,0.9047812,-0.77537876,-1.2361053,-0.46099284
1747679419.602313,-0.25119594,0.17511107,0.9047812,-0.77537876,-1.2361053,-0.46099284
1747679419.602862,-0.25119594,0.17511107,0.9047812,-0.77537876,-1.2361053,-0.46099284
1747679419.6033986,-0.25119594,0.17511107,0.9047812,-0.77537876,-1.2361053,-0.46099284
1747679419.6039445,-0.25119594,0.17511107,0.9047812,-0.77537876,-1.2361053,-0.46099284
1747679419.6044898,-0.25119594,0.17511107,0.9047812,-0.77537876,-1.2361053,-0.46099284
1747679419.6050222,-0.25119594,0.17511107,0.9047812,-0.77537876,-1.2361053,-0.46099284
1747679419.6055415,-0.25119594,0.17511107,0.9047812,-0.77537876,-1.2361053,-0.46099284
1747679419.6060596,-0.25119594,0.17511107,0.9047812,-0.77537876,-1.2361053,-0.46099284
1747679419.6065779,-0.25119594,0.17511107,0.9047812,-0.77537876,-1.2361053,-0.46099284
1747679419.607097,-0.25119594,0.17511107,0.9047812,-0.77537876,-1.2361053,-0.46099284
1747679419.6076148,-0.25119594,0.17511107,0.9047812,-0.77537876,-1.2361053,-0.46099284
1747679419.6081328,-0.25119594,0.17511107,0.9047812,-0.77537876,-1.2361053,-0.46099284
1747679419.608651,-0.25119594,0.17511107,0.9047812,-0.77537876,-1.2361053,-0.46099284
1747679419.609169,-0.25119594,0.17511107,0.9047812,-0.77537876,-1.2361053,-0.46099284
1747679419.6096869,-0.25119594,0.17511107,0.9047812,-0.77537876,-1.2361053,-0.46099284
1747679419.610208,-0.25119594,0.17511107,0.9047812,-0.77537876,-1.2361053,-0.46099284
1747679419.6107624,-0.25119594,0.17511107,0.9047812,-0.77537876,-1.2361053,-0.46099284
1747679419.6113205,-0.25119594,0.17511107,0.9047812,-0.77537876,-1.2361053,-0.46099284
1747679419.611855,-0.25119594,0.17511107,0.9047812,-0.77537876,-1.2361053,-0.46099284
1747679419.6123743,-0.25119594,0.17511107,0.9047812,-0.77537876,-1.2361053,-0.46099284
1747679419.6128933,-0.13551278,0.17657542,0.87793493,-0.3876228,-2.2438447,-0.3949465
1747679419.6134121,-0.13551278,0.17657542,0.87793493,-0.3876228,-2.2438447,-0.3949465
1747679419.6139307,-0.13551278,0.17657542,0.87793493,-0.3876228,-2.2438447,-0.3949465
1747679419.6144607,-0.13551278,0.17657542,0.87793493,-0.3876228,-2.2438447,-0.3949465
1747679419.6149952,-0.13551278,0.17657542,0.87793493,-0.3876228,-2.2438447,-0.3949465
1747679419.615538,-0.13551278,0.17657542,0.87793493,-0.3876228,-2.2438447,-0.3949465
1747679419.6160839,-0.13551278,0.17657542,0.87793493,-0.3876228,-2.2438447,-0.3949465
1747679419.616608,-0.13551278,0.17657542,0.87793493,-0.3876228,-2.2438447,-0.3949465
1747679419.617127,-0.13551278,0.17657542,0.87793493,-0.3876228,-2.2438447,-0.3949465
1747679419.617645,-0.13551278,0.17657542,0.87793493,-0.3876228,-2.2438447,-0.3949465
1747679419.618163,-0.13551278,0.17657542,0.87793493,-0.3876228,-2.2438447,-0.3949465
1747679419.6186817,-0.13551278,0.17657542,0.87793493,-0.3876228,-2.2438447,-0.3949465
1747679419.6191998,-0.13551278,0.17657542,0.87793493,-0.3876228,-2.2438447,-0.3949465
1747679419.6197176,-0.13551278,0.17657542,0.87793493,-0.3876228,-2.2438447,-0.3949465
1747679419.6202357,-0.13551278,0.17657542,0.87793493,-0.3876228,-2.2438447,-0.3949465
1747679419.620754,-0.13551278,0.17657542,0.87793493,-0.3876228,-2.2438447,-0.3949465
1747679419.6212716,-0.13551278,0.17657542,0.87793493,-0.3876228,-2.2438447,-0.3949465
1747679419.6217928,-0.13551278,0.17657542,0.87793493,-0.3876228,-2.2438447,-0.3949465
1747679419.6223135,-0.13551278,0.17657542,0.87793493,-0.3876228,-2.2438447,-0.3949465
1747679419.6228318,-0.13551278,0.17657542,0.87793493,-0.3876228,-2.2438447,-0.3949465
1747679419.6233504,-0.13551278,0.17657542,0.87793493,-0.3876228,-2.2438447,-0.3949465
1747679419.6238787,-0.13551278,0.17657542,0.87793493,-0.3876228,-2.2438447,-0.3949465
1747679419.6244113,-0.07352225,0.1726705,0.84669566,-0.17137429,-2.7562366,-0.39601177
1747679419.6249425,-0.07352225,0.1726705,0.84669566,-0.17137429,-2.7562366,-0.39601177
1747679419.6254716,-0.07352225,0.1726705,0.84669566,-0.17137429,-2.7562366,-0.39601177
1747679419.6260204,-0.07352225,0.1726705,0.84669566,-0.17137429,-2.7562366,-0.39601177
1747679419.626578,-0.07352225,0.1726705,0.84669566,-0.17137429,-2.7562366,-0.39601177
1747679419.6271114,-0.07352225,0.1726705,0.84669566,-0.17137429,-2.7562366,-0.39601177
1747679419.627631,-0.07352225,0.1726705,0.84669566,-0.17137429,-2.7562366,-0.39601177
1747679419.628149,-0.07352225,0.1726705,0.84669566,-0.17137429,-2.7562366,-0.39601177
1747679419.628667,-0.07352225,0.1726705,0.84669566,-0.17137429,-2.7562366,-0.39601177
1747679419.629185,-0.07352225,0.1726705,0.84669566,-0.17137429,-2.7562366,-0.39601177
1747679419.6297035,-0.07352225,0.1726705,0.84669566,-0.17137429,-2.7562366,-0.39601177
1747679419.6302564,-0.07352225,0.1726705,0.84669566,-0.17137429,-2.7562366,-0.39601177
1747679419.6308248,-0.07352225,0.1726705,0.84669566,-0.17137429,-2.7562366,-0.39601177
1747679419.6313658,-0.07352225,0.1726705,0.84669566,-0.17137429,-2.7562366,-0.39601177
1747679419.631896,-0.07352225,0.1726705,0.84669566,-0.17137429,-2.7562366,-0.39601177
1747679419.632451,-0.07352225,0.1726705,0.84669566,-0.17137429,-2.7562366,-0.39601177
1747679419.6336055,-0.07352225,0.1726705,0.84669566,-0.17137429,-2.7562366,-0.39601177
1747679419.6341739,-0.07352225,0.1726705,0.84669566,-0.17137429,-2.7562366,-0.39601177
1747679419.6347113,-0.07352225,0.1726705,0.84669566,-0.17137429,-2.7562366,-0.39601177
1747679419.6352582,0.023612538,0.14582421,0.7261313,0.14927007,-3.5189652,-0.43116546
1747679419.6357856,0.023612538,0.14582421,0.7261313,0.14927007,-3.5189652,-0.43116546
1747679419.6363046,0.023612538,0.14582421,0.7261313,0.14927007,-3.5189652,-0.43116546
1747679419.636825,0.023612538,0.14582421,0.7261313,0.14927007,-3.5189652,-0.43116546
1747679419.6373935,0.023612538,0.14582421,0.7261313,0.14927007,-3.5189652,-0.43116546
1747679419.6379128,0.023612538,0.14582421,0.7261313,0.14927007,-3.5189652,-0.43116546
1747679419.638431,0.023612538,0.14582421,0.7261313,0.14927007,-3.5189652,-0.43116546
1747679419.6389494,0.023612538,0.14582421,0.7261313,0.14927007,-3.5189652,-0.43116546
1747679419.6394675,0.023612538,0.14582421,0.7261313,0.14927007,-3.5189652,-0.43116546
1747679419.6399863,0.023612538,0.14582421,0.7261313,0.14927007,-3.5189652,-0.43116546
1747679419.6405044,0.023612538,0.14582421,0.7261313,0.14927007,-3.5189652,-0.43116546
1747679419.6410258,0.023612538,0.14582421,0.7261313,0.14927007,-3.5189652,-0.43116546
1747679419.6415648,0.023612538,0.14582421,0.7261313,0.14927007,-3.5189652,-0.43116546
1747679419.642113,0.023612538,0.14582421,0.7261313,0.14927007,-3.5189652,-0.43116546
1747679419.6426492,0.023612538,0.14582421,0.7261313,0.14927007,-3.5189652,-0.43116546
1747679419.6431708,0.023612538,0.14582421,0.7261313,0.14927007,-3.5189652,-0.43116546
1747679419.6437073,0.05533998,0.11848979,0.5611486,0.14927007,-3.5189652,-0.43116546
1747679419.6442463,0.05533998,0.11848979,0.5611486,0.14927007,-3.5189652,-0.43116546
1747679419.6447687,0.05533998,0.11848979,0.5611486,0.1865543,-3.8886118,-0.44394863
1747679419.645288,0.05533998,0.11848979,0.5611486,0.1865543,-3.8886118,-0.44394863
1747679419.645836,0.05533998,0.11848979,0.5611486,0.1865543,-3.8886118,-0.44394863
1747679419.6463716,0.05533998,0.11848979,0.5611486,0.1865543,-3.8886118,-0.44394863
1747679419.646891,0.05533998,0.11848979,0.5611486,0.1865543,-3.8886118,-0.44394863
1747679419.6474094,0.05533998,0.11848979,0.5611486,0.1865543,-3.8886118,-0.44394863
1747679419.6479278,0.05533998,0.11848979,0.5611486,0.1865543,-3.8886118,-0.44394863
1747679419.6484458,0.05533998,0.11848979,0.5611486,0.1865543,-3.8886118,-0.44394863
1747679419.6489642,0.05533998,0.11848979,0.5611486,0.1865543,-3.8886118,-0.44394863
1747679419.649482,0.05533998,0.11848979,0.5611486,0.1865543,-3.8886118,-0.44394863
1747679419.6499996,0.05533998,0.11848979,0.5611486,0.1865543,-3.8886118,-0.44394863
1747679419.6505175,0.05533998,0.11848979,0.5611486,0.1865543,-3.8886118,-0.44394863
1747679419.6510353,0.05533998,0.11848979,0.5611486,0.1865543,-3.8886118,-0.44394863
1747679419.6515534,0.05533998,0.11848979,0.5611486,0.1865543,-3.8886118,-0.44394863
1747679419.6520712,0.05533998,0.11848979,0.5611486,0.1865543,-3.8886118,-0.44394863
1747679419.652589,0.05533998,0.11848979,0.5611486,0.1865543,-3.8886118,-0.44394863
1747679419.6531067,0.05533998,0.11848979,0.5611486,0.1865543,-3.8886118,-0.44394863
1747679419.6536245,0.05533998,0.11848979,0.5611486,0.1865543,-3.8886118,-0.44394863
1747679419.6541522,0.05533998,0.11848979,0.5611486,0.1865543,-3.8886118,-0.44394863
1747679419.6546867,0.05533998,0.11848979,0.5611486,0.1865543,-3.8886118,-0.44394863
1747679419.655209,0.08999611,0.13362135,0.33563974,-0.17350481,-3.921635,-0.46951494
1747679419.6557302,0.08999611,0.13362135,0.33563974,-0.17350481,-3.921635,-0.46951494
1747679419.656249,0.08999611,0.13362135,0.33563974,-0.17350481,-3.921635,-0.46951494
1747679419.6567693,0.08999611,0.13362135,0.33563974,-0.17350481,-3.921635,-0.46951494
1747679419.6573076,0.08999611,0.13362135,0.33563974,-0.17350481,-3.921635,-0.46951494
1747679419.65785,0.08999611,0.13362135,0.33563974,-0.17350481,-3.921635,-0.46951494
1747679419.6583834,0.08999611,0.13362135,0.33563974,-0.17350481,-3.921635,-0.46951494
1747679419.658903,0.08999611,0.13362135,0.33563974,-0.17350481,-3.921635,-0.46951494
1747679419.6594212,0.08999611,0.13362135,0.33563974,-0.17350481,-3.921635,-0.46951494
1747679419.659939,0.08999611,0.13362135,0.33563974,-0.17350481,-3.921635,-0.46951494
1747679419.6604955,0.08999611,0.13362135,0.33563974,-0.17350481,-3.921635,-0.46951494
1747679419.661066,0.08999611,0.13362135,0.33563974,-0.17350481,-3.921635,-0.46951494
1747679419.6616275,0.08999611,0.13362135,0.33563974,-0.17350481,-3.921635,-0.46951494
1747679419.6621683,0.08999611,0.13362135,0.33563974,-0.17350481,-3.921635,-0.46951494
1747679419.6626923,0.08999611,0.13362135,0.33563974,-0.17350481,-3.921635,-0.46951494
1747679419.6632144,0.08999611,0.13362135,0.33563974,-0.17350481,-3.921635,-0.46951494
1747679419.6637838,0.08999611,0.13362135,0.33563974,-0.17350481,-3.921635,-0.46951494
1747679419.6643357,0.08999611,0.13362135,0.33563974,-0.17350481,-3.921635,-0.46951494
1747679419.6648784,0.08999611,0.13362135,0.33563974,-0.17350481,-3.921635,-0.46951494
1747679419.6654608,0.08999611,0.13362135,0.33563974,-0.17350481,-3.921635,-0.46951494
1747679419.6659904,0.061197355,0.116049215,0.38982043,-0.74448615,-3.0758157,-0.44394863
1747679419.6665099,0.061197355,0.116049215,0.38982043,-0.74448615,-3.0758157,-0.44394863
1747679419.6670282,0.061197355,0.116049215,0.38982043,-0.74448615,-3.0758157,-0.44394863
1747679419.6675463,0.061197355,0.116049215,0.38982043,-0.74448615,-3.0758157,-0.44394863
1747679419.6680646,0.061197355,0.116049215,0.38982043,-0.74448615,-3.0758157,-0.44394863
1747679419.6685827,0.061197355,0.116049215,0.38982043,-0.74448615,-3.0758157,-0.44394863
1747679419.6691005,0.061197355,0.116049215,0.38982043,-0.74448615,-3.0758157,-0.44394863
1747679419.6696186,0.061197355,0.116049215,0.38982043,-0.74448615,-3.0758157,-0.44394863
1747679419.6701367,0.061197355,0.116049215,0.38982043,-0.74448615,-3.0758157,-0.44394863
1747679419.670655,0.06070924,0.028188612,0.51868266,-0.74448615,-3.0758157,-0.44394863
1747679419.6711733,0.06070924,0.028188612,0.51868266,-0.74448615,-3.0758157,-0.44394863
1747679419.671692,0.06070924,0.028188612,0.51868266,-1.3836443,-1.1860379,-0.43755704
1747679419.6722128,0.06070924,0.028188612,0.51868266,-1.3836443,-1.1860379,-0.43755704
1747679419.6727703,0.06070924,0.028188612,0.51868266,-1.3836443,-1.1860379,-0.43755704
1747679419.6733282,0.06070924,0.028188612,0.51868266,-1.3836443,-1.1860379,-0.43755704
1747679419.673875,0.06070924,0.028188612,0.51868266,-1.3836443,-1.1860379,-0.43755704
1747679419.6744144,0.06070924,0.028188612,0.51868266,-1.3836443,-1.1860379,-0.43755704
1747679419.6749353,0.06070924,0.028188612,0.51868266,-1.3836443,-1.1860379,-0.43755704
1747679419.6754537,0.06070924,0.028188612,0.51868266,-1.3836443,-1.1860379,-0.43755704
1747679419.6760116,0.06070924,0.028188612,0.51868266,-1.3836443,-1.1860379,-0.43755704
1747679419.6767166,0.06070924,0.028188612,0.51868266,-1.3836443,-1.1860379,-0.43755704
1747679419.6773696,0.06070924,0.028188612,0.51868266,-1.3836443,-1.1860379,-0.43755704
1747679419.6781654,0.06070924,0.028188612,0.51868266,-1.3836443,-1.1860379,-0.43755704
1747679419.6788135,0.06070924,0.028188612,0.51868266,-1.3836443,-1.1860379,-0.43755704
1747679419.679394,0.06070924,0.028188612,0.51868266,-1.3836443,-1.1860379,-0.43755704
1747679419.6799824,0.06803096,-0.03429004,0.7432153,-1.3836443,-1.1860379,-0.43755704
1747679419.680547,0.06803096,-0.03429004,0.7432153,-1.3836443,-1.1860379,-0.43755704
1747679419.681102,0.06803096,-0.03429004,0.7432153,-1.7277244,-0.037683703,-0.4098602
1747679419.6816337,0.06803096,-0.03429004,0.7432153,-1.7277244,-0.037683703,-0.4098602
1747679419.6821587,0.06803096,-0.03429004,0.7432153,-1.7277244,-0.037683703,-0.4098602
1747679419.6827023,0.06803096,-0.03429004,0.7432153,-1.7277244,-0.037683703,-0.4098602
1747679419.6832533,0.06803096,-0.03429004,0.7432153,-1.7277244,-0.037683703,-0.4098602
1747679419.6837888,0.06803096,-0.03429004,0.7432153,-1.7277244,-0.037683703,-0.4098602
1747679419.6843228,0.06803096,-0.03429004,0.7432153,-1.7277244,-0.037683703,-0.4098602
1747679419.6848729,0.06803096,-0.03429004,0.7432153,-1.7277244,-0.037683703,-0.4098602
1747679419.6854064,0.06803096,-0.03429004,0.7432153,-1.7277244,-0.037683703,-0.4098602
1747679419.685935,0.06803096,-0.03429004,0.7432153,-1.7277244,-0.037683703,-0.4098602
1747679419.686467,0.06803096,-0.03429004,0.7432153,-1.7277244,-0.037683703,-0.4098602
1747679419.6870165,0.06803096,-0.03429004,0.7432153,-1.7277244,-0.037683703,-0.4098602
1747679419.6875615,0.06803096,-0.03429004,0.7432153,-1.7277244,-0.037683703,-0.4098602
1747679419.6880887,0.06803096,-0.03429004,0.7432153,-1.7277244,-0.037683703,-0.4098602
1747679419.688614,0.06803096,-0.03429004,0.7432153,-1.7277244,-0.037683703,-0.4098602
1747679419.6891625,0.06803096,-0.03429004,0.7432153,-1.7277244,-0.037683703,-0.4098602
1747679419.6898258,0.0075047608,-0.051374048,1.0204643,-1.7277244,-0.037683703,-0.4098602
1747679419.69038,0.0075047608,-0.051374048,1.0204643,-1.8619477,0.7143924,-0.4503402
1747679419.6909645,0.0075047608,-0.051374048,1.0204643,-1.8619477,0.7143924,-0.4503402
1747679419.691524,0.0075047608,-0.051374048,1.0204643,-1.8619477,0.7143924,-0.4503402
1747679419.6920576,0.0075047608,-0.051374048,1.0204643,-1.8619477,0.7143924,-0.4503402
1747679419.692589,0.0075047608,-0.051374048,1.0204643,-1.8619477,0.7143924,-0.4503402
1747679419.6931374,0.0075047608,-0.051374048,1.0204643,-1.8619477,0.7143924,-0.4503402
1747679419.6936586,0.0075047608,-0.051374048,1.0204643,-1.8619477,0.7143924,-0.4503402
1747679419.694194,0.0075047608,-0.051374048,1.0204643,-1.8619477,0.7143924,-0.4503402
1747679419.6947148,0.0075047608,-0.051374048,1.0204643,-1.8619477,0.7143924,-0.4503402
1747679419.6952336,0.0075047608,-0.051374048,1.0204643,-1.8619477,0.7143924,-0.4503402
1747679419.6957514,0.0075047608,-0.051374048,1.0204643,-1.8619477,0.7143924,-0.4503402
1747679419.6962695,0.0075047608,-0.051374048,1.0204643,-1.8619477,0.7143924,-0.4503402
1747679419.6967876,0.0075047608,-0.051374048,1.0204643,-1.8619477,0.7143924,-0.4503402
1747679419.697306,0.0075047608,-0.051374048,1.0204643,-1.8619477,0.7143924,-0.4503402
1747679419.697824,0.0075047608,-0.051374048,1.0204643,-1.8619477,0.7143924,-0.4503402
1747679419.698342,0.0075047608,-0.051374048,1.0204643,-1.8619477,0.7143924,-0.4503402
1747679419.6988597,0.0075047608,-0.051374048,1.0204643,-1.8619477,0.7143924,-0.4503402
1747679419.699378,0.0075047608,-0.051374048,1.0204643,-1.8619477,0.7143924,-0.4503402
1747679419.699896,0.0075047608,-0.051374048,1.0204643,-1.8619477,0.7143924,-0.4503402
1747679419.700416,0.0075047608,-0.051374048,1.0204643,-1.8619477,0.7143924,-0.4503402
1747679419.7009385,-0.034473088,-0.057719536,1.1878877,-1.7522255,0.7761777,-0.433296
1747679419.7014568,-0.034473088,-0.057719536,1.1878877,-1.7522255,0.7761777,-0.433296
1747679419.7019765,-0.034473088,-0.057719536,1.1878877,-1.7522255,0.7761777,-0.433296
1747679419.7024975,-0.034473088,-0.057719536,1.1878877,-1.7522255,0.7761777,-0.433296
1747679419.703016,-0.034473088,-0.057719536,1.1878877,-1.7522255,0.7761777,-0.433296
1747679419.7035363,-0.034473088,-0.057719536,1.1878877,-1.7522255,0.7761777,-0.433296
1747679419.7040863,-0.034473088,-0.057719536,1.1878877,-1.7522255,0.7761777,-0.433296
1747679419.7046347,-0.034473088,-0.057719536,1.1878877,-1.7522255,0.7761777,-0.433296
1747679419.7051675,-0.034473088,-0.057719536,1.1878877,-1.7522255,0.7761777,-0.433296
1747679419.7057116,-0.034473088,-0.057719536,1.1878877,-1.7522255,0.7761777,-0.433296
1747679419.706258,-0.034473088,-0.057719536,1.1878877,-1.7522255,0.7761777,-0.433296
1747679419.7067828,-0.034473088,-0.057719536,1.1878877,-1.7522255,0.7761777,-0.433296
1747679419.7073014,-0.034473088,-0.057719536,1.1878877,-1.7522255,0.7761777,-0.433296
1747679419.7078202,-0.034473088,-0.057719536,1.1878877,-1.7522255,0.7761777,-0.433296
1747679419.7083387,-0.034473088,-0.057719536,1.1878877,-1.7522255,0.7761777,-0.433296
1747679419.7088568,-0.034473088,-0.057719536,1.1878877,-1.7522255,0.7761777,-0.433296
1747679419.7093747,-0.034473088,-0.057719536,1.1878877,-1.7522255,0.7761777,-0.433296
1747679419.7098925,-0.034473088,-0.057719536,1.1878877,-1.7522255,0.7761777,-0.433296
1747679419.7104106,-0.034473088,-0.057719536,1.1878877,-1.7522255,0.7761777,-0.433296
1747679419.7109284,-0.034473088,-0.057719536,1.1878877,-1.7522255,0.7761777,-0.433296
1747679419.7114465,-0.034473088,-0.057719536,1.1878877,-1.7522255,0.7761777,-0.433296
1747679419.711965,0.0016473864,-0.07577977,1.278677,-1.7522255,0.7761777,-0.433296
1747679419.7124867,0.0016473864,-0.07577977,1.278677,-1.4976275,0.2233059,-0.44820967
1747679419.7130048,0.0016473864,-0.07577977,1.278677,-1.4976275,0.2233059,-0.44820967
1747679419.713523,0.0016473864,-0.07577977,1.278677,-1.4976275,0.2233059,-0.44820967
1747679419.714041,0.0016473864,-0.07577977,1.278677,-1.4976275,0.2233059,-0.44820967
1747679419.7145698,0.0016473864,-0.07577977,1.278677,-1.4976275,0.2233059,-0.44820967
1747679419.7151034,0.0016473864,-0.07577977,1.278677,-1.4976275,0.2233059,-0.44820967
1747679419.7156234,0.0016473864,-0.07577977,1.278677,-1.4976275,0.2233059,-0.44820967
1747679419.716142,0.0016473864,-0.07577977,1.278677,-1.4976275,0.2233059,-0.44820967
1747679419.71666,0.0016473864,-0.07577977,1.278677,-1.4976275,0.2233059,-0.44820967
1747679419.7171776,0.0016473864,-0.07577977,1.278677,-1.4976275,0.2233059,-0.44820967
1747679419.7176957,0.0016473864,-0.07577977,1.278677,-1.4976275,0.2233059,-0.44820967
1747679419.7182138,0.0016473864,-0.07577977,1.278677,-1.4976275,0.2233059,-0.44820967
1747679419.7187324,0.0016473864,-0.07577977,1.278677,-1.4976275,0.2233059,-0.44820967
1747679419.7192507,0.0016473864,-0.07577977,1.278677,-1.4976275,0.2233059,-0.44820967
1747679419.7197711,0.0016473864,-0.07577977,1.278677,-1.4976275,0.2233059,-0.44820967
1747679419.7203095,0.0016473864,-0.07577977,1.278677,-1.4976275,0.2233059,-0.44820967
1747679419.7208972,0.0016473864,-0.07577977,1.278677,-1.4976275,0.2233059,-0.44820967
1747679419.721464,0.0016473864,-0.07577977,1.278677,-1.4976275,0.2233059,-0.44820967
1747679419.722023,0.0016473864,-0.07577977,1.278677,-1.4976275,0.2233059,-0.44820967
1747679419.7225747,0.0011592719,-0.10506664,1.2952728,-1.2430295,-0.5266397,-0.49401602
1747679419.7231264,0.0011592719,-0.10506664,1.2952728,-1.2430295,-0.5266397,-0.49401602
1747679419.7236762,0.0011592719,-0.10506664,1.2952728,-1.2430295,-0.5266397,-0.49401602
1747679419.7242384,0.0011592719,-0.10506664,1.2952728,-1.2430295,-0.5266397,-0.49401602
1747679419.7247627,0.0011592719,-0.10506664,1.2952728,-1.2430295,-0.5266397,-0.49401602
1747679419.7252958,0.0011592719,-0.10506664,1.2952728,-1.2430295,-0.5266397,-0.49401602
1747679419.7258286,0.0011592719,-0.10506664,1.2952728,-1.2430295,-0.5266397,-0.49401602
1747679419.7263558,0.0011592719,-0.10506664,1.2952728,-1.2430295,-0.5266397,-0.49401602
1747679419.7268836,0.0011592719,-0.10506664,1.2952728,-1.2430295,-0.5266397,-0.49401602
1747679419.7274108,0.0011592719,-0.10506664,1.2952728,-1.2430295,-0.5266397,-0.49401602
1747679419.7279322,0.0011592719,-0.10506664,1.2952728,-1.2430295,-0.5266397,-0.49401602
1747679419.7284508,0.0011592719,-0.10506664,1.2952728,-1.2430295,-0.5266397,-0.49401602
1747679419.7289686,0.0011592719,-0.10506664,1.2952728,-1.2430295,-0.5266397,-0.49401602
1747679419.7294872,0.0011592719,-0.10506664,1.2952728,-1.2430295,-0.5266397,-0.49401602
1747679419.7300055,0.0011592719,-0.10506664,1.2952728,-1.2430295,-0.5266397,-0.49401602
1747679419.7305236,0.0011592719,-0.10506664,1.2952728,-1.2430295,-0.5266397,-0.49401602
1747679419.731042,0.0011592719,-0.10506664,1.2952728,-1.2430295,-0.5266397,-0.49401602
1747679419.7315602,0.0011592719,-0.10506664,1.2952728,-1.2430295,-0.5266397,-0.49401602
1747679419.7320786,0.0011592719,-0.10506664,1.2952728,-1.2430295,-0.5266397,-0.49401602
1747679419.7325976,0.0011592719,-0.10506664,1.2952728,-1.2430295,-0.5266397,-0.49401602
1747679419.733116,0.0011592719,-0.10506664,1.2952728,-1.2430295,-0.5266397,-0.49401602
1747679419.7336342,0.0011592719,-0.10506664,1.2952728,-0.9362336,-1.9029603,-0.5440834
1747679419.7341619,0.0011592719,-0.10506664,1.2952728,-0.9362336,-1.9029603,-0.5440834
1747679419.7346933,0.0011592719,-0.10506664,1.2952728,-0.9362336,-1.9029603,-0.5440834
1747679419.735214,-0.038866114,-0.04161176,1.3040589,-0.9362336,-1.9029603,-0.5440834
1747679419.7357345,-0.038866114,-0.04161176,1.3040589,-0.9362336,-1.9029603,-0.5440834
1747679419.7362933,-0.038866114,-0.04161176,1.3040589,-0.9362336,-1.9029603,-0.5440834
1747679419.7368417,-0.038866114,-0.04161176,1.3040589,-0.9362336,-1.9029603,-0.5440834
1747679419.737375,-0.038866114,-0.04161176,1.3040589,-0.9362336,-1.9029603,-0.5440834
1747679419.7378948,-0.038866114,-0.04161176,1.3040589,-0.9362336,-1.9029603,-0.5440834
1747679419.7384133,-0.038866114,-0.04161176,1.3040589,-0.9362336,-1.9029603,-0.5440834
1747679419.7389314,-0.038866114,-0.04161176,1.3040589,-0.9362336,-1.9029603,-0.5440834
1747679419.7394497,-0.038866114,-0.04161176,1.3040589,-0.9362336,-1.9029603,-0.5440834
1747679419.739968,-0.038866114,-0.04161176,1.3040589,-0.9362336,-1.9029603,-0.5440834
1747679419.7404861,-0.038866114,-0.04161176,1.3040589,-0.9362336,-1.9029603,-0.5440834
1747679419.7410975,-0.038866114,-0.04161176,1.3040589,-0.9362336,-1.9029603,-0.5440834
1747679419.741616,-0.038866114,-0.04161176,1.3040589,-0.9362336,-1.9029603,-0.5440834
1747679419.7421343,-0.038866114,-0.04161176,1.3040589,-0.9362336,-1.9029603,-0.5440834
1747679419.7426567,-0.038866114,-0.04161176,1.3040589,-0.9362336,-1.9029603,-0.5440834
1747679419.7431824,-0.038866114,-0.04161176,1.3040589,-0.9362336,-1.9029603,-0.5440834
1747679419.7437122,-0.038866114,-0.04161176,1.3040589,-0.9362336,-1.9029603,-0.5440834
1747679419.7442472,-0.038866114,-0.04161176,1.3040589,-0.8297072,-2.7104301,-0.52490866
1747679419.7447698,-0.038866114,-0.04161176,1.3040589,-0.8297072,-2.7104301,-0.52490866
1747679419.745291,0.0011592719,0.019890666,1.3543347,-0.8297072,-2.7104301,-0.52490866
1747679419.7458093,0.0011592719,0.019890666,1.3543347,-0.8297072,-2.7104301,-0.52490866
1747679419.7463279,0.0011592719,0.019890666,1.3543347,-0.8297072,-2.7104301,-0.52490866
1747679419.746846,0.0011592719,0.019890666,1.3543347,-0.8297072,-2.7104301,-0.52490866
1747679419.747364,0.0011592719,0.019890666,1.3543347,-0.8297072,-2.7104301,-0.52490866
1747679419.747882,0.0011592719,0.019890666,1.3543347,-0.8297072,-2.7104301,-0.52490866
1747679419.7484002,0.0011592719,0.019890666,1.3543347,-0.8297072,-2.7104301,-0.52490866
1747679419.748918,0.0011592719,0.019890666,1.3543347,-0.8297072,-2.7104301,-0.52490866
1747679419.749436,0.0011592719,0.019890666,1.3543347,-0.8297072,-2.7104301,-0.52490866
1747679419.749954,0.0011592719,0.019890666,1.3543347,-0.8297072,-2.7104301,-0.52490866
1747679419.7504723,0.0011592719,0.019890666,1.3543347,-0.8297072,-2.7104301,-0.52490866
1747679419.7509925,0.0011592719,0.019890666,1.3543347,-0.8297072,-2.7104301,-0.52490866
1747679419.751631,0.0011592719,0.019890666,1.3543347,-0.8297072,-2.7104301,-0.52490866
1747679419.7522416,0.0011592719,0.019890666,1.3543347,-0.8297072,-2.7104301,-0.52490866
1747679419.7527964,0.16858254,0.04332016,1.3928957,-0.8297072,-2.7104301,-0.52490866
1747679419.7534547,0.16858254,0.04332016,1.3928957,-0.7689872,-3.3485231,-0.54834443
1747679419.754015,0.16858254,0.04332016,1.3928957,-0.7689872,-3.3485231,-0.54834443
1747679419.7545485,0.16858254,0.04332016,1.3928957,-0.7689872,-3.3485231,-0.54834443
1747679419.755072,0.16858254,0.04332016,1.3928957,-0.7689872,-3.3485231,-0.54834443
1747679419.7555907,0.16858254,0.04332016,1.3928957,-0.7689872,-3.3485231,-0.54834443
1747679419.7561088,0.16858254,0.04332016,1.3928957,-0.7689872,-3.3485231,-0.54834443
1747679419.7566266,0.16858254,0.04332016,1.3928957,-0.7689872,-3.3485231,-0.54834443
1747679419.757145,0.16858254,0.04332016,1.3928957,-0.7689872,-3.3485231,-0.54834443
1747679419.757663,0.16858254,0.04332016,1.3928957,-0.7689872,-3.3485231,-0.54834443
1747679419.758181,0.16858254,0.04332016,1.3928957,-0.7689872,-3.3485231,-0.54834443
1747679419.7586994,0.16858254,0.04332016,1.3928957,-0.7689872,-3.3485231,-0.54834443
1747679419.7592175,0.16858254,0.04332016,1.3928957,-0.7689872,-3.3485231,-0.54834443
1747679419.7597356,0.16858254,0.04332016,1.3928957,-0.7689872,-3.3485231,-0.54834443
1747679419.7602537,0.16858254,0.04332016,1.3928957,-0.7689872,-3.3485231,-0.54834443
1747679419.7607715,0.16858254,0.04332016,1.3928957,-0.7689872,-3.3485231,-0.54834443
1747679419.7612898,0.16858254,0.04332016,1.3928957,-0.7689872,-3.3485231,-0.54834443
1747679419.7618077,0.16858254,0.04332016,1.3928957,-0.7689872,-3.3485231,-0.54834443
1747679419.762325,0.16858254,0.04332016,1.3928957,-0.7689872,-3.3485231,-0.54834443
1747679419.7628431,0.16858254,0.04332016,1.3928957,-0.7689872,-3.3485231,-0.54834443
1747679419.7633612,0.16858254,0.04332016,1.3928957,-0.7689872,-3.3485231,-0.54834443
1747679419.763879,0.16858254,0.04332016,1.3928957,-0.7689872,-3.3485231,-0.54834443
1747679419.7644067,0.32185048,0.025259925,1.398753,-0.8435556,-3.3943295,-0.7347656
1747679419.7649412,0.32185048,0.025259925,1.398753,-0.8435556,-3.3943295,-0.7347656
1747679419.7654614,0.32185048,0.025259925,1.398753,-0.8435556,-3.3943295,-0.7347656
1747679419.7659802,0.32185048,0.025259925,1.398753,-0.8435556,-3.3943295,-0.7347656
1747679419.7665408,0.32185048,0.025259925,1.398753,-0.8435556,-3.3943295,-0.7347656
1747679419.7674901,0.32185048,0.025259925,1.398753,-0.8435556,-3.3943295,-0.7347656
1747679419.7682502,0.32185048,0.025259925,1.398753,-0.8435556,-3.3943295,-0.7347656
1747679419.7689242,0.32185048,0.025259925,1.398753,-0.8435556,-3.3943295,-0.7347656
1747679419.769485,0.32185048,0.025259925,1.398753,-0.8435556,-3.3943295,-0.7347656
1747679419.770018,0.32185048,0.025259925,1.398753,-0.8435556,-3.3943295,-0.7347656
1747679419.7705383,0.32185048,0.025259925,1.398753,-0.8435556,-3.3943295,-0.7347656
1747679419.7710576,0.30232593,0.010616491,1.3548229,-0.8435556,-3.3943295,-0.7347656
1747679419.771577,0.30232593,0.010616491,1.3548229,-0.8435556,-3.3943295,-0.7347656
1747679419.7720954,0.30232593,0.010616491,1.3548229,-0.8435556,-3.3943295,-0.7347656
1747679419.7726135,0.30232593,0.010616491,1.3548229,-0.8435556,-3.3943295,-0.7347656
1747679419.7731318,0.30232593,0.010616491,1.3548229,-0.8435556,-3.3943295,-0.7347656
1747679419.7736604,0.30232593,0.010616491,1.3548229,-0.8435556,-3.3943295,-0.7347656
1747679419.7741897,0.30232593,0.010616491,1.3548229,-0.8435556,-3.3943295,-0.7347656
1747679419.7747097,0.30232593,0.010616491,1.3548229,-0.8435556,-3.3943295,-0.7347656
1747679419.7752285,0.30232593,0.010616491,1.3548229,-1.0310421,-2.7573018,-0.8934899
1747679419.775747,0.30232593,0.010616491,1.3548229,-1.0310421,-2.7573018,-0.8934899
1747679419.776265,0.30232593,0.010616491,1.3548229,-1.0310421,-2.7573018,-0.8934899
1747679419.776783,0.30232593,0.010616491,1.3548229,-1.0310421,-2.7573018,-0.8934899
1747679419.7773013,0.30232593,0.010616491,1.3548229,-1.0310421,-2.7573018,-0.8934899
1747679419.7778192,0.30232593,0.010616491,1.3548229,-1.0310421,-2.7573018,-0.8934899
1747679419.77834,0.30232593,0.010616491,1.3548229,-1.0310421,-2.7573018,-0.8934899
1747679419.778861,0.30232593,0.010616491,1.3548229,-1.0310421,-2.7573018,-0.8934899
1747679419.7793825,0.30232593,0.010616491,1.3548229,-1.0310421,-2.7573018,-0.8934899
1747679419.7799034,0.30232593,0.010616491,1.3548229,-1.0310421,-2.7573018,-0.8934899
1747679419.7804282,0.30232593,0.010616491,1.3548229,-1.0310421,-2.7573018,-0.8934899
1747679419.780952,0.1939645,0.05503491,1.3543347,-1.0310421,-2.7573018,-0.8934899
1747679419.7814748,0.1939645,0.05503491,1.3543347,-1.0310421,-2.7573018,-0.8934899
1747679419.7820313,0.1939645,0.05503491,1.3543347,-1.3357074,-1.7026907,-0.99468994
1747679419.782593,0.1939645,0.05503491,1.3543347,-1.3357074,-1.7026907,-0.99468994
1747679419.7831554,0.1939645,0.05503491,1.3543347,-1.3357074,-1.7026907,-0.99468994
1747679419.7837248,0.1939645,0.05503491,1.3543347,-1.3357074,-1.7026907,-0.99468994
1747679419.7843714,0.1939645,0.05503491,1.3543347,-1.3357074,-1.7026907,-0.99468994
1747679419.7849362,0.1939645,0.05503491,1.3543347,-1.3357074,-1.7026907,-0.99468994
1747679419.785472,0.1939645,0.05503491,1.3543347,-1.3357074,-1.7026907,-0.99468994
1747679419.7859943,0.1939645,0.05503491,1.3543347,-1.3357074,-1.7026907,-0.99468994
1747679419.7865152,0.1939645,0.05503491,1.3543347,-1.3357074,-1.7026907,-0.99468994
1747679419.7870362,0.1939645,0.05503491,1.3543347,-1.3357074,-1.7026907,-0.99468994
1747679419.7875571,0.1939645,0.05503491,1.3543347,-1.3357074,-1.7026907,-0.99468994
1747679419.7880778,0.1939645,0.05503491,1.3543347,-1.3357074,-1.7026907,-0.99468994
1747679419.7885985,0.1939645,0.05503491,1.3543347,-1.3357074,-1.7026907,-0.99468994
1747679419.7891192,0.1939645,0.05503491,1.3543347,-1.3357074,-1.7026907,-0.99468994
1747679419.7896404,0.045577694,0.12093037,1.4597675,-1.5594128,-0.65447134,-0.99682045
1747679419.7901654,0.045577694,0.12093037,1.4597675,-1.5594128,-0.65447134,-0.99682045
1747679419.7906885,0.045577694,0.12093037,1.4597675,-1.5594128,-0.65447134,-0.99682045
1747679419.7912102,0.045577694,0.12093037,1.4597675,-1.5594128,-0.65447134,-0.99682045
1747679419.791731,0.045577694,0.12093037,1.4597675,-1.5594128,-0.65447134,-0.99682045
1747679419.792252,0.045577694,0.12093037,1.4597675,-1.5594128,-0.65447134,-0.99682045
1747679419.792773,0.045577694,0.12093037,1.4597675,-1.5594128,-0.65447134,-0.99682045
1747679419.7932966,0.045577694,0.12093037,1.4597675,-1.5594128,-0.65447134,-0.99682045
1747679419.7938201,0.045577694,0.12093037,1.4597675,-1.5594128,-0.65447134,-0.99682045
1747679419.794359,0.045577694,0.12093037,1.4597675,-1.5594128,-0.65447134,-0.99682045
1747679419.7948787,0.045577694,0.12093037,1.4597675,-1.5594128,-0.65447134,-0.99682045
1747679419.795397,0.045577694,0.12093037,1.4597675,-1.5594128,-0.65447134,-0.99682045
1747679419.7959154,0.045577694,0.12093037,1.4597675,-1.5594128,-0.65447134,-0.99682045
1747679419.7964334,0.045577694,0.12093037,1.4597675,-1.5594128,-0.65447134,-0.99682045
1747679419.7969542,0.045577694,0.12093037,1.4597675,-1.5594128,-0.65447134,-0.99682045
1747679419.7975283,0.045577694,0.12093037,1.4597675,-1.5594128,-0.65447134,-0.99682045
1747679419.7980707,0.045577694,0.12093037,1.4597675,-1.5594128,-0.65447134,-0.99682045
1747679419.7986376,0.045577694,0.12093037,1.4597675,-1.5594128,-0.65447134,-0.99682045
1747679419.7991896,0.045577694,0.12093037,1.4597675,-1.5594128,-0.65447134,-0.99682045
1747679419.799723,0.045577694,0.12093037,1.4597675,-1.5594128,-0.65447134,-0.99682045
1747679419.8002424,0.045577694,0.12093037,1.4597675,-1.5594128,-0.65447134,-0.99682045
1747679419.8007617,-0.016900964,0.16534878,1.5505568,-1.5594128,-0.65447134,-0.99682045
1747679419.801283,-0.016900964,0.16534878,1.5505568,-1.5594128,-0.65447134,-0.99682045
1747679419.8018036,-0.016900964,0.16534878,1.5505568,-1.6488949,0.014514217,-0.90627307
1747679419.8023221,-0.016900964,0.16534878,1.5505568,-1.6488949,0.014514217,-0.90627307
1747679419.8028405,-0.016900964,0.16534878,1.5505568,-1.6488949,0.014514217,-0.90627307
1747679419.8033586,-0.016900964,0.16534878,1.5505568,-1.6488949,0.014514217,-0.90627307
1747679419.8038871,-0.016900964,0.16534878,1.5505568,-1.6488949,0.014514217,-0.90627307
1747679419.8044217,-0.016900964,0.16534878,1.5505568,-1.6488949,0.014514217,-0.90627307
1747679419.804941,-0.016900964,0.16534878,1.5505568,-1.6488949,0.014514217,-0.90627307
1747679419.8054593,-0.016900964,0.16534878,1.5505568,-1.6488949,0.014514217,-0.90627307
1747679419.8059773,-0.016900964,0.16534878,1.5505568,-1.6488949,0.014514217,-0.90627307
1747679419.8064954,-0.016900964,0.16534878,1.5505568,-1.6488949,0.014514217,-0.90627307
1747679419.807013,-0.016900964,0.16534878,1.5505568,-1.6488949,0.014514217,-0.90627307
1747679419.807531,-0.016900964,0.16534878,1.5505568,-1.6488949,0.014514217,-0.90627307
1747679419.808049,-0.016900964,0.16534878,1.5505568,-1.6488949,0.014514217,-0.90627307
1747679419.8085668,-0.016900964,0.16534878,1.5505568,-1.6488949,0.014514217,-0.90627307
1747679419.8090844,-0.016900964,0.16534878,1.5505568,-1.6488949,0.014514217,-0.90627307
1747679419.8096025,-0.016900964,0.16534878,1.5505568,-1.6488949,0.014514217,-0.90627307
1747679419.81012,-0.016900964,0.16534878,1.5505568,-1.6488949,0.014514217,-0.90627307
1747679419.8106382,-0.016900964,0.16534878,1.5505568,-1.6488949,0.014514217,-0.90627307
1747679419.8111567,0.009945333,0.20195737,1.607178,-1.5988276,0.26591644,-0.8263783
1747679419.8116748,0.009945333,0.20195737,1.607178,-1.5988276,0.26591644,-0.8263783
1747679419.8122184,0.009945333,0.20195737,1.607178,-1.5988276,0.26591644,-0.8263783
1747679419.8127866,0.009945333,0.20195737,1.607178,-1.5988276,0.26591644,-0.8263783
1747679419.8133478,0.009945333,0.20195737,1.607178,-1.5988276,0.26591644,-0.8263783
1747679419.814005,0.009945333,0.20195737,1.607178,-1.5988276,0.26591644,-0.8263783
1747679419.8145673,0.009945333,0.20195737,1.607178,-1.5988276,0.26591644,-0.8263783
1747679419.815118,0.009945333,0.20195737,1.607178,-1.5988276,0.26591644,-0.8263783
1747679419.8156507,0.009945333,0.20195737,1.607178,-1.5988276,0.26591644,-0.8263783
1747679419.8161705,0.009945333,0.20195737,1.607178,-1.5988276,0.26591644,-0.8263783
1747679419.816689,0.009945333,0.20195737,1.607178,-1.5988276,0.26591644,-0.8263783
1747679419.8172112,0.009945333,0.20195737,1.607178,-1.5988276,0.26591644,-0.8263783
1747679419.8177302,0.009945333,0.20195737,1.607178,-1.5988276,0.26591644,-0.8263783
1747679419.8182487,0.009945333,0.20195737,1.607178,-1.5988276,0.26591644,-0.8263783
1747679419.8187668,0.009945333,0.20195737,1.607178,-1.5988276,0.26591644,-0.8263783
1747679419.819285,0.009945333,0.20195737,1.607178,-1.5988276,0.26591644,-0.8263783
1747679419.8198035,0.009945333,0.20195737,1.607178,-1.5988276,0.26591644,-0.8263783
1747679419.8203213,0.009945333,0.20195737,1.607178,-1.5988276,0.26591644,-0.8263783
1747679419.8208406,0.009945333,0.20195737,1.607178,-1.4124064,0.01238369,-0.8018772
1747679419.8213599,0.04850638,0.2468639,1.7004079,-1.4124064,0.01238369,-0.8018772
1747679419.8218782,0.04850638,0.2468639,1.7004079,-1.4124064,0.01238369,-0.8018772
1747679419.822397,0.04850638,0.2468639,1.7004079,-1.4124064,0.01238369,-0.8018772
