timestamp,acc_x,acc_y,acc_z,gyro_x,gyro_y,gyro_z
1747679504.622653,0.17053501,0.9131402,0.41276184,-0.46645233,0.3990744,-0.25752747
1747679504.6232128,0.105127655,0.9351053,0.4464417,-0.46645233,0.3990744,-0.25752747
1747679504.6237655,0.105127655,0.9351053,0.4464417,-0.46645233,0.3990744,-0.25752747
1747679504.6243277,0.105127655,0.9351053,0.4464417,-0.46645233,0.3990744,-0.25752747
1747679504.6248524,0.105127655,0.9351053,0.4464417,-0.3940144,0.38522595,-0.1893506
1747679504.625377,0.105127655,0.9351053,0.4464417,-0.3940144,0.38522595,-0.1893506
1747679504.6259317,0.105127655,0.9351053,0.4464417,-0.3940144,0.38522595,-0.1893506
1747679504.6264842,0.105127655,0.9351053,0.4464417,-0.3940144,0.38522595,-0.1893506
1747679504.6270182,0.105127655,0.9351053,0.4464417,-0.3940144,0.38522595,-0.1893506
1747679504.6275396,0.105127655,0.9351053,0.4464417,-0.3940144,0.38522595,-0.1893506
1747679504.6280587,0.105127655,0.9351053,0.4464417,-0.3940144,0.38522595,-0.1893506
1747679504.6285768,0.105127655,0.9351053,0.4464417,-0.3940144,0.38522595,-0.1893506
1747679504.6291335,0.105127655,0.9351053,0.4464417,-0.3940144,0.38522595,-0.1893506
1747679504.6297002,0.105127655,0.9351053,0.4464417,-0.3940144,0.38522595,-0.1893506
1747679504.6302536,0.105127655,0.9351053,0.4464417,-0.3940144,0.38522595,-0.1893506
1747679504.6307871,0.105127655,0.9351053,0.4464417,-0.3940144,0.38522595,-0.1893506
1747679504.6313066,0.13734321,0.99123853,0.4532753,-0.18415745,0.124236375,-0.0061252657
1747679504.631827,0.13734321,0.99123853,0.4532753,-0.18415745,0.124236375,-0.0061252657
1747679504.6323457,0.13734321,0.99123853,0.4532753,-0.18415745,0.124236375,-0.0061252657
1747679504.6328638,0.13734321,0.99123853,0.4532753,-0.18415745,0.124236375,-0.0061252657
1747679504.6333818,0.13734321,0.99123853,0.4532753,-0.18415745,0.124236375,-0.0061252657
1747679504.633903,0.13734321,0.99123853,0.4532753,-0.18415745,0.124236375,-0.0061252657
1747679504.634434,0.13734321,0.99123853,0.4532753,-0.18415745,0.124236375,-0.0061252657
1747679504.63496,0.13734321,0.99123853,0.4532753,-0.18415745,0.124236375,-0.0061252657
1747679504.6354816,0.13734321,0.99123853,0.4532753,-0.18415745,0.124236375,-0.0061252657
1747679504.6360161,0.13734321,0.99123853,0.4532753,-0.18415745,0.124236375,-0.0061252657
1747679504.6365495,0.13734321,0.99123853,0.4532753,-0.18415745,0.124236375,-0.0061252657
1747679504.6371155,0.13734321,0.99123853,0.4532753,-0.18415745,0.124236375,-0.0061252657
1747679504.6376355,0.13734321,0.99123853,0.4532753,-0.18415745,0.124236375,-0.0061252657
1747679504.638154,0.13734321,0.99123853,0.4532753,-0.18415745,0.124236375,-0.0061252657
1747679504.638672,0.13734321,0.99123853,0.4532753,-0.18415745,0.124236375,-0.0061252657
1747679504.6391904,0.13734321,0.99123853,0.4532753,-0.18415745,0.124236375,-0.0061252657
1747679504.6397088,0.13734321,0.99123853,0.4532753,-0.18415745,0.124236375,-0.0061252657
1747679504.6402283,0.13734321,0.99123853,0.4532753,-0.18415745,0.124236375,-0.0061252657
1747679504.6407466,0.13734321,0.99123853,0.4532753,-0.18415745,0.124236375,-0.0061252657
1747679504.6412644,0.13734321,0.99123853,0.4532753,-0.18415745,0.124236375,-0.0061252657
1747679504.6417873,0.13734321,0.99123853,0.4532753,-0.18415745,0.124236375,-0.0061252657
1747679504.642322,0.13734321,0.99123853,0.4532753,-0.11598058,0.045406863,0.02796317
1747679504.6428587,0.13734321,0.99123853,0.4532753,-0.11598058,0.045406863,0.02796317
1747679504.6433854,0.13734321,0.99123853,0.4532753,-0.11598058,0.045406863,0.02796317
1747679504.6439307,0.13734321,0.99123853,0.4532753,-0.11598058,0.045406863,0.02796317
1747679504.6446128,0.13734321,0.99123853,0.4532753,-0.11598058,0.045406863,0.02796317
1747679504.645181,0.13734321,0.99123853,0.4532753,-0.11598058,0.045406863,0.02796317
1747679504.645739,0.21251285,0.9844049,0.41569054,-0.11598058,0.045406863,0.02796317
1747679504.6462896,0.21251285,0.9844049,0.41569054,-0.11598058,0.045406863,0.02796317
1747679504.646838,0.21251285,0.9844049,0.41569054,-0.11598058,0.045406863,0.02796317
1747679504.6473763,0.21251285,0.9844049,0.41569054,-0.11598058,0.045406863,0.02796317
1747679504.6479175,0.21251285,0.9844049,0.41569054,-0.11598058,0.045406863,0.02796317
1747679504.6602347,0.30330214,0.9966078,0.34003276,-0.050999496,-0.07922898,-0.011451584
1747679504.6608045,0.30330214,0.9966078,0.34003276,-0.050999496,-0.07922898,-0.011451584
1747679504.661369,0.30330214,0.9966078,0.34003276,-0.050999496,-0.07922898,-0.011451584
1747679504.6619365,0.30330214,0.9966078,0.34003276,-0.050999496,-0.07922898,-0.011451584
1747679504.6624942,0.30330214,0.9966078,0.34003276,-0.050999496,-0.07922898,-0.011451584
1747679504.663053,0.30330214,0.9966078,0.34003276,-0.050999496,-0.07922898,-0.011451584
1747679504.6636102,0.30330214,0.9966078,0.34003276,-0.050999496,-0.07922898,-0.011451584
1747679504.6641648,0.30330214,0.9966078,0.34003276,-0.050999496,-0.07922898,-0.011451584
1747679504.6646898,0.30330214,0.9966078,0.34003276,-0.050999496,-0.07922898,-0.011451584
1747679504.665209,0.30818328,1.0415143,0.3214844,-0.0051931604,-0.26245433,-0.11265163
1747679504.6657274,0.30818328,1.0415143,0.3214844,-0.0051931604,-0.26245433,-0.11265163
1747679504.6662464,0.30818328,1.0415143,0.3214844,-0.0051931604,-0.26245433,-0.11265163
1747679504.6667647,0.30818328,1.0415143,0.3214844,-0.0051931604,-0.26245433,-0.11265163
1747679504.6672833,0.30818328,1.0415143,0.3214844,-0.0051931604,-0.26245433,-0.11265163
1747679504.667801,0.30818328,1.0415143,0.3214844,-0.0051931604,-0.26245433,-0.11265163
1747679504.668319,0.30818328,1.0415143,0.3214844,-0.0051931604,-0.26245433,-0.11265163
1747679504.6688375,0.30818328,1.0415143,0.3214844,-0.0051931604,-0.26245433,-0.11265163
1747679504.6693635,0.30818328,1.0415143,0.3214844,-0.0051931604,-0.26245433,-0.11265163
1747679504.6698818,0.30818328,1.0415143,0.3214844,-0.0051931604,-0.26245433,-0.11265163
1747679504.6704009,0.36041155,1.0307758,0.32538933,-0.0051931604,-0.26245433,-0.11265163
1747679504.6709194,0.36041155,1.0307758,0.32538933,-0.0051931604,-0.26245433,-0.11265163
1747679504.6714375,0.36041155,1.0307758,0.32538933,-0.0051931604,-0.26245433,-0.11265163
1747679504.6719553,0.36041155,1.0307758,0.32538933,-0.0051931604,-0.26245433,-0.11265163
1747679504.6724815,0.36041155,1.0307758,0.32538933,-0.0051931604,-0.26245433,-0.11265163
1747679504.6730313,0.36041155,1.0307758,0.32538933,0.010785795,-0.24647537,-0.19574219
1747679504.6735787,0.36041155,1.0307758,0.32538933,0.010785795,-0.24647537,-0.19574219
1747679504.674137,0.36041155,1.0307758,0.32538933,0.010785795,-0.24647537,-0.19574219
1747679504.6747003,0.36041155,1.0307758,0.32538933,0.010785795,-0.24647537,-0.19574219
1747679504.6752322,0.36041155,1.0307758,0.32538933,0.010785795,-0.24647537,-0.19574219
1747679504.6757855,0.36041155,1.0307758,0.32538933,0.010785795,-0.24647537,-0.19574219
1747679504.6763387,0.36041155,1.0307758,0.32538933,0.010785795,-0.24647537,-0.19574219
1747679504.6768715,0.36041155,1.0307758,0.32538933,0.010785795,-0.24647537,-0.19574219
1747679504.6773982,0.36041155,1.0307758,0.32538933,0.010785795,-0.24647537,-0.19574219
1747679504.6779246,0.36041155,1.0307758,0.32538933,0.010785795,-0.24647537,-0.19574219
1747679504.6784503,0.36041155,1.0307758,0.32538933,0.010785795,-0.24647537,-0.19574219
1747679504.6789887,0.36041155,1.0307758,0.32538933,0.010785795,-0.24647537,-0.19574219
1747679504.6795328,0.36041155,1.0307758,0.32538933,0.010785795,-0.24647537,-0.19574219
1747679504.6800616,0.36041155,1.0307758,0.32538933,0.010785795,-0.24647537,-0.19574219
1747679504.6805906,0.36773324,0.9956316,0.29659057,0.010785795,-0.24647537,-0.19574219
1747679504.68112,0.36773324,0.9956316,0.29659057,0.010785795,-0.24647537,-0.19574219
1747679504.681658,0.36773324,0.9956316,0.29659057,-0.0105194785,-0.07709846,-0.31931278
1747679504.6822042,0.36773324,0.9956316,0.29659057,-0.0105194785,-0.07709846,-0.31931278
1747679504.6827493,0.36773324,0.9956316,0.29659057,-0.0105194785,-0.07709846,-0.31931278
1747679504.6832876,0.36773324,0.9956316,0.29659057,-0.0105194785,-0.07709846,-0.31931278
1747679504.683815,0.36773324,0.9956316,0.29659057,-0.0105194785,-0.07709846,-0.31931278
1747679504.6843464,0.36773324,0.9956316,0.29659057,-0.0105194785,-0.07709846,-0.31931278
1747679504.6848676,0.36773324,0.9956316,0.29659057,-0.0105194785,-0.07709846,-0.31931278
1747679504.6853888,0.36773324,0.9956316,0.29659057,-0.0105194785,-0.07709846,-0.31931278
1747679504.6859097,0.36773324,0.9956316,0.29659057,-0.0105194785,-0.07709846,-0.31931278
1747679504.6864312,0.36773324,0.9956316,0.29659057,-0.0105194785,-0.07709846,-0.31931278
1747679504.686952,0.36773324,0.9956316,0.29659057,-0.0105194785,-0.07709846,-0.31931278
1747679504.6874752,0.36773324,0.9956316,0.29659057,-0.0105194785,-0.07709846,-0.31931278
1747679504.6880014,0.36773324,0.9956316,0.29659057,-0.0105194785,-0.07709846,-0.31931278
1747679504.6885657,0.36773324,0.9956316,0.29659057,-0.0105194785,-0.07709846,-0.31931278
1747679504.689132,0.36773324,0.9956316,0.29659057,-0.0105194785,-0.07709846,-0.31931278
1747679504.6896763,0.36773324,0.9956316,0.29659057,-0.049934234,0.037950017,-0.3864244
1747679504.6902134,0.24277595,0.98879796,0.28341147,-0.049934234,0.037950017,-0.3864244
1747679504.6910172,0.24277595,0.98879796,0.28341147,-0.049934234,0.037950017,-0.3864244
1747679504.6919265,0.24277595,0.98879796,0.28341147,-0.049934234,0.037950017,-0.3864244
1747679504.6924992,0.24277595,0.98879796,0.28341147,-0.049934234,0.037950017,-0.3864244
1747679504.6930587,0.24277595,0.98879796,0.28341147,-0.049934234,0.037950017,-0.3864244
1747679504.695004,0.24277595,0.98879796,0.28341147,-0.049934234,0.037950017,-0.3864244
1747679504.6955955,0.24277595,0.98879796,0.28341147,-0.049934234,0.037950017,-0.3864244
1747679504.6961474,0.24277595,0.98879796,0.28341147,-0.049934234,0.037950017,-0.3864244
1747679504.6966927,0.24277595,0.98879796,0.28341147,-0.049934234,0.037950017,-0.3864244
1747679504.697238,0.24277595,0.98879796,0.28341147,-0.049934234,0.037950017,-0.3864244
1747679504.6977859,0.24277595,0.98879796,0.28341147,-0.049934234,0.037950017,-0.3864244
1747679504.6983304,0.24277595,0.98879796,0.28341147,-0.049934234,0.037950017,-0.3864244
1747679504.6988726,0.24277595,0.98879796,0.28341147,-0.049934234,0.037950017,-0.3864244
1747679504.699421,0.24277595,0.98879796,0.28341147,-0.049934234,0.037950017,-0.3864244
1747679504.6999645,0.24277595,0.98879796,0.28341147,-0.049934234,0.037950017,-0.3864244
1747679504.7005076,0.24277595,0.98879796,0.28341147,-0.049934234,0.037950017,-0.3864244
1747679504.7010565,0.24277595,0.98879796,0.28341147,-0.049934234,0.037950017,-0.3864244
1747679504.7016041,0.24277595,0.98879796,0.28341147,-0.049934234,0.037950017,-0.3864244
1747679504.7021523,0.12562847,0.98196435,0.3073291,-0.049934234,0.037950017,-0.3864244
1747679504.7027004,0.12562847,0.98196435,0.3073291,-0.08082688,0.07310372,-0.31505173
1747679504.7032475,0.12562847,0.98196435,0.3073291,-0.08082688,0.07310372,-0.31505173
1747679504.703793,0.12562847,0.98196435,0.3073291,-0.08082688,0.07310372,-0.31505173
1747679504.704354,0.12562847,0.98196435,0.3073291,-0.08082688,0.07310372,-0.31505173
1747679504.7049124,0.12562847,0.98196435,0.3073291,-0.08082688,0.07310372,-0.31505173
1747679504.7055027,0.12562847,0.98196435,0.3073291,-0.08082688,0.07310372,-0.31505173
1747679504.7062337,0.12562847,0.98196435,0.3073291,-0.08082688,0.07310372,-0.31505173
1747679504.707135,0.12562847,0.98196435,0.3073291,-0.08082688,0.07310372,-0.31505173
1747679504.7081058,0.12562847,0.98196435,0.3073291,-0.08082688,0.07310372,-0.31505173
1747679504.7086792,0.12562847,0.98196435,0.3073291,-0.08082688,0.07310372,-0.31505173
1747679504.7092516,0.12562847,0.98196435,0.3073291,-0.08082688,0.07310372,-0.31505173
1747679504.7098079,0.12562847,0.98196435,0.3073291,-0.08082688,0.07310372,-0.31505173
1747679504.7103655,0.12562847,0.98196435,0.3073291,-0.08082688,0.07310372,-0.31505173
1747679504.7109299,0.12562847,0.98196435,0.3073291,-0.08082688,0.07310372,-0.31505173
1747679504.7115026,0.12562847,0.98196435,0.3073291,-0.08082688,0.07310372,-0.31505173
1747679504.71215,0.12562847,0.98196435,0.3073291,-0.08082688,0.07310372,-0.31505173
1747679504.7127113,0.06851907,0.96097535,0.3493069,-0.07869635,0.051798444,-0.15526217
1747679504.7132616,0.06851907,0.96097535,0.3493069,-0.07869635,0.051798444,-0.15526217
1747679504.713814,0.06851907,0.96097535,0.3493069,-0.07869635,0.051798444,-0.15526217
1747679504.7143593,0.06851907,0.96097535,0.3493069,-0.07869635,0.051798444,-0.15526217
1747679504.7148855,0.06851907,0.96097535,0.3493069,-0.07869635,0.051798444,-0.15526217
1747679504.7154076,0.06851907,0.96097535,0.3493069,-0.07869635,0.051798444,-0.15526217
1747679504.7159295,0.06851907,0.96097535,0.3493069,-0.07869635,0.051798444,-0.15526217
1747679504.716452,0.06851907,0.96097535,0.3493069,-0.07869635,0.051798444,-0.15526217
1747679504.7169733,0.06851907,0.96097535,0.3493069,-0.07869635,0.051798444,-0.15526217
1747679504.7174947,0.06851907,0.96097535,0.3493069,-0.07869635,0.051798444,-0.15526217
1747679504.7180219,0.06851907,0.96097535,0.3493069,-0.07869635,0.051798444,-0.15526217
1747679504.7185435,0.06851907,0.96097535,0.3493069,-0.07869635,0.051798444,-0.15526217
1747679504.7190654,0.06851907,0.96097535,0.3493069,-0.07869635,0.051798444,-0.15526217
1747679504.7195911,0.06851907,0.96097535,0.3493069,-0.07869635,0.051798444,-0.15526217
1747679504.7201362,0.06851907,0.96097535,0.3493069,-0.03715107,-0.06964161,-0.032756858
1747679504.720743,0.06851907,0.96097535,0.3493069,-0.03715107,-0.06964161,-0.032756858
1747679504.7213657,0.09487725,0.9477963,0.387868,-0.03715107,-0.06964161,-0.032756858
1747679504.721932,0.09487725,0.9477963,0.387868,-0.03715107,-0.06964161,-0.032756858
1747679504.7225075,0.09487725,0.9477963,0.387868,-0.03715107,-0.06964161,-0.032756858
1747679504.723072,0.09487725,0.9477963,0.387868,-0.03715107,-0.06964161,-0.032756858
1747679504.7236292,0.09487725,0.9477963,0.387868,-0.03715107,-0.06964161,-0.032756858
1747679504.7241843,0.09487725,0.9477963,0.387868,-0.03715107,-0.06964161,-0.032756858
1747679504.724739,0.09487725,0.9477963,0.387868,-0.03715107,-0.06964161,-0.032756858
1747679504.7252908,0.09487725,0.9477963,0.387868,-0.03715107,-0.06964161,-0.032756858
1747679504.7258317,0.09487725,0.9477963,0.387868,-0.03715107,-0.06964161,-0.032756858
1747679504.72637,0.09487725,0.9477963,0.387868,-0.03715107,-0.06964161,-0.032756858
1747679504.726904,0.09487725,0.9477963,0.387868,-0.03715107,-0.06964161,-0.032756858
1747679504.7274237,0.09487725,0.9477963,0.387868,-0.03715107,-0.06964161,-0.032756858
1747679504.7279425,0.09487725,0.9477963,0.387868,-0.03715107,-0.06964161,-0.032756858
1747679504.7284608,0.09487725,0.9477963,0.387868,-0.03715107,-0.06964161,-0.032756858
1747679504.7289817,0.09487725,0.9477963,0.387868,-0.03715107,-0.06964161,-0.032756858
1747679504.7295024,0.09487725,0.9477963,0.387868,-0.03715107,-0.06964161,-0.032756858
1747679504.7300234,0.09487725,0.9477963,0.387868,-0.03715107,-0.06964161,-0.032756858
1747679504.7305446,0.14856985,0.94145083,0.42789337,-0.03715107,-0.06964161,-0.032756858
1747679504.73109,0.14856985,0.94145083,0.42789337,0.060853187,-0.25819328,0.058855817
1747679504.731609,0.14856985,0.94145083,0.42789337,0.060853187,-0.25819328,0.058855817
1747679504.7321274,0.14856985,0.94145083,0.42789337,0.060853187,-0.25819328,0.058855817
1747679504.7326458,0.14856985,0.94145083,0.42789337,0.060853187,-0.25819328,0.058855817
1747679504.733164,0.14856985,0.94145083,0.42789337,0.060853187,-0.25819328,0.058855817
1747679504.7336855,0.14856985,0.94145083,0.42789337,0.060853187,-0.25819328,0.058855817
1747679504.7342162,0.14856985,0.94145083,0.42789337,0.060853187,-0.25819328,0.058855817
1747679504.7347422,0.14856985,0.94145083,0.42789337,0.060853187,-0.25819328,0.058855817
1747679504.7352643,0.14856985,0.94145083,0.42789337,0.060853187,-0.25819328,0.058855817
1747679504.735813,0.14856985,0.94145083,0.42789337,0.060853187,-0.25819328,0.058855817
1747679504.7363553,0.14856985,0.94145083,0.42789337,0.060853187,-0.25819328,0.058855817
1747679504.7369199,0.14856985,0.94145083,0.42789337,0.060853187,-0.25819328,0.058855817
1747679504.7374666,0.14856985,0.94145083,0.42789337,0.060853187,-0.25819328,0.058855817
1747679504.737993,0.14856985,0.94145083,0.42789337,0.060853187,-0.25819328,0.058855817
1747679504.7385118,0.14856985,0.94145083,0.42789337,0.060853187,-0.25819328,0.058855817
1747679504.739031,0.14856985,0.94145083,0.42789337,0.060853187,-0.25819328,0.058855817
1747679504.73955,0.14856985,0.94145083,0.42789337,0.060853187,-0.25819328,0.058855817
1747679504.7400703,0.14856985,0.94145083,0.42789337,0.060853187,-0.25819328,0.058855817
1747679504.7405906,0.14856985,0.94145083,0.42789337,0.060853187,-0.25819328,0.058855817
1747679504.7411096,0.14856985,0.94145083,0.42789337,0.060853187,-0.25819328,0.058855817
1747679504.741628,0.14856985,0.94145083,0.42789337,0.060853187,-0.25819328,0.058855817
1747679504.7421465,0.14856985,0.94145083,0.42789337,0.060853187,-0.25819328,0.058855817
1747679504.742665,0.14856985,0.94145083,0.42789337,0.060853187,-0.25819328,0.058855817
1747679504.7431831,0.14856985,0.94145083,0.42789337,0.060853187,-0.25819328,0.058855817
1747679504.7437062,0.14856985,0.94145083,0.42789337,0.060853187,-0.25819328,0.058855817
1747679504.7442365,0.2178821,0.9526774,0.44888228,0.18442377,-0.40519965,0.101466365
1747679504.7447627,0.2178821,0.9526774,0.44888228,0.18442377,-0.40519965,0.101466365
1747679504.745281,0.2178821,0.9526774,0.44888228,0.18442377,-0.40519965,0.101466365
1747679504.7458045,0.2178821,0.9526774,0.44888228,0.18442377,-0.40519965,0.101466365
1747679504.7463229,0.2178821,0.9526774,0.44888228,0.18442377,-0.40519965,0.101466365
1747679504.7468412,0.2178821,0.9526774,0.44888228,0.18442377,-0.40519965,0.101466365
1747679504.7473593,0.2178821,0.9526774,0.44888228,0.18442377,-0.40519965,0.101466365
1747679504.7478774,0.2178821,0.9526774,0.44888228,0.18442377,-0.40519965,0.101466365
1747679504.7483957,0.2178821,0.9526774,0.44888228,0.18442377,-0.40519965,0.101466365
1747679504.748914,0.2178821,0.9526774,0.44888228,0.18442377,-0.40519965,0.101466365
1747679504.7494318,0.2178821,0.9526774,0.44888228,0.18442377,-0.40519965,0.101466365
1747679504.7499528,0.2178821,0.9526774,0.44888228,0.18442377,-0.40519965,0.101466365
1747679504.7504714,0.2178821,0.9526774,0.44888228,0.18442377,-0.40519965,0.101466365
1747679504.7509918,0.2178821,0.9526774,0.44888228,0.18442377,-0.40519965,0.101466365
1747679504.751537,0.2178821,0.9526774,0.44888228,0.18442377,-0.40519965,0.101466365
1747679504.7521057,0.2178821,0.9526774,0.44888228,0.18442377,-0.40519965,0.101466365
1747679504.7526681,0.2178821,0.9526774,0.44888228,0.18442377,-0.40519965,0.101466365
1747679504.7532153,0.2178821,0.9526774,0.44888228,0.18442377,-0.40519965,0.101466365
1747679504.7537994,0.264253,0.9370578,0.41861922,0.2707101,-0.43715757,0.100401096
1747679504.754352,0.264253,0.9370578,0.41861922,0.2707101,-0.43715757,0.100401096
1747679504.7548916,0.264253,0.9370578,0.41861922,0.2707101,-0.43715757,0.100401096
1747679504.7554243,0.264253,0.9370578,0.41861922,0.2707101,-0.43715757,0.100401096
1747679504.7559443,0.264253,0.9370578,0.41861922,0.2707101,-0.43715757,0.100401096
1747679504.7564628,0.264253,0.9370578,0.41861922,0.2707101,-0.43715757,0.100401096
1747679504.756981,0.264253,0.9370578,0.41861922,0.2707101,-0.43715757,0.100401096
1747679504.7574992,0.264253,0.9370578,0.41861922,0.2707101,-0.43715757,0.100401096
1747679504.7580173,0.264253,0.9370578,0.41861922,0.2707101,-0.43715757,0.100401096
1747679504.7585356,0.264253,0.9370578,0.41861922,0.2707101,-0.43715757,0.100401096
1747679504.7590542,0.264253,0.9370578,0.41861922,0.2707101,-0.43715757,0.100401096
1747679504.7595723,0.264253,0.9370578,0.41861922,0.2707101,-0.43715757,0.100401096
1747679504.7600904,0.264253,0.9370578,0.41861922,0.2707101,-0.43715757,0.100401096
1747679504.7606084,0.264253,0.9370578,0.41861922,0.2707101,-0.43715757,0.100401096
1747679504.7611265,0.264253,0.9370578,0.41861922,0.2707101,-0.43715757,0.100401096
1747679504.7616444,0.264253,0.9370578,0.41861922,0.2707101,-0.43715757,0.100401096
1747679504.762163,0.31062385,0.92436683,0.32978237,0.2707101,-0.43715757,0.100401096
1747679504.7626908,0.31062385,0.92436683,0.32978237,0.2707101,-0.43715757,0.100401096
1747679504.763209,0.31062385,0.92436683,0.32978237,0.2707101,-0.43715757,0.100401096
1747679504.7637272,0.31062385,0.92436683,0.32978237,0.2707101,-0.43715757,0.100401096
1747679504.7642481,0.31062385,0.92436683,0.32978237,0.2707101,-0.43715757,0.100401096
1747679504.7647827,0.31062385,0.92436683,0.32978237,0.2707101,-0.43715757,0.100401096
1747679504.7653089,0.31062385,0.92436683,0.32978237,0.31971225,-0.36258912,0.060986344
1747679504.7658281,0.31062385,0.92436683,0.32978237,0.31971225,-0.36258912,0.060986344
1747679504.7663465,0.31062385,0.92436683,0.32978237,0.31971225,-0.36258912,0.060986344
1747679504.7668674,0.31062385,0.92436683,0.32978237,0.31971225,-0.36258912,0.060986344
1747679504.7674253,0.31062385,0.92436683,0.32978237,0.31971225,-0.36258912,0.060986344
1747679504.7679749,0.31062385,0.92436683,0.32978237,0.31971225,-0.36258912,0.060986344
1747679504.768508,0.31062385,0.92436683,0.32978237,0.31971225,-0.36258912,0.060986344
1747679504.769028,0.31062385,0.92436683,0.32978237,0.31971225,-0.36258912,0.060986344
1747679504.7695465,0.31062385,0.92436683,0.32978237,0.31971225,-0.36258912,0.060986344
1747679504.7700648,0.31062385,0.92436683,0.32978237,0.31971225,-0.36258912,0.060986344
1747679504.7705834,0.31062385,0.92436683,0.32978237,0.31971225,-0.36258912,0.060986344
1747679504.7711017,0.31062385,0.92436683,0.32978237,0.31971225,-0.36258912,0.060986344
1747679504.7716198,0.31062385,0.92436683,0.32978237,0.31971225,-0.36258912,0.060986344
1747679504.7721376,0.31062385,0.92436683,0.32978237,0.31971225,-0.36258912,0.060986344
1747679504.7726586,0.31062385,0.92436683,0.32978237,0.31971225,-0.36258912,0.060986344
1747679504.77318,0.31062385,0.92436683,0.32978237,0.31971225,-0.36258912,0.060986344
1747679504.7737036,0.31062385,0.92436683,0.32978237,0.31971225,-0.36258912,0.060986344
1747679504.7742302,0.31062385,0.92436683,0.32978237,0.31971225,-0.36258912,0.060986344
1747679504.7747533,0.31062385,0.92436683,0.32978237,0.31971225,-0.36258912,0.060986344
1747679504.7752783,0.31062385,0.92436683,0.32978237,0.31971225,-0.36258912,0.060986344
1747679504.7758017,0.31062385,0.92436683,0.32978237,0.31971225,-0.36258912,0.060986344
1747679504.7763233,0.31062385,0.92436683,0.32978237,0.28562382,-0.20919114,0.0045273704
1747679504.776848,0.31062385,0.92436683,0.32978237,0.28562382,-0.20919114,0.0045273704
1747679504.7773714,0.33405337,0.9160689,0.25802952,0.28562382,-0.20919114,0.0045273704
1747679504.7778926,0.33405337,0.9160689,0.25802952,0.28562382,-0.20919114,0.0045273704
1747679504.7784138,0.33405337,0.9160689,0.25802952,0.28562382,-0.20919114,0.0045273704
1747679504.7789352,0.33405337,0.9160689,0.25802952,0.28562382,-0.20919114,0.0045273704
1747679504.779456,0.33405337,0.9160689,0.25802952,0.28562382,-0.20919114,0.0045273704
1747679504.7799776,0.33405337,0.9160689,0.25802952,0.28562382,-0.20919114,0.0045273704
1747679504.7804987,0.33405337,0.9160689,0.25802952,0.28562382,-0.20919114,0.0045273704
1747679504.7810245,0.33405337,0.9160689,0.25802952,0.28562382,-0.20919114,0.0045273704
1747679504.781556,0.33405337,0.9160689,0.25802952,0.28562382,-0.20919114,0.0045273704
1747679504.782106,0.33405337,0.9160689,0.25802952,0.28562382,-0.20919114,0.0045273704
1747679504.7827306,0.29256362,0.8687217,0.18090743,0.28562382,-0.20919114,0.0045273704
1747679504.7833018,0.29256362,0.8687217,0.18090743,0.20040272,0.021971062,-0.08815057
1747679504.7838326,0.29256362,0.8687217,0.18090743,0.20040272,0.021971062,-0.08815057
1747679504.784369,0.29256362,0.8687217,0.18090743,0.20040272,0.021971062,-0.08815057
1747679504.7848954,0.29256362,0.8687217,0.18090743,0.20040272,0.021971062,-0.08815057
1747679504.7854173,0.29256362,0.8687217,0.18090743,0.20040272,0.021971062,-0.08815057
1747679504.7859387,0.29256362,0.8687217,0.18090743,0.20040272,0.021971062,-0.08815057
1747679504.7864594,0.29256362,0.8687217,0.18090743,0.20040272,0.021971062,-0.08815057
1747679504.7869804,0.29256362,0.8687217,0.18090743,0.20040272,0.021971062,-0.08815057
1747679504.7875466,0.29256362,0.8687217,0.18090743,0.20040272,0.021971062,-0.08815057
1747679504.7880442,0.29256362,0.8687217,0.18090743,0.20040272,0.021971062,-0.08815057
1747679504.7885919,0.29256362,0.8687217,0.18090743,0.20040272,0.021971062,-0.08815057
1747679504.7891123,0.29256362,0.8687217,0.18090743,0.20040272,0.021971062,-0.08815057
1747679504.789631,0.29256362,0.8687217,0.18090743,0.20040272,0.021971062,-0.08815057
1747679504.7901497,0.29256362,0.8687217,0.18090743,0.20040272,0.021971062,-0.08815057
1747679504.7906706,0.18420221,0.8531021,0.166264,0.12157321,0.09760478,-0.11265163
1747679504.7911906,0.18420221,0.8531021,0.166264,0.12157321,0.09760478,-0.11265163
1747679504.791709,0.18420221,0.8531021,0.166264,0.12157321,0.09760478,-0.11265163
1747679504.792227,0.18420221,0.8531021,0.166264,0.12157321,0.09760478,-0.11265163
1747679504.7927456,0.18420221,0.8531021,0.166264,0.12157321,0.09760478,-0.11265163
1747679504.7932637,0.18420221,0.8531021,0.166264,0.12157321,0.09760478,-0.11265163
1747679504.7937815,0.18420221,0.8531021,0.166264,0.12157321,0.09760478,-0.11265163
1747679504.7943022,0.18420221,0.8531021,0.166264,0.12157321,0.09760478,-0.11265163
1747679504.7948256,0.18420221,0.8531021,0.166264,0.12157321,0.09760478,-0.11265163
1747679504.7953453,0.18420221,0.8531021,0.166264,0.12157321,0.09760478,-0.11265163
1747679504.795864,0.18420221,0.8531021,0.166264,0.12157321,0.09760478,-0.11265163
1747679504.7963822,0.18420221,0.8531021,0.166264,0.12157321,0.09760478,-0.11265163
1747679504.7969005,0.18420221,0.8531021,0.166264,0.12157321,0.09760478,-0.11265163
1747679504.797447,0.18420221,0.8531021,0.166264,0.12157321,0.09760478,-0.11265163
1747679504.7980072,0.18420221,0.8531021,0.166264,0.12157321,0.09760478,-0.11265163
1747679504.7985556,0.18420221,0.8531021,0.166264,0.12157321,0.09760478,-0.11265163
1747679504.7990885,0.18420221,0.8531021,0.166264,0.12157321,0.09760478,-0.11265163
1747679504.7996082,0.18420221,0.8531021,0.166264,0.12157321,0.09760478,-0.11265163
1747679504.800127,0.18420221,0.8531021,0.166264,0.12157321,0.09760478,-0.11265163
1747679504.800646,0.18420221,0.8531021,0.166264,0.07576688,0.054994237,-0.047670547
1747679504.801165,0.18420221,0.8531021,0.166264,0.07576688,0.054994237,-0.047670547
1747679504.801684,0.18420221,0.8531021,0.166264,0.07576688,0.054994237,-0.047670547
1747679504.8022027,0.18420221,0.8531021,0.166264,0.07576688,0.054994237,-0.047670547
1747679504.8027291,0.07437645,0.84480417,0.18041931,0.07576688,0.054994237,-0.047670547
1747679504.8032482,0.07437645,0.84480417,0.18041931,0.07576688,0.054994237,-0.047670547
1747679504.8037696,0.07437645,0.84480417,0.18041931,0.07576688,0.054994237,-0.047670547
1747679504.8043008,0.07437645,0.84480417,0.18041931,0.07576688,0.054994237,-0.047670547
1747679504.8048275,0.07437645,0.84480417,0.18041931,0.07576688,0.054994237,-0.047670547
1747679504.805346,0.07437645,0.84480417,0.18041931,0.07576688,0.054994237,-0.047670547
1747679504.805864,0.07437645,0.84480417,0.18041931,0.07576688,0.054994237,-0.047670547
1747679504.8063824,0.07437645,0.84480417,0.18041931,0.07576688,0.054994237,-0.047670547
1747679504.8069003,0.07437645,0.84480417,0.18041931,0.07576688,0.054994237,-0.047670547
1747679504.8074183,0.07437645,0.84480417,0.18041931,0.07576688,0.054994237,-0.047670547
1747679504.8079362,0.07437645,0.84480417,0.18041931,0.07576688,0.054994237,-0.047670547
1747679504.808454,0.07437645,0.84480417,0.18041931,0.07576688,0.054994237,-0.047670547
1747679504.8089724,0.07437645,0.84480417,0.18041931,0.07576688,0.054994237,-0.047670547
1747679504.8094904,0.07437645,0.84480417,0.18041931,0.07576688,0.054994237,-0.047670547
1747679504.8100083,0.07437645,0.84480417,0.18041931,0.07576688,0.054994237,-0.047670547
1747679504.8105264,0.07437645,0.84480417,0.18041931,0.07576688,0.054994237,-0.047670547
1747679504.8110447,0.07437645,0.84480417,0.18041931,0.07576688,0.054994237,-0.047670547
1747679504.8115654,0.07437645,0.84480417,0.18041931,0.07576688,0.054994237,-0.047670547
1747679504.812086,0.022148196,0.8091718,0.21263488,0.06617951,-0.07603319,0.099335834
1747679504.812646,0.022148196,0.8091718,0.21263488,0.06617951,-0.07603319,0.099335834
1747679504.813204,0.022148196,0.8091718,0.21263488,0.06617951,-0.07603319,0.099335834
1747679504.81377,0.022148196,0.8091718,0.21263488,0.06617951,-0.07603319,0.099335834
1747679504.8143191,0.022148196,0.8091718,0.21263488,0.06617951,-0.07603319,0.099335834
1747679504.8148606,0.022148196,0.8091718,0.21263488,0.06617951,-0.07603319,0.099335834
1747679504.8153865,0.022148196,0.8091718,0.21263488,0.06617951,-0.07603319,0.099335834
1747679504.8159056,0.022148196,0.8091718,0.21263488,0.06617951,-0.07603319,0.099335834
1747679504.8164241,0.022148196,0.8091718,0.21263488,0.06617951,-0.07603319,0.099335834
1747679504.8169427,0.022148196,0.8091718,0.21263488,0.06617951,-0.07603319,0.099335834
1747679504.817461,0.022148196,0.8091718,0.21263488,0.06617951,-0.07603319,0.099335834
1747679504.8179798,0.022148196,0.8091718,0.21263488,0.06617951,-0.07603319,0.099335834
1747679504.8184981,0.022148196,0.8091718,0.21263488,0.06617951,-0.07603319,0.099335834
1747679504.8190162,0.022148196,0.8091718,0.21263488,0.06617951,-0.07603319,0.099335834
1747679504.8195343,0.022148196,0.8091718,0.21263488,0.06617951,-0.07603319,0.099335834
1747679504.820053,0.022148196,0.8091718,0.21263488,0.06617951,-0.07603319,0.099335834
1747679504.820572,0.022148196,0.8091718,0.21263488,0.06617951,-0.07603319,0.099335834
1747679504.8210907,0.022148196,0.8091718,0.21263488,0.086419515,-0.24114905,0.27190855
1747679504.8216095,0.022148196,0.8091718,0.21263488,0.086419515,-0.24114905,0.27190855
1747679504.822128,0.022148196,0.8091718,0.21263488,0.086419515,-0.24114905,0.27190855
1747679504.8226466,0.053387526,0.78769475,0.25705332,0.086419515,-0.24114905,0.27190855
1747679504.8231652,0.053387526,0.78769475,0.25705332,0.086419515,-0.24114905,0.27190855
1747679504.8236861,0.053387526,0.78769475,0.25705332,0.086419515,-0.24114905,0.27190855
1747679504.8242097,0.053387526,0.78769475,0.25705332,0.086419515,-0.24114905,0.27190855
1747679504.82473,0.053387526,0.78769475,0.25705332,0.086419515,-0.24114905,0.27190855
1747679504.8252485,0.053387526,0.78769475,0.25705332,0.086419515,-0.24114905,0.27190855
1747679504.825804,0.053387526,0.78769475,0.25705332,0.086419515,-0.24114905,0.27190855
1747679504.8263228,0.053387526,0.78769475,0.25705332,0.086419515,-0.24114905,0.27190855
1747679504.8268406,0.053387526,0.78769475,0.25705332,0.086419515,-0.24114905,0.27190855
1747679504.8273585,0.053387526,0.78769475,0.25705332,0.086419515,-0.24114905,0.27190855
1747679504.8278964,0.053387526,0.78769475,0.25705332,0.086419515,-0.24114905,0.27190855
1747679504.828427,0.053387526,0.78769475,0.25705332,0.086419515,-0.24114905,0.27190855
1747679504.8289495,0.053387526,0.78769475,0.25705332,0.086419515,-0.24114905,0.27190855
1747679504.8294988,0.053387526,0.78769475,0.25705332,0.086419515,-0.24114905,0.27190855
1747679504.8300593,0.053387526,0.78769475,0.25705332,0.086419515,-0.24114905,0.27190855
1747679504.8305857,0.053387526,0.78769475,0.25705332,0.086419515,-0.24114905,0.27190855
1747679504.8311062,0.053387526,0.78769475,0.25705332,0.086419515,-0.24114905,0.27190855
1747679504.8316267,0.15833214,0.7925759,0.3180676,0.13009532,-0.33808804,0.3901528
1747679504.8321455,0.15833214,0.7925759,0.3180676,0.13009532,-0.33808804,0.3901528
1747679504.8326638,0.15833214,0.7925759,0.3180676,0.13009532,-0.33808804,0.3901528
1747679504.8331826,0.15833214,0.7925759,0.3180676,0.13009532,-0.33808804,0.3901528
1747679504.8337038,0.15833214,0.7925759,0.3180676,0.13009532,-0.33808804,0.3901528
1747679504.834227,0.15833214,0.7925759,0.3180676,0.13009532,-0.33808804,0.3901528
1747679504.834747,0.15833214,0.7925759,0.3180676,0.13009532,-0.33808804,0.3901528
1747679504.8352659,0.15833214,0.7925759,0.3180676,0.13009532,-0.33808804,0.3901528
1747679504.8357842,0.15833214,0.7925759,0.3180676,0.13009532,-0.33808804,0.3901528
1747679504.8363025,0.15833214,0.7925759,0.3180676,0.13009532,-0.33808804,0.3901528
1747679504.836821,0.15833214,0.7925759,0.3180676,0.13009532,-0.33808804,0.3901528
1747679504.8373857,0.15833214,0.7925759,0.3180676,0.13009532,-0.33808804,0.3901528
1747679504.8379054,0.15833214,0.7925759,0.3180676,0.13009532,-0.33808804,0.3901528
1747679504.8384242,0.15833214,0.7925759,0.3180676,0.13009532,-0.33808804,0.3901528
1747679504.8389425,0.15833214,0.7925759,0.3180676,0.13009532,-0.33808804,0.3901528
1747679504.8394606,0.15833214,0.7925759,0.3180676,0.13009532,-0.33808804,0.3901528
1747679504.8399785,0.15833214,0.7925759,0.3180676,0.13009532,-0.33808804,0.3901528
1747679504.8404975,0.27011034,0.80965996,0.40153518,0.13009532,-0.33808804,0.3901528
1747679504.8410158,0.27011034,0.80965996,0.40153518,0.18122798,-0.29973856,0.4285023
1747679504.8415341,0.27011034,0.80965996,0.40153518,0.18122798,-0.29973856,0.4285023
1747679504.8420527,0.27011034,0.80965996,0.40153518,0.18122798,-0.29973856,0.4285023
1747679504.842571,0.27011034,0.80965996,0.40153518,0.18122798,-0.29973856,0.4285023
1747679504.843124,0.27011034,0.80965996,0.40153518,0.18122798,-0.29973856,0.4285023
1747679504.8436685,0.27011034,0.80965996,0.40153518,0.18122798,-0.29973856,0.4285023
1747679504.8442178,0.27011034,0.80965996,0.40153518,0.18122798,-0.29973856,0.4285023
1747679504.8447647,0.27011034,0.80965996,0.40153518,0.18122798,-0.29973856,0.4285023
1747679504.8453245,0.27011034,0.80965996,0.40153518,0.18122798,-0.29973856,0.4285023
1747679504.8458729,0.27011034,0.80965996,0.40153518,0.18122798,-0.29973856,0.4285023
1747679504.8464057,0.27011034,0.80965996,0.40153518,0.18122798,-0.29973856,0.4285023
1747679504.8469255,0.27011034,0.80965996,0.40153518,0.18122798,-0.29973856,0.4285023
1747679504.8474443,0.27011034,0.80965996,0.40153518,0.18122798,-0.29973856,0.4285023
1747679504.8479629,0.27011034,0.80965996,0.40153518,0.18122798,-0.29973856,0.4285023
1747679504.8484812,0.27011034,0.80965996,0.40153518,0.18122798,-0.29973856,0.4285023
1747679504.8489997,0.27011034,0.80965996,0.40153518,0.18122798,-0.29973856,0.4285023
1747679504.849518,0.27011034,0.80965996,0.40153518,0.18122798,-0.29973856,0.4285023
1747679504.8500364,0.27011034,0.80965996,0.40153518,0.18122798,-0.29973856,0.4285023
1747679504.8505547,0.27011034,0.80965996,0.40153518,0.18122798,-0.29973856,0.4285023
1747679504.8511045,0.27011034,0.80965996,0.40153518,0.18122798,-0.29973856,0.4285023
1747679504.851623,0.27011034,0.80965996,0.40153518,0.18122798,-0.29973856,0.4285023
1747679504.8521419,0.27011034,0.80965996,0.40153518,0.18122798,-0.29973856,0.4285023
1747679504.8526602,0.27011034,0.80965996,0.40153518,0.18122798,-0.29973856,0.4285023
1747679504.8531783,0.3316128,0.82039845,0.44156057,0.22809958,-0.20812589,0.41145808
1747679504.8537018,0.3316128,0.82039845,0.44156057,0.22809958,-0.20812589,0.41145808
1747679504.854233,0.3316128,0.82039845,0.44156057,0.22809958,-0.20812589,0.41145808
1747679504.8547597,0.3316128,0.82039845,0.44156057,0.22809958,-0.20812589,0.41145808
1747679504.8552785,0.3316128,0.82039845,0.44156057,0.22809958,-0.20812589,0.41145808
1747679504.8557973,0.3316128,0.82039845,0.44156057,0.22809958,-0.20812589,0.41145808
1747679504.8563154,0.3316128,0.82039845,0.44156057,0.22809958,-0.20812589,0.41145808
1747679504.8568337,0.3316128,0.82039845,0.44156057,0.22809958,-0.20812589,0.41145808
1747679504.857352,0.3316128,0.82039845,0.44156057,0.22809958,-0.20812589,0.41145808
1747679504.85787,0.3316128,0.82039845,0.44156057,0.22809958,-0.20812589,0.41145808
1747679504.8583922,0.3316128,0.82039845,0.44156057,0.22809958,-0.20812589,0.41145808
1747679504.8589132,0.3316128,0.82039845,0.44156057,0.22809958,-0.20812589,0.41145808
1747679504.859432,0.3316128,0.82039845,0.44156057,0.22809958,-0.20812589,0.41145808
1747679504.8599498,0.3316128,0.82039845,0.44156057,0.22809958,-0.20812589,0.41145808
1747679504.8604705,0.3316128,0.82039845,0.44156057,0.22809958,-0.20812589,0.41145808
1747679504.8610134,0.3316128,0.82039845,0.44156057,0.22809958,-0.20812589,0.41145808
1747679504.861547,0.3316128,0.82039845,0.44156057,0.22809958,-0.20812589,0.41145808
1747679504.8620665,0.3316128,0.82039845,0.44156057,0.22809958,-0.20812589,0.41145808
1747679504.862585,0.3316128,0.82039845,0.44156057,0.22809958,-0.20812589,0.41145808
1747679504.8631034,0.3316128,0.82039845,0.44156057,0.22809958,-0.20812589,0.41145808
1747679504.8636222,0.3316128,0.82039845,0.44156057,0.22809958,-0.20812589,0.41145808
1747679504.8641436,0.3316128,0.82039845,0.44156057,0.22809958,-0.20812589,0.41145808
1747679504.8646753,0.3316128,0.82039845,0.44156057,0.22809958,-0.20812589,0.41145808
1747679504.8652017,0.35064927,0.82186276,0.3951897,0.30692908,-0.021704746,0.3230412
1747679504.8657205,0.35064927,0.82186276,0.3951897,0.30692908,-0.021704746,0.3230412
1747679504.866239,0.35064927,0.82186276,0.3951897,0.30692908,-0.021704746,0.3230412
1747679504.8667574,0.35064927,0.82186276,0.3951897,0.30692908,-0.021704746,0.3230412
1747679504.8672755,0.35064927,0.82186276,0.3951897,0.30692908,-0.021704746,0.3230412
1747679504.8677936,0.35064927,0.82186276,0.3951897,0.30692908,-0.021704746,0.3230412
1747679504.868312,0.35064927,0.82186276,0.3951897,0.30692908,-0.021704746,0.3230412
1747679504.86883,0.35064927,0.82186276,0.3951897,0.30692908,-0.021704746,0.3230412
1747679504.8693478,0.35064927,0.82186276,0.3951897,0.30692908,-0.021704746,0.3230412
1747679504.869866,0.35064927,0.82186276,0.3951897,0.30692908,-0.021704746,0.3230412
1747679504.8703842,0.35064927,0.82186276,0.3951897,0.30692908,-0.021704746,0.3230412
1747679504.8709023,0.35064927,0.82186276,0.3951897,0.30692908,-0.021704746,0.3230412
1747679504.871451,0.35064927,0.82186276,0.3951897,0.30692908,-0.021704746,0.3230412
1747679504.872004,0.35064927,0.82186276,0.3951897,0.30692908,-0.021704746,0.3230412
1747679504.8725305,0.35064927,0.82186276,0.3951897,0.30692908,-0.021704746,0.3230412
1747679504.8730521,0.35064927,0.82186276,0.3951897,0.30692908,-0.021704746,0.3230412
1747679504.8736467,0.35064927,0.82186276,0.3951897,0.30692908,-0.021704746,0.3230412
1747679504.8742085,0.35064927,0.82186276,0.3951897,0.30692908,-0.021704746,0.3230412
1747679504.8747404,0.2725509,0.839923,0.32636556,0.30692908,-0.021704746,0.3230412
1747679504.875278,0.2725509,0.839923,0.32636556,0.33675647,0.078430034,0.2761696
1747679504.8758116,0.2725509,0.839923,0.32636556,0.33675647,0.078430034,0.2761696
1747679504.8763373,0.2725509,0.839923,0.32636556,0.33675647,0.078430034,0.2761696
1747679504.8769133,0.2725509,0.839923,0.32636556,0.33675647,0.078430034,0.2761696
1747679504.8774636,0.2725509,0.839923,0.32636556,0.33675647,0.078430034,0.2761696
1747679504.8779988,0.2725509,0.839923,0.32636556,0.33675647,0.078430034,0.2761696
1747679504.8785207,0.2725509,0.839923,0.32636556,0.33675647,0.078430034,0.2761696
1747679504.8790421,0.2725509,0.839923,0.32636556,0.33675647,0.078430034,0.2761696
1747679504.879563,0.2725509,0.839923,0.32636556,0.33675647,0.078430034,0.2761696
1747679504.880084,0.2725509,0.839923,0.32636556,0.33675647,0.078430034,0.2761696
1747679504.8806381,0.2725509,0.839923,0.32636556,0.33675647,0.078430034,0.2761696
1747679504.881159,0.2725509,0.839923,0.32636556,0.33675647,0.078430034,0.2761696
1747679504.8816798,0.2725509,0.839923,0.32636556,0.33675647,0.078430034,0.2761696
1747679504.8822005,0.2725509,0.839923,0.32636556,0.33675647,0.078430034,0.2761696
1747679504.882722,0.2725509,0.839923,0.32636556,0.33675647,0.078430034,0.2761696
1747679504.8832426,0.2725509,0.839923,0.32636556,0.33675647,0.078430034,0.2761696
1747679504.8837707,0.2725509,0.839923,0.32636556,0.33675647,0.078430034,0.2761696
1747679504.884306,0.18957147,0.84870905,0.30391228,0.33356068,0.13062796,0.31025803
1747679504.8848329,0.18957147,0.84870905,0.30391228,0.33356068,0.13062796,0.31025803
1747679504.8853543,0.18957147,0.84870905,0.30391228,0.33356068,0.13062796,0.31025803
1747679504.8858755,0.18957147,0.84870905,0.30391228,0.33356068,0.13062796,0.31025803
1747679504.8863962,0.18957147,0.84870905,0.30391228,0.33356068,0.13062796,0.31025803
1747679504.886917,0.18957147,0.84870905,0.30391228,0.33356068,0.13062796,0.31025803
1747679504.8874404,0.18957147,0.84870905,0.30391228,0.33356068,0.13062796,0.31025803
1747679504.887961,0.18957147,0.84870905,0.30391228,0.33356068,0.13062796,0.31025803
1747679504.8885298,0.18957147,0.84870905,0.30391228,0.33356068,0.13062796,0.31025803
1747679504.889062,0.18957147,0.84870905,0.30391228,0.33356068,0.13062796,0.31025803
1747679504.8895853,0.18957147,0.84870905,0.30391228,0.33356068,0.13062796,0.31025803
1747679504.8901043,0.17590426,0.8243033,0.30342418,0.3420828,0.14021532,0.40932757
1747679504.8906236,0.17590426,0.8243033,0.30342418,0.3420828,0.14021532,0.40932757
1747679504.8911445,0.17590426,0.8243033,0.30342418,0.3420828,0.14021532,0.40932757
1747679504.8916788,0.17590426,0.8243033,0.30342418,0.3420828,0.14021532,0.40932757
1747679504.8922365,0.17590426,0.8243033,0.30342418,0.3420828,0.14021532,0.40932757
1747679504.8927836,0.17590426,0.8243033,0.30342418,0.3420828,0.14021532,0.40932757
1747679504.8933172,0.17590426,0.8243033,0.30342418,0.3420828,0.14021532,0.40932757
1747679504.8938403,0.17590426,0.8243033,0.30342418,0.3420828,0.14021532,0.40932757
1747679504.8943717,0.17590426,0.8243033,0.30342418,0.3420828,0.14021532,0.40932757
1747679504.894898,0.17590426,0.8243033,0.30342418,0.3420828,0.14021532,0.40932757
1747679504.895417,0.17590426,0.8243033,0.30342418,0.3420828,0.14021532,0.40932757
1747679504.8959355,0.17590426,0.8243033,0.30342418,0.3420828,0.14021532,0.40932757
1747679504.8964536,0.17590426,0.8243033,0.30342418,0.3420828,0.14021532,0.40932757
1747679504.896972,0.17590426,0.8243033,0.30342418,0.3420828,0.14021532,0.40932757
1747679504.8974905,0.17590426,0.8243033,0.30342418,0.3420828,0.14021532,0.40932757
1747679504.8980086,0.17590426,0.8243033,0.30342418,0.3420828,0.14021532,0.40932757
1747679504.898527,0.17590426,0.8243033,0.30342418,0.3420828,0.14021532,0.40932757
1747679504.8990452,0.17590426,0.8243033,0.30342418,0.3420828,0.14021532,0.40932757
1747679504.8995636,0.20860794,0.7998977,0.3312467,0.3420828,0.14021532,0.40932757
1747679504.900082,0.20860794,0.7998977,0.3312467,0.3687144,0.078430034,0.48283073
1747679504.9006028,0.20860794,0.7998977,0.3312467,0.3687144,0.078430034,0.48283073
1747679504.9011235,0.20860794,0.7998977,0.3312467,0.3687144,0.078430034,0.48283073
1747679504.901642,0.20860794,0.7998977,0.3312467,0.3687144,0.078430034,0.48283073
1747679504.90216,0.20860794,0.7998977,0.3312467,0.3687144,0.078430034,0.48283073
1747679504.902678,0.20860794,0.7998977,0.3312467,0.3687144,0.078430034,0.48283073
1747679504.903196,0.20860794,0.7998977,0.3312467,0.3687144,0.078430034,0.48283073
1747679504.9037662,0.20860794,0.7998977,0.3312467,0.3687144,0.078430034,0.48283073
1747679504.9043596,0.20860794,0.7998977,0.3312467,0.3687144,0.078430034,0.48283073
1747679504.9048991,0.20860794,0.7998977,0.3312467,0.3687144,0.078430034,0.48283073
1747679504.9054236,0.20860794,0.7998977,0.3312467,0.3687144,0.078430034,0.48283073
1747679504.9059422,0.20860794,0.7998977,0.3312467,0.3687144,0.078430034,0.48283073
1747679504.906463,0.20860794,0.7998977,0.3312467,0.3687144,0.078430034,0.48283073
1747679504.9070091,0.20860794,0.7998977,0.3312467,0.3687144,0.078430034,0.48283073
1747679504.9075634,0.20860794,0.7998977,0.3312467,0.3687144,0.078430034,0.48283073
1747679504.9081018,0.20860794,0.7998977,0.3312467,0.3687144,0.078430034,0.48283073
1747679504.908622,0.20860794,0.7998977,0.3312467,0.3687144,0.078430034,0.48283073
1747679504.9091406,0.20860794,0.7998977,0.3312467,0.3687144,0.078430034,0.48283073
1747679504.9096587,0.25546694,0.7657296,0.36443847,0.3687144,0.078430034,0.48283073
1747679504.910177,0.25546694,0.7657296,0.36443847,0.3687144,0.078430034,0.48283073
1747679504.9106953,0.25546694,0.7657296,0.36443847,0.3687144,0.078430034,0.48283073
1747679504.911216,0.25546694,0.7657296,0.36443847,0.3687144,0.078430034,0.48283073
1747679504.9117365,0.25546694,0.7657296,0.36443847,0.3687144,0.078430034,0.48283073
1747679504.9122555,0.25546694,0.7657296,0.36443847,0.3687144,0.078430034,0.48283073
1747679504.9127738,0.25546694,0.7657296,0.36443847,0.3687144,0.078430034,0.48283073
1747679504.9132917,0.25546694,0.7657296,0.36443847,0.3687144,0.078430034,0.48283073
1747679504.9138126,0.25546694,0.7657296,0.36443847,0.3687144,0.078430034,0.48283073
1747679504.914384,0.25546694,0.7657296,0.36443847,0.3687144,0.078430034,0.48283073
1747679504.9149039,0.25546694,0.7657296,0.36443847,0.3687144,0.078430034,0.48283073
1747679504.915422,0.25546694,0.7657296,0.36443847,0.3687144,0.078430034,0.48283073
1747679504.9159403,0.25546694,0.7657296,0.36443847,0.3687144,0.078430034,0.48283073
1747679504.9164586,0.25546694,0.7657296,0.36443847,0.3687144,0.078430034,0.48283073
1747679504.916977,0.25546694,0.7657296,0.36443847,0.3687144,0.078430034,0.48283073
1747679504.917495,0.25546694,0.7657296,0.36443847,0.3687144,0.078430034,0.48283073
1747679504.918013,0.25546694,0.7657296,0.36443847,0.3687144,0.078430034,0.48283073
1747679504.9185314,0.25546694,0.7657296,0.36443847,0.3687144,0.078430034,0.48283073
1747679504.919083,0.25546694,0.7657296,0.36443847,0.3687144,0.078430034,0.48283073
1747679504.9196463,0.25546694,0.7657296,0.36443847,0.3687144,0.078430034,0.48283073
1747679504.9202023,0.25546694,0.7657296,0.36443847,0.3687144,0.078430034,0.48283073
1747679504.920742,0.25546694,0.7657296,0.36443847,0.3687144,0.078430034,0.48283073
1747679504.9212687,0.25546694,0.7657296,0.36443847,0.3687144,0.078430034,0.48283073
1747679504.921788,0.29744476,0.76280093,0.38542742,0.3687144,0.078430034,0.48283073
1747679504.9223137,0.29744476,0.76280093,0.38542742,0.3687144,0.078430034,0.48283073
1747679504.9228358,0.29744476,0.76280093,0.38542742,0.3687144,0.078430034,0.48283073
1747679504.9233904,0.29744476,0.76280093,0.38542742,0.3687144,0.078430034,0.48283073
1747679504.9239454,0.29744476,0.76280093,0.38542742,0.47204494,-0.10692584,0.56698656
1747679504.9244952,0.29744476,0.76280093,0.38542742,0.47204494,-0.10692584,0.56698656
1747679504.9250207,0.29744476,0.76280093,0.38542742,0.47204494,-0.10692584,0.56698656
1747679504.9255674,0.29744476,0.76280093,0.38542742,0.47204494,-0.10692584,0.56698656
1747679504.9261005,0.29744476,0.76280093,0.38542742,0.47204494,-0.10692584,0.56698656
1747679504.926644,0.29744476,0.76280093,0.38542742,0.47204494,-0.10692584,0.56698656
1747679504.9272118,0.29744476,0.76280093,0.38542742,0.47204494,-0.10692584,0.56698656
1747679504.9277515,0.29744476,0.76280093,0.38542742,0.47204494,-0.10692584,0.56698656
1747679504.9282892,0.29744476,0.76280093,0.38542742,0.47204494,-0.10692584,0.56698656
1747679504.928828,0.29744476,0.76280093,0.38542742,0.47204494,-0.10692584,0.56698656
1747679504.929365,0.29744476,0.76280093,0.38542742,0.47204494,-0.10692584,0.56698656
1747679504.929905,0.29744476,0.76280093,0.38542742,0.47204494,-0.10692584,0.56698656
1747679504.9304576,0.29744476,0.76280093,0.38542742,0.47204494,-0.10692584,0.56698656
1747679504.9310117,0.35650662,0.79648083,0.3659028,0.47204494,-0.10692584,0.56698656
1747679504.931539,0.35650662,0.79648083,0.3659028,0.51039445,-0.071772136,0.56166023
1747679504.9320586,0.35650662,0.79648083,0.3659028,0.51039445,-0.071772136,0.56166023
1747679504.9325774,0.35650662,0.79648083,0.3659028,0.51039445,-0.071772136,0.56166023
1747679504.9330957,0.35650662,0.79648083,0.3659028,0.51039445,-0.071772136,0.56166023
1747679504.9336138,0.35650662,0.79648083,0.3659028,0.51039445,-0.071772136,0.56166023
1747679504.9341764,0.35650662,0.79648083,0.3659028,0.51039445,-0.071772136,0.56166023
1747679504.9347174,0.35650662,0.79648083,0.3659028,0.51039445,-0.071772136,0.56166023
1747679504.935243,0.35650662,0.79648083,0.3659028,0.51039445,-0.071772136,0.56166023
1747679504.9357655,0.35650662,0.79648083,0.3659028,0.51039445,-0.071772136,0.56166023
1747679504.936297,0.35650662,0.79648083,0.3659028,0.51039445,-0.071772136,0.56166023
1747679504.9368298,0.35650662,0.79648083,0.3659028,0.51039445,-0.071772136,0.56166023
1747679504.9373493,0.35650662,0.79648083,0.3659028,0.51039445,-0.071772136,0.56166023
1747679504.9378684,0.35650662,0.79648083,0.3659028,0.51039445,-0.071772136,0.56166023
1747679504.9383867,0.35650662,0.79648083,0.3659028,0.51039445,-0.071772136,0.56166023
1747679504.938908,0.35650662,0.79648083,0.3659028,0.51039445,-0.071772136,0.56166023
1747679504.9394596,0.35650662,0.79648083,0.3659028,0.51039445,-0.071772136,0.56166023
1747679504.9400115,0.40385374,0.8052669,0.30342418,0.51039445,-0.071772136,0.56166023
1747679504.9405446,0.40385374,0.8052669,0.30342418,0.51039445,-0.071772136,0.56166023
1747679504.941067,0.40385374,0.8052669,0.30342418,0.52211237,-0.0035952649,0.5073318
1747679504.9415872,0.40385374,0.8052669,0.30342418,0.52211237,-0.0035952649,0.5073318
1747679504.9421108,0.40385374,0.8052669,0.30342418,0.52211237,-0.0035952649,0.5073318
1747679504.942653,0.40385374,0.8052669,0.30342418,0.52211237,-0.0035952649,0.5073318
1747679504.943172,0.40385374,0.8052669,0.30342418,0.52211237,-0.0035952649,0.5073318
1747679504.9436932,0.40385374,0.8052669,0.30342418,0.52211237,-0.0035952649,0.5073318
1747679504.9442244,0.40385374,0.8052669,0.30342418,0.52211237,-0.0035952649,0.5073318
1747679504.9447498,0.40385374,0.8052669,0.30342418,0.52211237,-0.0035952649,0.5073318
1747679504.945269,0.40385374,0.8052669,0.30342418,0.52211237,-0.0035952649,0.5073318
1747679504.9457874,0.40385374,0.8052669,0.30342418,0.52211237,-0.0035952649,0.5073318
1747679504.9463058,0.40385374,0.8052669,0.30342418,0.52211237,-0.0035952649,0.5073318
1747679504.946824,0.40385374,0.8052669,0.30342418,0.52211237,-0.0035952649,0.5073318
1747679504.9473422,0.40385374,0.8052669,0.30342418,0.52211237,-0.0035952649,0.5073318
1747679504.9478605,0.40385374,0.8052669,0.30342418,0.52211237,-0.0035952649,0.5073318
1747679504.9483786,0.40385374,0.8052669,0.30342418,0.52211237,-0.0035952649,0.5073318
1747679504.948897,0.40385374,0.8052669,0.30342418,0.52211237,-0.0035952649,0.5073318
1747679504.9494648,0.40385374,0.8052669,0.30342418,0.52211237,-0.0035952649,0.5073318
1747679504.9500113,0.40385374,0.8052669,0.30342418,0.52211237,-0.0035952649,0.5073318
1747679504.9505355,0.40385374,0.8052669,0.30342418,0.52211237,-0.0035952649,0.5073318
1747679504.951054,0.40385374,0.8052669,0.30342418,0.52211237,-0.0035952649,0.5073318
1747679504.9515724,0.40385374,0.8052669,0.30342418,0.52211237,-0.0035952649,0.5073318
1747679504.9520907,0.40385374,0.8052669,0.30342418,0.52211237,-0.0035952649,0.5073318
1747679504.9526458,0.40385374,0.8052669,0.30342418,0.52211237,-0.0035952649,0.5073318
1747679504.9531646,0.41459224,0.81258863,0.24777912,0.5114597,0.019840535,0.45619917
1747679504.953686,0.41459224,0.81258863,0.24777912,0.5114597,0.019840535,0.45619917
1747679504.9542344,0.41459224,0.81258863,0.24777912,0.5114597,0.019840535,0.45619917
1747679504.9547758,0.41459224,0.81258863,0.24777912,0.5114597,0.019840535,0.45619917
1747679504.955301,0.41459224,0.81258863,0.24777912,0.5114597,0.019840535,0.45619917
1747679504.9558198,0.41459224,0.81258863,0.24777912,0.5114597,0.019840535,0.45619917
1747679504.9563382,0.41459224,0.81258863,0.24777912,0.5114597,0.019840535,0.45619917
1747679504.9568572,0.41459224,0.81258863,0.24777912,0.5114597,0.019840535,0.45619917
1747679504.9573753,0.41459224,0.81258863,0.24777912,0.5114597,0.019840535,0.45619917
1747679504.9578938,0.41459224,0.81258863,0.24777912,0.5114597,0.019840535,0.45619917
1747679504.958412,0.41459224,0.81258863,0.24777912,0.5114597,0.019840535,0.45619917
1747679504.9589303,0.41459224,0.81258863,0.24777912,0.5114597,0.019840535,0.45619917
1747679504.9594483,0.41459224,0.81258863,0.24777912,0.5114597,0.019840535,0.45619917
1747679504.9599664,0.41459224,0.81258863,0.24777912,0.5114597,0.019840535,0.45619917
1747679504.9604852,0.41459224,0.81258863,0.24777912,0.5114597,0.019840535,0.45619917
1747679504.961004,0.41459224,0.81258863,0.24777912,0.5114597,0.019840535,0.45619917
1747679504.961522,0.41459224,0.81258863,0.24777912,0.5114597,0.019840535,0.45619917
1747679504.9620407,0.41459224,0.81258863,0.24777912,0.5114597,0.019840535,0.45619917
1747679504.962559,0.41459224,0.81258863,0.24777912,0.4443481,0.054994237,0.36778226
1747679504.963077,0.41459224,0.81258863,0.24777912,0.4443481,0.054994237,0.36778226
1747679504.963598,0.41459224,0.81258863,0.24777912,0.4443481,0.054994237,0.36778226
1747679504.9641218,0.41459224,0.81258863,0.24777912,0.4443481,0.054994237,0.36778226
1747679504.9646525,0.41459224,0.81258863,0.24777912,0.4443481,0.054994237,0.36778226
1747679504.9652042,0.38774595,0.82820827,0.14137016,0.4443481,0.054994237,0.36778226
1747679504.9657683,0.38774595,0.82820827,0.14137016,0.4443481,0.054994237,0.36778226
1747679504.9663744,0.38774595,0.82820827,0.14137016,0.4443481,0.054994237,0.36778226
1747679504.966925,0.38774595,0.82820827,0.14137016,0.4443481,0.054994237,0.36778226
1747679504.9674494,0.38774595,0.82820827,0.14137016,0.4443481,0.054994237,0.36778226
1747679504.9679682,0.38774595,0.82820827,0.14137016,0.4443481,0.054994237,0.36778226
1747679504.9684865,0.38774595,0.82820827,0.14137016,0.4443481,0.054994237,0.36778226
1747679504.9690049,0.38774595,0.82820827,0.14137016,0.4443481,0.054994237,0.36778226
1747679504.9695263,0.38774595,0.82820827,0.14137016,0.4443481,0.054994237,0.36778226
1747679504.9700634,0.38774595,0.82820827,0.14137016,0.4443481,0.054994237,0.36778226
1747679504.970623,0.38774595,0.82820827,0.14137016,0.4443481,0.054994237,0.36778226
1747679504.9711697,0.38774595,0.82820827,0.14137016,0.4443481,0.054994237,0.36778226
1747679504.9717028,0.38774595,0.82820827,0.14137016,0.4443481,0.054994237,0.36778226
1747679504.9722254,0.38774595,0.82820827,0.14137016,0.4443481,0.054994237,0.36778226
1747679504.9727511,0.38774595,0.82820827,0.14137016,0.4443481,0.054994237,0.36778226
1747679504.9732788,0.30720708,0.8350419,0.08963002,0.4443481,0.054994237,0.36778226
1747679504.9738057,0.30720708,0.8350419,0.08963002,0.29627645,0.13062796,0.2964096
1747679504.9743419,0.30720708,0.8350419,0.08963002,0.29627645,0.13062796,0.2964096
1747679504.974869,0.30720708,0.8350419,0.08963002,0.29627645,0.13062796,0.2964096
1747679504.9753904,0.30720708,0.8350419,0.08963002,0.29627645,0.13062796,0.2964096
1747679504.9759116,0.30720708,0.8350419,0.08963002,0.29627645,0.13062796,0.2964096
1747679504.9764328,0.30720708,0.8350419,0.08963002,0.29627645,0.13062796,0.2964096
1747679504.9769533,0.30720708,0.8350419,0.08963002,0.29627645,0.13062796,0.2964096
1747679504.9774742,0.30720708,0.8350419,0.08963002,0.29627645,0.13062796,0.2964096
1747679504.977995,0.30720708,0.8350419,0.08963002,0.29627645,0.13062796,0.2964096
1747679504.9785156,0.30720708,0.8350419,0.08963002,0.29627645,0.13062796,0.2964096
1747679504.9790363,0.30720708,0.8350419,0.08963002,0.29627645,0.13062796,0.2964096
1747679504.9795704,0.30720708,0.8350419,0.08963002,0.29627645,0.13062796,0.2964096
1747679504.9801059,0.30720708,0.8350419,0.08963002,0.29627645,0.13062796,0.2964096
1747679504.9806433,0.30720708,0.8350419,0.08963002,0.29627645,0.13062796,0.2964096
1747679504.9811924,0.30720708,0.8350419,0.08963002,0.29627645,0.13062796,0.2964096
1747679504.9817338,0.30720708,0.8350419,0.08963002,0.29627645,0.13062796,0.2964096
1747679504.9822853,0.30720708,0.8350419,0.08963002,0.29627645,0.13062796,0.2964096
1747679504.982838,0.30720708,0.8350419,0.08963002,0.29627645,0.13062796,0.2964096
1747679504.983386,0.30720708,0.8350419,0.08963002,0.29627645,0.13062796,0.2964096
1747679504.983938,0.30720708,0.8350419,0.08963002,0.29627645,0.13062796,0.2964096
1747679504.984495,0.30720708,0.8350419,0.08963002,0.29627645,0.13062796,0.2964096
1747679504.985047,0.25741938,0.8086837,0.1223337,0.18548903,0.20732693,0.30386645
1747679504.9856076,0.25741938,0.8086837,0.1223337,0.18548903,0.20732693,0.30386645
1747679504.986166,0.25741938,0.8086837,0.1223337,0.18548903,0.20732693,0.30386645
1747679504.98672,0.25741938,0.8086837,0.1223337,0.18548903,0.20732693,0.30386645
1747679504.9872618,0.25741938,0.8086837,0.1223337,0.18548903,0.20732693,0.30386645
1747679504.9878209,0.25741938,0.8086837,0.1223337,0.18548903,0.20732693,0.30386645
1747679504.9883676,0.25741938,0.8086837,0.1223337,0.18548903,0.20732693,0.30386645
1747679504.9889069,0.25741938,0.8086837,0.1223337,0.18548903,0.20732693,0.30386645
1747679504.9894903,0.25741938,0.8086837,0.1223337,0.18548903,0.20732693,0.30386645
1747679504.9900498,0.20958416,0.76280093,0.1799312,0.11092058,0.24887222,0.37950018
1747679504.9906063,0.20958416,0.76280093,0.1799312,0.11092058,0.24887222,0.37950018
1747679504.9911704,0.20958416,0.76280093,0.1799312,0.11092058,0.24887222,0.37950018
1747679504.9917195,0.20958416,0.76280093,0.1799312,0.11092058,0.24887222,0.37950018
1747679504.9922476,0.20958416,0.76280093,0.1799312,0.11092058,0.24887222,0.37950018
1747679504.992773,0.20958416,0.76280093,0.1799312,0.11092058,0.24887222,0.37950018
1747679504.9932966,0.20958416,0.76280093,0.1799312,0.11092058,0.24887222,0.37950018
1747679504.993845,0.20958416,0.76280093,0.1799312,0.11092058,0.24887222,0.37950018
1747679504.994404,0.20958416,0.76280093,0.1799312,0.11092058,0.24887222,0.37950018
1747679504.9949827,0.20958416,0.76280093,0.1799312,0.11092058,0.24887222,0.37950018
1747679504.9956813,0.20958416,0.76280093,0.1799312,0.11092058,0.24887222,0.37950018
1747679504.9963014,0.20958416,0.76280093,0.1799312,0.11092058,0.24887222,0.37950018
1747679504.9968529,0.20958416,0.76280093,0.1799312,0.11092058,0.24887222,0.37950018
1747679504.9974506,0.20958416,0.76280093,0.1799312,0.11092058,0.24887222,0.37950018
1747679504.9980166,0.20958416,0.76280093,0.1799312,0.11092058,0.24887222,0.37950018
1747679504.998578,0.20958416,0.76280093,0.1799312,0.11092058,0.24887222,0.37950018
1747679504.9992285,0.20958416,0.76280093,0.1799312,0.10346373,0.1966743,0.463656
1747679504.9998398,0.20958416,0.76280093,0.1799312,0.10346373,0.1966743,0.463656
1747679505.000437,0.20958416,0.76280093,0.1799312,0.10346373,0.1966743,0.463656
1747679505.0010006,0.19201204,0.7427882,0.23655249,0.10346373,0.1966743,0.463656
1747679505.0016918,0.19201204,0.7427882,0.23655249,0.10346373,0.1966743,0.463656
1747679505.0022678,0.19201204,0.7427882,0.23655249,0.10346373,0.1966743,0.463656
1747679505.0028155,0.19201204,0.7427882,0.23655249,0.10346373,0.1966743,0.463656
1747679505.0033443,0.19201204,0.7427882,0.23655249,0.10346373,0.1966743,0.463656
1747679505.0038903,0.19201204,0.7427882,0.23655249,0.10346373,0.1966743,0.463656
1747679505.004481,0.19201204,0.7427882,0.23655249,0.10346373,0.1966743,0.463656
1747679505.0050514,0.19201204,0.7427882,0.23655249,0.10346373,0.1966743,0.463656
1747679505.0056164,0.19201204,0.7427882,0.23655249,0.10346373,0.1966743,0.463656
1747679505.0061808,0.19201204,0.7427882,0.23655249,0.10346373,0.1966743,0.463656
1747679505.0067444,0.19201204,0.7427882,0.23655249,0.10346373,0.1966743,0.463656
1747679505.007312,0.19201204,0.7427882,0.23655249,0.10346373,0.1966743,0.463656
1747679505.0078745,0.19201204,0.7427882,0.23655249,0.10346373,0.1966743,0.463656
1747679505.0084386,0.19201204,0.7427882,0.23655249,0.10346373,0.1966743,0.463656
1747679505.008997,0.19201204,0.7427882,0.23655249,0.1514006,0.09547425,0.6351634
1747679505.0095406,0.19201204,0.7427882,0.23655249,0.1514006,0.09547425,0.6351634
1747679505.0100946,0.19201204,0.7427882,0.23655249,0.1514006,0.09547425,0.6351634
1747679505.0106385,0.19201204,0.7427882,0.23655249,0.1514006,0.09547425,0.6351634
1747679505.0111701,0.19786942,0.73741895,0.33759218,0.1514006,0.09547425,0.6351634
1747679505.011698,0.19786942,0.73741895,0.33759218,0.1514006,0.09547425,0.6351634
1747679505.012225,0.19786942,0.73741895,0.33759218,0.1514006,0.09547425,0.6351634
1747679505.0127518,0.19786942,0.73741895,0.33759218,0.1514006,0.09547425,0.6351634
1747679505.0132792,0.19786942,0.73741895,0.33759218,0.1514006,0.09547425,0.6351634
1747679505.0138056,0.19786942,0.73741895,0.33759218,0.1514006,0.09547425,0.6351634
1747679505.0143363,0.19786942,0.73741895,0.33759218,0.1514006,0.09547425,0.6351634
1747679505.0148692,0.19786942,0.73741895,0.33759218,0.1514006,0.09547425,0.6351634
1747679505.015398,0.19786942,0.73741895,0.33759218,0.1514006,0.09547425,0.6351634
1747679505.0159347,0.19786942,0.73741895,0.33759218,0.1514006,0.09547425,0.6351634
1747679505.0164938,0.19786942,0.73741895,0.33759218,0.1514006,0.09547425,0.6351634
1747679505.0170434,0.19786942,0.73741895,0.33759218,0.1514006,0.09547425,0.6351634
1747679505.0175805,0.19786942,0.73741895,0.33759218,0.1514006,0.09547425,0.6351634
1747679505.0181081,0.19786942,0.73741895,0.33759218,0.1514006,0.09547425,0.6351634
1747679505.0186348,0.19786942,0.73741895,0.33759218,0.1514006,0.09547425,0.6351634
1747679505.0191765,0.19786942,0.73741895,0.33759218,0.1514006,0.09547425,0.6351634
1747679505.0197399,0.24619274,0.76328903,0.43619132,0.1514006,0.09547425,0.6351634
1747679505.0202878,0.24619274,0.76328903,0.43619132,0.30586383,-0.04087949,0.78536564
1747679505.0208156,0.24619274,0.76328903,0.43619132,0.30586383,-0.04087949,0.78536564
1747679505.021342,0.24619274,0.76328903,0.43619132,0.30586383,-0.04087949,0.78536564
1747679505.0218892,0.24619274,0.76328903,0.43619132,0.30586383,-0.04087949,0.78536564
1747679505.0224762,0.24619274,0.76328903,0.43619132,0.30586383,-0.04087949,0.78536564
1747679505.0230405,0.24619274,0.76328903,0.43619132,0.30586383,-0.04087949,0.78536564
1747679505.0236099,0.24619274,0.76328903,0.43619132,0.30586383,-0.04087949,0.78536564
1747679505.0241568,0.24619274,0.76328903,0.43619132,0.30586383,-0.04087949,0.78536564
1747679505.0246856,0.24619274,0.76328903,0.43619132,0.30586383,-0.04087949,0.78536564
1747679505.0252824,0.24619274,0.76328903,0.43619132,0.30586383,-0.04087949,0.78536564
1747679505.0258484,0.24619274,0.76328903,0.43619132,0.30586383,-0.04087949,0.78536564
1747679505.0264173,0.24619274,0.76328903,0.43619132,0.30586383,-0.04087949,0.78536564
1747679505.0269835,0.24619274,0.76328903,0.43619132,0.30586383,-0.04087949,0.78536564
1747679505.0275207,0.24619274,0.76328903,0.43619132,0.30586383,-0.04087949,0.78536564
1747679505.0281098,0.24619274,0.76328903,0.43619132,0.30586383,-0.04087949,0.78536564
1747679505.0286622,0.24619274,0.76328903,0.43619132,0.30586383,-0.04087949,0.78536564
1747679505.0292063,0.24619274,0.76328903,0.43619132,0.30586383,-0.04087949,0.78536564
1747679505.0297256,0.30915952,0.8330894,0.520147,0.30586383,-0.04087949,0.78536564
1747679505.0302532,0.30915952,0.8330894,0.520147,0.30586383,-0.04087949,0.78536564
1747679505.0307884,0.30915952,0.8330894,0.520147,0.51678604,-0.16551533,0.8908267
1747679505.0313268,0.30915952,0.8330894,0.520147,0.51678604,-0.16551533,0.8908267
1747679505.0318756,0.30915952,0.8330894,0.520147,0.51678604,-0.16551533,0.8908267
1747679505.0324125,0.30915952,0.8330894,0.520147,0.51678604,-0.16551533,0.8908267
1747679505.032984,0.30915952,0.8330894,0.520147,0.51678604,-0.16551533,0.8908267
1747679505.0335135,0.30915952,0.8330894,0.520147,0.51678604,-0.16551533,0.8908267
1747679505.0340633,0.30915952,0.8330894,0.520147,0.51678604,-0.16551533,0.8908267
1747679505.0345922,0.30915952,0.8330894,0.520147,0.51678604,-0.16551533,0.8908267
1747679505.035135,0.30915952,0.8330894,0.520147,0.51678604,-0.16551533,0.8908267
1747679505.0356486,0.30915952,0.8330894,0.520147,0.51678604,-0.16551533,0.8908267
1747679505.0361774,0.30915952,0.8330894,0.520147,0.51678604,-0.16551533,0.8908267
1747679505.0367095,0.30915952,0.8330894,0.520147,0.51678604,-0.16551533,0.8908267
1747679505.0372667,0.30915952,0.8330894,0.520147,0.51678604,-0.16551533,0.8908267
1747679505.0377653,0.30915952,0.8330894,0.520147,0.51678604,-0.16551533,0.8908267
1747679505.0382948,0.30915952,0.8330894,0.520147,0.51678604,-0.16551533,0.8908267
1747679505.0396404,0.30915952,0.8330894,0.520147,0.51678604,-0.16551533,0.8908267
1747679505.040193,0.30915952,0.8330894,0.520147,0.78842825,-0.29334697,0.9291762
1747679505.0407689,0.3926271,0.91509265,0.5367429,0.78842825,-0.29334697,0.9291762
1747679505.0413144,0.3926271,0.91509265,0.5367429,0.78842825,-0.29334697,0.9291762
1747679505.041888,0.3926271,0.91509265,0.5367429,0.78842825,-0.29334697,0.9291762
1747679505.042422,0.3926271,0.91509265,0.5367429,0.78842825,-0.29334697,0.9291762
1747679505.0429482,0.3926271,0.91509265,0.5367429,0.78842825,-0.29334697,0.9291762
1747679505.0434778,0.3926271,0.91509265,0.5367429,0.78842825,-0.29334697,0.9291762
1747679505.044008,0.3926271,0.91509265,0.5367429,0.78842825,-0.29334697,0.9291762
1747679505.0445392,0.3926271,0.91509265,0.5367429,0.78842825,-0.29334697,0.9291762
1747679505.0450718,0.3926271,0.91509265,0.5367429,0.78842825,-0.29334697,0.9291762
1747679505.0456076,0.3926271,0.91509265,0.5367429,0.78842825,-0.29334697,0.9291762
1747679505.046137,0.3926271,0.91509265,0.5367429,0.78842825,-0.29334697,0.9291762
1747679505.0466673,0.3926271,0.91509265,0.5367429,0.78842825,-0.29334697,0.9291762
1747679505.0471995,0.3926271,0.91509265,0.5367429,0.78842825,-0.29334697,0.9291762
1747679505.0477436,0.3926271,0.91509265,0.5367429,0.78842825,-0.29334697,0.9291762
1747679505.0482996,0.3926271,0.91509265,0.5367429,0.78842825,-0.29334697,0.9291762
1747679505.0488703,0.3926271,0.91509265,0.5367429,0.78842825,-0.29334697,0.9291762
1747679505.0494406,0.3926271,0.91509265,0.5367429,0.78842825,-0.29334697,0.9291762
1747679505.0499663,0.3926271,0.91509265,0.5367429,0.78842825,-0.29334697,0.9291762
1747679505.0504968,0.3926271,0.91509265,0.5367429,0.78842825,-0.29334697,0.9291762
1747679505.0510266,0.3926271,0.91509265,0.5367429,0.78842825,-0.29334697,0.9291762
1747679505.0515535,0.3926271,0.91509265,0.5367429,0.78842825,-0.29334697,0.9291762
1747679505.0520887,0.4926906,0.9585348,0.42203602,0.92584723,-0.3775028,0.92811096
1747679505.0526233,0.4926906,0.9585348,0.42203602,0.92584723,-0.3775028,0.92811096
1747679505.0531514,0.4926906,0.9585348,0.42203602,0.92584723,-0.3775028,0.92811096
1747679505.0536897,0.4926906,0.9585348,0.42203602,0.92584723,-0.3775028,0.92811096
1747679505.054236,0.4926906,0.9585348,0.42203602,0.92584723,-0.3775028,0.92811096
1747679505.054763,0.4926906,0.9585348,0.42203602,0.92584723,-0.3775028,0.92811096
1747679505.0552976,0.4926906,0.9585348,0.42203602,0.92584723,-0.3775028,0.92811096
1747679505.0559485,0.4926906,0.9585348,0.42203602,0.92584723,-0.3775028,0.92811096
1747679505.056506,0.4926906,0.9585348,0.42203602,0.92584723,-0.3775028,0.92811096
1747679505.0570579,0.4926906,0.9585348,0.42203602,0.92584723,-0.3775028,0.92811096
1747679505.0575857,0.4926906,0.9585348,0.42203602,0.92584723,-0.3775028,0.92811096
1747679505.0581532,0.4926906,0.9585348,0.42203602,0.92584723,-0.3775028,0.92811096
1747679505.0587077,0.4926906,0.9585348,0.42203602,0.92584723,-0.3775028,0.92811096
1747679505.0592628,0.4926906,0.9585348,0.42203602,0.92584723,-0.3775028,0.92811096
1747679505.0597987,0.4926906,0.9585348,0.42203602,0.92584723,-0.3775028,0.92811096
1747679505.0603323,0.4926906,0.9585348,0.42203602,0.92584723,-0.3775028,0.92811096
1747679505.0609066,0.4926906,0.9585348,0.42203602,0.92584723,-0.3775028,0.92811096
1747679505.0614593,0.4926906,0.9585348,0.42203602,0.92584723,-0.3775028,0.92811096
1747679505.0620015,0.4926906,0.9585348,0.42203602,0.92584723,-0.3775028,0.92811096
1747679505.0625541,0.4926906,0.9585348,0.42203602,0.92584723,-0.3775028,0.92811096
1747679505.0631008,0.4926906,0.9585348,0.42203602,0.92584723,-0.3775028,0.92811096
1747679505.063654,0.4926906,0.9585348,0.42203602,0.92584723,-0.3775028,0.92811096
1747679505.0642173,0.4926906,0.9585348,0.42203602,0.92584723,-0.3775028,0.92811096
1747679505.0647738,0.4926906,0.9585348,0.42203602,0.92584723,-0.3775028,0.92811096
1747679505.0653205,0.6278983,1.010763,0.19799145,0.9791104,-0.5021387,0.7917572
1747679505.0658424,0.6278983,1.010763,0.19799145,0.9791104,-0.5021387,0.7917572
1747679505.066391,0.6278983,1.010763,0.19799145,0.9791104,-0.5021387,0.7917572
1747679505.0669274,0.6278983,1.010763,0.19799145,0.9791104,-0.5021387,0.7917572
1747679505.0674624,0.6278983,1.010763,0.19799145,0.9791104,-0.5021387,0.7917572
1747679505.067997,0.6278983,1.010763,0.19799145,0.9791104,-0.5021387,0.7917572
1747679505.0685315,0.6278983,1.010763,0.19799145,0.9791104,-0.5021387,0.7917572
1747679505.0690658,0.6278983,1.010763,0.19799145,0.9791104,-0.5021387,0.7917572
1747679505.0695994,0.6278983,1.010763,0.19799145,0.9791104,-0.5021387,0.7917572
1747679505.0701337,0.6278983,1.010763,0.19799145,0.9791104,-0.5021387,0.7917572
1747679505.0706677,0.6278983,1.010763,0.19799145,0.9791104,-0.5021387,0.7917572
1747679505.0712194,0.6278983,1.010763,0.19799145,0.9791104,-0.5021387,0.7917572
1747679505.0717738,0.6278983,1.010763,0.19799145,0.9791104,-0.5021387,0.7917572
1747679505.0723262,0.6278983,1.010763,0.19799145,0.9791104,-0.5021387,0.7917572
1747679505.0728786,0.6278983,1.010763,0.19799145,0.9791104,-0.5021387,0.7917572
1747679505.073436,0.70502037,1.0293114,0.06473618,0.9791104,-0.5021387,0.7917572
1747679505.0739927,0.70502037,1.0293114,0.06473618,0.9791104,-0.5021387,0.7917572
1747679505.0745494,0.70502037,1.0293114,0.06473618,0.8384957,-0.3977428,0.6234456
1747679505.0751119,0.70502037,1.0293114,0.06473618,0.8384957,-0.3977428,0.6234456
1747679505.075673,0.70502037,1.0293114,0.06473618,0.8384957,-0.3977428,0.6234456
1747679505.0762048,0.70502037,1.0293114,0.06473618,0.8384957,-0.3977428,0.6234456
1747679505.0767493,0.70502037,1.0293114,0.06473618,0.8384957,-0.3977428,0.6234456
1747679505.0772953,0.70502037,1.0293114,0.06473618,0.8384957,-0.3977428,0.6234456
1747679505.0778387,0.70502037,1.0293114,0.06473618,0.8384957,-0.3977428,0.6234456
1747679505.0783877,0.70502037,1.0293114,0.06473618,0.8384957,-0.3977428,0.6234456
1747679505.079021,0.70502037,1.0293114,0.06473618,0.8384957,-0.3977428,0.6234456
1747679505.0795856,0.70502037,1.0293114,0.06473618,0.8384957,-0.3977428,0.6234456
1747679505.080132,0.70502037,1.0293114,0.06473618,0.8384957,-0.3977428,0.6234456
1747679505.0806763,0.70502037,1.0293114,0.06473618,0.8384957,-0.3977428,0.6234456
1747679505.081221,0.70502037,1.0293114,0.06473618,0.8384957,-0.3977428,0.6234456
1747679505.0817807,0.70502037,1.0293114,0.06473618,0.8384957,-0.3977428,0.6234456
1747679505.0823174,0.70502037,1.0293114,0.06473618,0.8384957,-0.3977428,0.6234456
1747679505.0828698,0.70502037,1.0293114,0.06473618,0.8384957,-0.3977428,0.6234456
1747679505.0834053,0.7284499,0.99953645,-0.03142237,0.4677839,-0.005725792,0.34221596
1747679505.08396,0.7284499,0.99953645,-0.03142237,0.4677839,-0.005725792,0.34221596
1747679505.0845072,0.7284499,0.99953645,-0.03142237,0.4677839,-0.005725792,0.34221596
1747679505.08507,0.7284499,0.99953645,-0.03142237,0.4677839,-0.005725792,0.34221596
1747679505.085631,0.7284499,0.99953645,-0.03142237,0.4677839,-0.005725792,0.34221596
1747679505.0863092,0.7284499,0.99953645,-0.03142237,0.4677839,-0.005725792,0.34221596
1747679505.0868692,0.7284499,0.99953645,-0.03142237,0.4677839,-0.005725792,0.34221596
1747679505.0874383,0.7284499,0.99953645,-0.03142237,0.4677839,-0.005725792,0.34221596
1747679505.087964,0.7284499,0.99953645,-0.03142237,0.4677839,-0.005725792,0.34221596
1747679505.0885248,0.7284499,0.99953645,-0.03142237,0.4677839,-0.005725792,0.34221596
1747679505.0890741,0.7284499,0.99953645,-0.03142237,0.4677839,-0.005725792,0.34221596
1747679505.0896277,0.7284499,0.99953645,-0.03142237,0.4677839,-0.005725792,0.34221596
1747679505.0901797,0.7284499,0.99953645,-0.03142237,0.4677839,-0.005725792,0.34221596
1747679505.0907464,0.7284499,0.99953645,-0.03142237,0.4677839,-0.005725792,0.34221596
1747679505.0913196,0.7284499,0.99953645,-0.03142237,0.4677839,-0.005725792,0.34221596
1747679505.091851,0.7284499,0.99953645,-0.03142237,0.4677839,-0.005725792,0.34221596
1747679505.0924082,0.7284499,0.99953645,-0.03142237,0.4677839,-0.005725792,0.34221596
1747679505.09296,0.7284499,0.99953645,-0.03142237,0.4677839,-0.005725792,0.34221596
1747679505.0935113,0.7284499,0.99953645,-0.03142237,0.4677839,-0.005725792,0.34221596
1747679505.0940719,0.7284499,0.99953645,-0.03142237,0.4677839,-0.005725792,0.34221596
1747679505.0947149,0.7284499,0.99953645,-0.03142237,0.4677839,-0.005725792,0.34221596
1747679505.0953372,0.6513278,0.94926065,-0.0075047608,0.4677839,-0.005725792,0.34221596
1747679505.0959036,0.6513278,0.94926065,-0.0075047608,0.14287849,0.36605123,0.13129374
1747679505.0964637,0.6513278,0.94926065,-0.0075047608,0.14287849,0.36605123,0.13129374
1747679505.0971336,0.6513278,0.94926065,-0.0075047608,0.14287849,0.36605123,0.13129374
1747679505.0977025,0.6513278,0.94926065,-0.0075047608,0.14287849,0.36605123,0.13129374
1747679505.0982428,0.6513278,0.94926065,-0.0075047608,0.14287849,0.36605123,0.13129374
1747679505.098809,0.49561927,0.9302242,0.10183288,0.14287849,0.36605123,0.13129374
1747679505.099353,0.49561927,0.9302242,0.10183288,0.14287849,0.36605123,0.13129374
1747679505.0999243,0.49561927,0.9302242,0.10183288,0.14287849,0.36605123,0.13129374
1747679505.1005502,0.49561927,0.9302242,0.10183288,0.14287849,0.36605123,0.13129374
1747679505.1011014,0.49561927,0.9302242,0.10183288,0.14287849,0.36605123,0.13129374
1747679505.1016712,0.49561927,0.9302242,0.10183288,0.14287849,0.36605123,0.13129374
1747679505.1022356,0.49561927,0.9302242,0.10183288,0.14287849,0.36605123,0.13129374
1747679505.10278,0.49561927,0.9302242,0.10183288,0.14287849,0.36605123,0.13129374
1747679505.1033268,0.49561927,0.9302242,0.10183288,-0.15539533,0.63769346,-0.0018642114
1747679505.1038976,0.49561927,0.9302242,0.10183288,-0.15539533,0.63769346,-0.0018642114
1747679505.1044264,0.49561927,0.9302242,0.10183288,-0.15539533,0.63769346,-0.0018642114
1747679505.1049902,0.49561927,0.9302242,0.10183288,-0.15539533,0.63769346,-0.0018642114
1747679505.105554,0.49561927,0.9302242,0.10183288,-0.15539533,0.63769346,-0.0018642114
1747679505.106097,0.49561927,0.9302242,0.10183288,-0.15539533,0.63769346,-0.0018642114
1747679505.1066337,0.49561927,0.9302242,0.10183288,-0.15539533,0.63769346,-0.0018642114
1747679505.107187,0.49561927,0.9302242,0.10183288,-0.15539533,0.63769346,-0.0018642114
1747679505.10774,0.49561927,0.9302242,0.10183288,-0.15539533,0.63769346,-0.0018642114
1747679505.1082933,0.49561927,0.9302242,0.10183288,-0.15539533,0.63769346,-0.0018642114
1747679505.1088488,0.49561927,0.9302242,0.10183288,-0.15539533,0.63769346,-0.0018642114
1747679505.1094108,0.37798366,0.94974875,0.24680288,-0.25126907,0.7069356,0.003462107
1747679505.1099536,0.37798366,0.94974875,0.24680288,-0.25126907,0.7069356,0.003462107
1747679505.110503,0.37798366,0.94974875,0.24680288,-0.25126907,0.7069356,0.003462107
1747679505.1111612,0.37798366,0.94974875,0.24680288,-0.25126907,0.7069356,0.003462107
1747679505.1117294,0.37798366,0.94974875,0.24680288,-0.25126907,0.7069356,0.003462107
1747679505.1122673,0.37798366,0.94974875,0.24680288,-0.25126907,0.7069356,0.003462107
1747679505.1128054,0.37798366,0.94974875,0.24680288,-0.25126907,0.7069356,0.003462107
1747679505.1133559,0.37798366,0.94974875,0.24680288,-0.25126907,0.7069356,0.003462107
1747679505.11391,0.37798366,0.94974875,0.24680288,-0.25126907,0.7069356,0.003462107
1747679505.1144643,0.37798366,0.94974875,0.24680288,-0.25126907,0.7069356,0.003462107
1747679505.1150005,0.37798366,0.94974875,0.24680288,-0.25126907,0.7069356,0.003462107
1747679505.1155515,0.37798366,0.94974875,0.24680288,-0.25126907,0.7069356,0.003462107
1747679505.1161027,0.37798366,0.94974875,0.24680288,-0.25126907,0.7069356,0.003462107
1747679505.1167214,0.37798366,0.94974875,0.24680288,-0.25126907,0.7069356,0.003462107
1747679505.117306,0.37798366,0.94974875,0.24680288,-0.25126907,0.7069356,0.003462107
1747679505.1180887,0.37798366,0.94974875,0.24680288,-0.25126907,0.7069356,0.003462107
1747679505.118657,0.37798366,0.94974875,0.24680288,-0.25126907,0.7069356,0.003462107
1747679505.1192205,0.37798366,0.94974875,0.24680288,-0.25126907,0.7069356,0.003462107
1747679505.1197698,0.37798366,0.94974875,0.24680288,-0.25126907,0.7069356,0.003462107
1747679505.1203074,0.37798366,0.94974875,0.24680288,-0.25126907,0.7069356,0.003462107
1747679505.120885,0.37798366,0.94974875,0.24680288,-0.25126907,0.7069356,0.003462107
1747679505.1214347,0.37798366,0.94974875,0.24680288,-0.25126907,0.7069356,0.003462107
1747679505.1219904,0.37798366,0.94974875,0.24680288,-0.18415745,0.65260714,0.07376951
1747679505.122549,0.31306443,0.98928607,0.3824987,-0.18415745,0.65260714,0.07376951
1747679505.1231203,0.31306443,0.98928607,0.3824987,-0.18415745,0.65260714,0.07376951
1747679505.1236517,0.31306443,0.98928607,0.3824987,-0.18415745,0.65260714,0.07376951
1747679505.1241982,0.31306443,0.98928607,0.3824987,-0.18415745,0.65260714,0.07376951
1747679505.1247613,0.31306443,0.98928607,0.3824987,-0.18415745,0.65260714,0.07376951
1747679505.1253235,0.31306443,0.98928607,0.3824987,-0.18415745,0.65260714,0.07376951
1747679505.1261857,0.31306443,0.98928607,0.3824987,-0.18415745,0.65260714,0.07376951
1747679505.1267574,0.31306443,0.98928607,0.3824987,-0.18415745,0.65260714,0.07376951
1747679505.1273003,0.31306443,0.98928607,0.3824987,-0.18415745,0.65260714,0.07376951
1747679505.127841,0.31306443,0.98928607,0.3824987,-0.18415745,0.65260714,0.07376951
1747679505.1284,0.31306443,0.98928607,0.3824987,-0.18415745,0.65260714,0.07376951
1747679505.1289554,0.31306443,0.98928607,0.3824987,-0.18415745,0.65260714,0.07376951
1747679505.1295147,0.3116001,1.0229659,0.45766833,0.012916322,0.5194492,0.17816535
1747679505.1300702,0.3116001,1.0229659,0.45766833,0.012916322,0.5194492,0.17816535
1747679505.1306858,0.3116001,1.0229659,0.45766833,0.012916322,0.5194492,0.17816535
1747679505.1312163,0.3116001,1.0229659,0.45766833,0.012916322,0.5194492,0.17816535
1747679505.1317437,0.3116001,1.0229659,0.45766833,0.012916322,0.5194492,0.17816535
1747679505.132434,0.3116001,1.0229659,0.45766833,0.012916322,0.5194492,0.17816535
1747679505.133013,0.3116001,1.0229659,0.45766833,0.012916322,0.5194492,0.17816535
1747679505.13354,0.3116001,1.0229659,0.45766833,0.012916322,0.5194492,0.17816535
1747679505.1340814,0.3116001,1.0229659,0.45766833,0.012916322,0.5194492,0.17816535
1747679505.1346152,0.3116001,1.0229659,0.45766833,0.012916322,0.5194492,0.17816535
1747679505.1351423,0.3116001,1.0229659,0.45766833,0.012916322,0.5194492,0.17816535
1747679505.135673,0.3116001,1.0229659,0.45766833,0.012916322,0.5194492,0.17816535
1747679505.1362185,0.3116001,1.0229659,0.45766833,0.012916322,0.5194492,0.17816535
1747679505.1367614,0.3116001,1.0229659,0.45766833,0.012916322,0.5194492,0.17816535
1747679505.137314,0.3116001,1.0229659,0.45766833,0.012916322,0.5194492,0.17816535
1747679505.137853,0.3116001,1.0229659,0.45766833,0.012916322,0.5194492,0.17816535
1747679505.1383982,0.3116001,1.0229659,0.45766833,0.012916322,0.5194492,0.17816535
1747679505.138936,0.3116001,1.0229659,0.45766833,0.012916322,0.5194492,0.17816535
1747679505.139485,0.3116001,1.0229659,0.45766833,0.012916322,0.5194492,0.17816535
1747679505.1399987,0.3116001,1.0229659,0.45766833,0.012916322,0.5194492,0.17816535
1747679505.1405332,0.3701738,1.0405381,0.4898839,0.2185122,0.34474593,0.24421169
1747679505.141064,0.3701738,1.0405381,0.4898839,0.2185122,0.34474593,0.24421169
1747679505.1416054,0.3701738,1.0405381,0.4898839,0.2185122,0.34474593,0.24421169
1747679505.1421516,0.3701738,1.0405381,0.4898839,0.2185122,0.34474593,0.24421169
1747679505.142709,0.3701738,1.0405381,0.4898839,0.2185122,0.34474593,0.24421169
1747679505.1432517,0.3701738,1.0405381,0.4898839,0.2185122,0.34474593,0.24421169
1747679505.1437914,0.3701738,1.0405381,0.4898839,0.2185122,0.34474593,0.24421169
1747679505.1443284,0.3701738,1.0405381,0.4898839,0.2185122,0.34474593,0.24421169
1747679505.1448572,0.3701738,1.0405381,0.4898839,0.2185122,0.34474593,0.24421169
1747679505.1453862,0.3701738,1.0405381,0.4898839,0.2185122,0.34474593,0.24421169
1747679505.145914,0.3701738,1.0405381,0.4898839,0.2185122,0.34474593,0.24421169
1747679505.1464417,0.3701738,1.0405381,0.4898839,0.2185122,0.34474593,0.24421169
1747679505.1469693,0.3701738,1.0405381,0.4898839,0.2185122,0.34474593,0.24421169
1747679505.1475425,0.3701738,1.0405381,0.4898839,0.2185122,0.34474593,0.24421169
1747679505.1481185,0.3701738,1.0405381,0.4898839,0.2185122,0.34474593,0.24421169
1747679505.148641,0.3701738,1.0405381,0.4898839,0.2185122,0.34474593,0.24421169
1747679505.1491745,0.3701738,1.0405381,0.4898839,0.2185122,0.34474593,0.24421169
1747679505.1497169,0.3701738,1.0405381,0.4898839,0.2185122,0.34474593,0.24421169
1747679505.150257,0.3701738,1.0405381,0.4898839,0.2185122,0.34474593,0.24421169
1747679505.1507857,0.3701738,1.0405381,0.4898839,0.2185122,0.34474593,0.24421169
1747679505.1513176,0.3701738,1.0405381,0.4898839,0.2185122,0.34474593,0.24421169
1747679505.1518464,0.3701738,1.0405381,0.4898839,0.2185122,0.34474593,0.24421169
1747679505.1523778,0.3701738,1.0405381,0.4898839,0.2185122,0.34474593,0.24421169
1747679505.1529193,0.3701738,1.0405381,0.4898839,0.2185122,0.34474593,0.24421169
1747679505.1534517,0.3701738,1.0405381,0.4898839,0.2185122,0.34474593,0.24421169
1747679505.153992,0.5341803,1.0483478,0.3776176,0.47204494,0.07416898,0.23462431
1747679505.1545277,0.5341803,1.0483478,0.3776176,0.47204494,0.07416898,0.23462431
1747679505.1550672,0.5341803,1.0483478,0.3776176,0.47204494,0.07416898,0.23462431
1747679505.1556256,0.5341803,1.0483478,0.3776176,0.47204494,0.07416898,0.23462431
1747679505.156159,0.5341803,1.0483478,0.3776176,0.47204494,0.07416898,0.23462431
1747679505.1567123,0.5341803,1.0483478,0.3776176,0.47204494,0.07416898,0.23462431
1747679505.1572711,0.5341803,1.0483478,0.3776176,0.47204494,0.07416898,0.23462431
1747679505.1577952,0.5341803,1.0483478,0.3776176,0.47204494,0.07416898,0.23462431
1747679505.1583893,0.5341803,1.0483478,0.3776176,0.47204494,0.07416898,0.23462431
1747679505.1592224,0.5341803,1.0483478,0.3776176,0.47204494,0.07416898,0.23462431
1747679505.159789,0.5341803,1.0483478,0.3776176,0.47204494,0.07416898,0.23462431
1747679505.1608038,0.6576733,1.0205253,0.1726095,0.47204494,0.07416898,0.23462431
1747679505.1618035,0.6576733,1.0205253,0.1726095,0.4944155,0.018775271,0.089748465
1747679505.1628716,0.6576733,1.0205253,0.1726095,0.4944155,0.018775271,0.089748465
1747679505.1639333,0.6576733,1.0205253,0.1726095,0.4944155,0.018775271,0.089748465
1747679505.1648636,0.6576733,1.0205253,0.1726095,0.4944155,0.018775271,0.089748465
1747679505.1658013,0.6576733,1.0205253,0.1726095,0.4944155,0.018775271,0.089748465
1747679505.1668043,0.6576733,1.0205253,0.1726095,0.4944155,0.018775271,0.089748465
1747679505.1677964,0.6576733,1.0205253,0.1726095,0.4944155,0.018775271,0.089748465
1747679505.1687918,0.6576733,1.0205253,0.1726095,0.4944155,0.018775271,0.089748465
1747679505.1697927,0.6576733,1.0205253,0.1726095,0.4944155,0.018775271,0.089748465
1747679505.1708145,0.6576733,1.0205253,0.1726095,0.4944155,0.018775271,0.089748465
1747679505.1714182,0.6576733,1.0205253,0.1726095,0.4944155,0.018775271,0.089748465
1747679505.171991,0.6859839,0.9897742,0.04374726,0.4944155,0.018775271,0.089748465
1747679505.1725547,0.6859839,0.9897742,0.04374726,0.4944155,0.018775271,0.089748465
1747679505.1731224,0.6859839,0.9897742,0.04374726,0.4944155,0.018775271,0.089748465
1747679505.1736922,0.6859839,0.9897742,0.04374726,0.4944155,0.018775271,0.089748465
1747679505.1742635,0.6859839,0.9897742,0.04374726,0.4944155,0.018775271,0.089748465
1747679505.174833,0.6859839,0.9897742,0.04374726,0.39001966,0.04114581,-0.031691592
1747679505.1753883,0.6859839,0.9897742,0.04374726,0.39001966,0.04114581,-0.031691592
1747679505.1759386,0.6859839,0.9897742,0.04374726,0.39001966,0.04114581,-0.031691592
1747679505.1764905,0.6859839,0.9897742,0.04374726,0.39001966,0.04114581,-0.031691592
1747679505.1770263,0.6859839,0.9897742,0.04374726,0.39001966,0.04114581,-0.031691592
1747679505.1775799,0.6859839,0.9897742,0.04374726,0.39001966,0.04114581,-0.031691592
1747679505.1781433,0.6859839,0.9897742,0.04374726,0.39001966,0.04114581,-0.031691592
1747679505.1786997,0.6859839,0.9897742,0.04374726,0.39001966,0.04114581,-0.031691592
1747679505.179255,0.6859839,0.9897742,0.04374726,0.39001966,0.04114581,-0.031691592
1747679505.1798608,0.6859839,0.9897742,0.04374726,0.39001966,0.04114581,-0.031691592
1747679505.1804276,0.6859839,0.9897742,0.04374726,0.39001966,0.04114581,-0.031691592
1747679505.1809857,0.6859839,0.9897742,0.04374726,0.39001966,0.04114581,-0.031691592
1747679505.1815405,0.6859839,0.9897742,0.04374726,0.39001966,0.04114581,-0.031691592
1747679505.1820965,0.6859839,0.9897742,0.04374726,0.39001966,0.04114581,-0.031691592
1747679505.1826468,0.6859839,0.9897742,0.04374726,0.39001966,0.04114581,-0.031691592
1747679505.183201,0.6859839,0.9897742,0.04374726,0.39001966,0.04114581,-0.031691592
1747679505.183765,0.6376606,0.9365697,-0.11049692,-0.029694224,0.17004271,-0.30226856
1747679505.1842992,0.6376606,0.9365697,-0.11049692,-0.029694224,0.17004271,-0.30226856
1747679505.1848443,0.6376606,0.9365697,-0.11049692,-0.029694224,0.17004271,-0.30226856
1747679505.1853824,0.6376606,0.9365697,-0.11049692,-0.029694224,0.17004271,-0.30226856
1747679505.18592,0.6376606,0.9365697,-0.11049692,-0.029694224,0.17004271,-0.30226856
1747679505.186465,0.6376606,0.9365697,-0.11049692,-0.029694224,0.17004271,-0.30226856
1747679505.1870127,0.6376606,0.9365697,-0.11049692,-0.029694224,0.17004271,-0.30226856
1747679505.1875596,0.6376606,0.9365697,-0.11049692,-0.029694224,0.17004271,-0.30226856
1747679505.1881006,0.6376606,0.9365697,-0.11049692,-0.029694224,0.17004271,-0.30226856
1747679505.1886578,0.6376606,0.9365697,-0.11049692,-0.029694224,0.17004271,-0.30226856
1747679505.1892223,0.6376606,0.9365697,-0.11049692,-0.029694224,0.17004271,-0.30226856
1747679505.1897666,0.6376606,0.9365697,-0.11049692,-0.029694224,0.17004271,-0.30226856
1747679505.190301,0.6376606,0.9365697,-0.11049692,-0.029694224,0.17004271,-0.30226856
1747679505.1908393,0.6376606,0.9365697,-0.11049692,-0.029694224,0.17004271,-0.30226856
1747679505.1913838,0.6376606,0.9365697,-0.11049692,-0.029694224,0.17004271,-0.30226856
1747679505.19193,0.6376606,0.9365697,-0.11049692,-0.029694224,0.17004271,-0.30226856
1747679505.192474,0.6376606,0.9365697,-0.11049692,-0.029694224,0.17004271,-0.30226856
1747679505.1930172,0.6376606,0.9365697,-0.11049692,-0.029694224,0.17004271,-0.30226856
1747679505.1936848,0.6376606,0.9365697,-0.11049692,-0.029694224,0.17004271,-0.30226856
1747679505.1942472,0.6376606,0.9365697,-0.11049692,-0.41531965,0.42890176,-0.46951494
1747679505.1948252,0.6376606,0.9365697,-0.11049692,-0.41531965,0.42890176,-0.46951494
1747679505.19535,0.524418,0.91460454,-0.058268666,-0.41531965,0.42890176,-0.46951494
1747679505.1958902,0.524418,0.91460454,-0.058268666,-0.41531965,0.42890176,-0.46951494
1747679505.1964343,0.524418,0.91460454,-0.058268666,-0.41531965,0.42890176,-0.46951494
1747679505.196978,0.524418,0.91460454,-0.058268666,-0.41531965,0.42890176,-0.46951494
1747679505.1975222,0.524418,0.91460454,-0.058268666,-0.41531965,0.42890176,-0.46951494
1747679505.1980662,0.524418,0.91460454,-0.058268666,-0.41531965,0.42890176,-0.46951494
1747679505.1986096,0.524418,0.91460454,-0.058268666,-0.41531965,0.42890176,-0.46951494
1747679505.1991544,0.524418,0.91460454,-0.058268666,-0.41531965,0.42890176,-0.46951494
1747679505.1997035,0.524418,0.91460454,-0.058268666,-0.41531965,0.42890176,-0.46951494
1747679505.200218,0.524418,0.91460454,-0.058268666,-0.41531965,0.42890176,-0.46951494
1747679505.2007468,0.524418,0.91460454,-0.058268666,-0.41531965,0.42890176,-0.46951494
1747679505.2012737,0.524418,0.91460454,-0.058268666,-0.41531965,0.42890176,-0.46951494
1747679505.2018013,0.524418,0.91460454,-0.058268666,-0.41531965,0.42890176,-0.46951494
1747679505.2023292,0.524418,0.91460454,-0.058268666,-0.41531965,0.42890176,-0.46951494
1747679505.2028565,0.524418,0.91460454,-0.058268666,-0.41531965,0.42890176,-0.46951494
1747679505.203388,0.524418,0.91460454,-0.058268666,-0.41531965,0.42890176,-0.46951494
1747679505.2039444,0.524418,0.91460454,-0.058268666,-0.41531965,0.42890176,-0.46951494
1747679505.204566,0.35308984,0.8921513,0.1462513,-0.73809457,0.73143667,-0.5387571
1747679505.2050614,0.35308984,0.8921513,0.1462513,-0.73809457,0.73143667,-0.5387571
1747679505.2056286,0.35308984,0.8921513,0.1462513,-0.73809457,0.73143667,-0.5387571
1747679505.206157,0.35308984,0.8921513,0.1462513,-0.73809457,0.73143667,-0.5387571
1747679505.2066944,0.35308984,0.8921513,0.1462513,-0.73809457,0.73143667,-0.5387571
1747679505.2072444,0.35308984,0.8921513,0.1462513,-0.73809457,0.73143667,-0.5387571
1747679505.207794,0.35308984,0.8921513,0.1462513,-0.73809457,0.73143667,-0.5387571
1747679505.2083426,0.35308984,0.8921513,0.1462513,-0.73809457,0.73143667,-0.5387571
1747679505.2089076,0.35308984,0.8921513,0.1462513,-0.73809457,0.73143667,-0.5387571
1747679505.209469,0.35308984,0.8921513,0.1462513,-0.73809457,0.73143667,-0.5387571
1747679505.2100077,0.35308984,0.8921513,0.1462513,-0.73809457,0.73143667,-0.5387571
1747679505.2105703,0.21641776,0.8853177,0.32246062,-0.73809457,0.73143667,-0.5387571
1747679505.211097,0.21641776,0.8853177,0.32246062,-0.73809457,0.73143667,-0.5387571
1747679505.2116601,0.21641776,0.8853177,0.32246062,-0.73809457,0.73143667,-0.5387571
1747679505.212222,0.21641776,0.8853177,0.32246062,-0.77324826,0.96046835,-0.4833634
1747679505.2127514,0.21641776,0.8853177,0.32246062,-0.77324826,0.96046835,-0.4833634
1747679505.2133014,0.21641776,0.8853177,0.32246062,-0.77324826,0.96046835,-0.4833634
1747679505.2138567,0.21641776,0.8853177,0.32246062,-0.77324826,0.96046835,-0.4833634
1747679505.2144117,0.21641776,0.8853177,0.32246062,-0.77324826,0.96046835,-0.4833634
1747679505.2149642,0.21641776,0.8853177,0.32246062,-0.77324826,0.96046835,-0.4833634
1747679505.2154963,0.21641776,0.8853177,0.32246062,-0.77324826,0.96046835,-0.4833634
1747679505.216043,0.21641776,0.8853177,0.32246062,-0.77324826,0.96046835,-0.4833634
1747679505.2165928,0.21641776,0.8853177,0.32246062,-0.77324826,0.96046835,-0.4833634
1747679505.2171495,0.21641776,0.8853177,0.32246062,-0.77324826,0.96046835,-0.4833634
1747679505.2176912,0.21641776,0.8853177,0.32246062,-0.77324826,0.96046835,-0.4833634
1747679505.218218,0.21641776,0.8853177,0.32246062,-0.77324826,0.96046835,-0.4833634
1747679505.2187438,0.21641776,0.8853177,0.32246062,-0.77324826,0.96046835,-0.4833634
1747679505.2192721,0.21641776,0.8853177,0.32246062,-0.77324826,0.96046835,-0.4833634
1747679505.2198443,0.035327286,0.9097234,0.62167484,-0.77324826,0.96046835,-0.4833634
1747679505.2203996,0.035327286,0.9097234,0.62167484,-0.77324826,0.96046835,-0.4833634
1747679505.220903,0.035327286,0.9097234,0.62167484,-0.77324826,0.96046835,-0.4833634
1747679505.2214267,0.035327286,0.9097234,0.62167484,-0.77324826,0.96046835,-0.4833634
1747679505.2219474,0.035327286,0.9097234,0.62167484,-0.77324826,0.96046835,-0.4833634
1747679505.2224667,0.035327286,0.9097234,0.62167484,-0.55273867,1.1010832,-0.27563697
1747679505.222986,0.035327286,0.9097234,0.62167484,-0.55273867,1.1010832,-0.27563697
1747679505.2235043,0.035327286,0.9097234,0.62167484,-0.55273867,1.1010832,-0.27563697
1747679505.2241135,0.035327286,0.9097234,0.62167484,-0.55273867,1.1010832,-0.27563697
1747679505.2246797,0.035327286,0.9097234,0.62167484,-0.55273867,1.1010832,-0.27563697
1747679505.2252264,0.035327286,0.9097234,0.62167484,-0.55273867,1.1010832,-0.27563697
1747679505.2257688,0.035327286,0.9097234,0.62167484,-0.55273867,1.1010832,-0.27563697
1747679505.2272418,0.035327286,0.9097234,0.62167484,-0.55273867,1.1010832,-0.27563697
1747679505.2277963,0.035327286,0.9097234,0.62167484,-0.55273867,1.1010832,-0.27563697
1747679505.2283297,0.035327286,0.9097234,0.62167484,-0.55273867,1.1010832,-0.27563697
1747679505.2288494,0.035327286,0.9097234,0.62167484,-0.55273867,1.1010832,-0.27563697
1747679505.2293675,0.035327286,0.9097234,0.62167484,-0.55273867,1.1010832,-0.27563697
1747679505.229886,0.035327286,0.9097234,0.62167484,-0.55273867,1.1010832,-0.27563697
1747679505.2304041,0.035327286,0.9097234,0.62167484,-0.55273867,1.1010832,-0.27563697
1747679505.2309222,0.035327286,0.9097234,0.62167484,-0.55273867,1.1010832,-0.27563697
1747679505.23144,0.035327286,0.9097234,0.62167484,-0.55273867,1.1010832,-0.27563697
1747679505.231958,0.035327286,0.9097234,0.62167484,-0.55273867,1.1010832,-0.27563697
1747679505.232476,0.035327286,0.9097234,0.62167484,-0.55273867,1.1010832,-0.27563697
1747679505.2329938,0.035327286,0.9097234,0.62167484,-0.55273867,1.1010832,-0.27563697
1747679505.2335153,0.035327286,0.9097234,0.62167484,-0.55273867,1.1010832,-0.27563697
1747679505.2340386,0.035327286,0.9097234,0.62167484,-0.55273867,1.1010832,-0.27563697
1747679505.2345588,0.035327286,0.9097234,0.62167484,-0.55273867,1.1010832,-0.27563697
1747679505.2350821,0.035327286,0.9097234,0.62167484,-0.55273867,1.1010832,-0.27563697
1747679505.2356317,0.035327286,0.9097234,0.62167484,-0.55273867,1.1010832,-0.27563697
1747679505.2361798,0.035327286,0.9097234,0.62167484,-0.55273867,1.1010832,-0.27563697
1747679505.2367132,0.035327286,0.9097234,0.62167484,-0.55273867,1.1010832,-0.27563697
1747679505.2372828,-0.015924735,0.93266475,0.76615673,-0.1916143,1.0978874,-0.034887385
1747679505.2378035,-0.015924735,0.93266475,0.76615673,-0.1916143,1.0978874,-0.034887385
1747679505.2383227,-0.015924735,0.93266475,0.76615673,-0.1916143,1.0978874,-0.034887385
1747679505.238874,-0.015924735,0.93266475,0.76615673,-0.1916143,1.0978874,-0.034887385
1747679505.2394145,-0.015924735,0.93266475,0.76615673,-0.1916143,1.0978874,-0.034887385
1747679505.2399552,-0.015924735,0.93266475,0.76615673,-0.1916143,1.0978874,-0.034887385
1747679505.2404792,-0.015924735,0.93266475,0.76615673,-0.1916143,1.0978874,-0.034887385
1747679505.2409978,-0.015924735,0.93266475,0.76615673,-0.1916143,1.0978874,-0.034887385
1747679505.2415164,-0.015924735,0.93266475,0.76615673,-0.1916143,1.0978874,-0.034887385
1747679505.2420342,-0.015924735,0.93266475,0.76615673,-0.1916143,1.0978874,-0.034887385
1747679505.2425525,-0.015924735,0.93266475,0.76615673,-0.1916143,1.0978874,-0.034887385
1747679505.2430706,-0.015924735,0.93266475,0.76615673,-0.1916143,1.0978874,-0.034887385
1747679505.2435913,-0.015924735,0.93266475,0.76615673,-0.1916143,1.0978874,-0.034887385
1747679505.2441144,-0.015924735,0.93266475,0.76615673,-0.1916143,1.0978874,-0.034887385
1747679505.2446349,-0.015924735,0.93266475,0.76615673,-0.1916143,1.0978874,-0.034887385
1747679505.2451541,-0.015924735,0.93266475,0.76615673,-0.1916143,1.0978874,-0.034887385
1747679505.2456746,-0.015924735,0.93266475,0.76615673,-0.1916143,1.0978874,-0.034887385
1747679505.2461953,0.06803096,0.95316553,0.77396655,0.37191015,0.97112095,0.2761696
1747679505.2467146,0.06803096,0.95316553,0.77396655,0.37191015,0.97112095,0.2761696
1747679505.2472327,0.06803096,0.95316553,0.77396655,0.37191015,0.97112095,0.2761696
1747679505.247751,0.06803096,0.95316553,0.77396655,0.37191015,0.97112095,0.2761696
1747679505.2482693,0.06803096,0.95316553,0.77396655,0.37191015,0.97112095,0.2761696
1747679505.2487876,0.06803096,0.95316553,0.77396655,0.37191015,0.97112095,0.2761696
1747679505.249307,0.06803096,0.95316553,0.77396655,0.37191015,0.97112095,0.2761696
1747679505.249825,0.06803096,0.95316553,0.77396655,0.37191015,0.97112095,0.2761696
1747679505.2503457,0.06803096,0.95316553,0.77396655,0.37191015,0.97112095,0.2761696
1747679505.2508872,0.06803096,0.95316553,0.77396655,0.37191015,0.97112095,0.2761696
1747679505.251426,0.30281404,0.9351053,0.49915808,0.37191015,0.97112095,0.2761696
1747679505.251947,0.30281404,0.9351053,0.49915808,0.8864325,0.80493987,0.4700476
1747679505.252466,0.30281404,0.9351053,0.49915808,0.8864325,0.80493987,0.4700476
1747679505.2529843,0.30281404,0.9351053,0.49915808,0.8864325,0.80493987,0.4700476
1747679505.2535026,0.30281404,0.9351053,0.49915808,0.8864325,0.80493987,0.4700476
1747679505.254024,0.30281404,0.9351053,0.49915808,0.8864325,0.80493987,0.4700476
1747679505.2546191,0.30281404,0.9351053,0.49915808,0.8864325,0.80493987,0.4700476
1747679505.255184,0.30281404,0.9351053,0.49915808,0.8864325,0.80493987,0.4700476
1747679505.2557402,0.30281404,0.9351053,0.49915808,0.8864325,0.80493987,0.4700476
1747679505.2562976,0.30281404,0.9351053,0.49915808,0.8864325,0.80493987,0.4700476
1747679505.2568438,0.30281404,0.9351053,0.49915808,0.8864325,0.80493987,0.4700476
1747679505.2573838,0.30281404,0.9351053,0.49915808,0.8864325,0.80493987,0.4700476
1747679505.257927,0.30281404,0.9351053,0.49915808,0.8864325,0.80493987,0.4700476
1747679505.2584631,0.30281404,0.9351053,0.49915808,0.8864325,0.80493987,0.4700476
1747679505.2589867,0.30281404,0.9351053,0.49915808,0.8864325,0.80493987,0.4700476
1747679505.25951,0.30281404,0.9351053,0.49915808,0.8864325,0.80493987,0.4700476
1747679505.2600307,0.30281404,0.9351053,0.49915808,0.8864325,0.80493987,0.4700476
1747679505.2605517,0.30281404,0.9351053,0.49915808,0.8864325,0.80493987,0.4700476
1747679505.2610729,0.42972377,0.91558075,0.28292337,1.0345042,0.7229145,0.45406863
1747679505.2615921,0.42972377,0.91558075,0.28292337,1.0345042,0.7229145,0.45406863
1747679505.2621107,0.42972377,0.91558075,0.28292337,1.0345042,0.7229145,0.45406863
1747679505.2626286,0.42972377,0.91558075,0.28292337,1.0345042,0.7229145,0.45406863
1747679505.263147,0.42972377,0.91558075,0.28292337,1.0345042,0.7229145,0.45406863
1747679505.2636654,0.42972377,0.91558075,0.28292337,1.0345042,0.7229145,0.45406863
1747679505.264187,0.42972377,0.91558075,0.28292337,1.0345042,0.7229145,0.45406863
1747679505.264718,0.42972377,0.91558075,0.28292337,1.0345042,0.7229145,0.45406863
1747679505.2652442,0.42972377,0.91558075,0.28292337,1.0345042,0.7229145,0.45406863
1747679505.2657628,0.42972377,0.91558075,0.28292337,1.0345042,0.7229145,0.45406863
1747679505.2662845,0.42972377,0.91558075,0.28292337,1.0345042,0.7229145,0.45406863
1747679505.2668347,0.42972377,0.91558075,0.28292337,1.0345042,0.7229145,0.45406863
1747679505.2673867,0.42972377,0.91558075,0.28292337,1.0345042,0.7229145,0.45406863
1747679505.2679195,0.42972377,0.91558075,0.28292337,1.0345042,0.7229145,0.45406863
1747679505.2684393,0.42972377,0.91558075,0.28292337,1.0345042,0.7229145,0.45406863
1747679505.2689576,0.42972377,0.91558075,0.28292337,1.0345042,0.7229145,0.45406863
1747679505.2694764,0.42972377,0.91558075,0.28292337,1.0345042,0.7229145,0.45406863
1747679505.270041,0.42972377,0.91558075,0.28292337,1.0345042,0.7229145,0.45406863
1747679505.270594,0.54150206,0.94047457,-0.012385906,1.0345042,0.7229145,0.45406863
1747679505.2711432,0.54150206,0.94047457,-0.012385906,1.0345042,0.7229145,0.45406863
1747679505.2717762,0.54150206,0.94047457,-0.012385906,0.98230624,0.6834998,0.36458647
1747679505.2723322,0.54150206,0.94047457,-0.012385906,0.98230624,0.6834998,0.36458647
1747679505.2728734,0.54150206,0.94047457,-0.012385906,0.98230624,0.6834998,0.36458647
1747679505.2734146,0.54150206,0.94047457,-0.012385906,0.98230624,0.6834998,0.36458647
1747679505.2739832,0.54150206,0.94047457,-0.012385906,0.98230624,0.6834998,0.36458647
1747679505.2745438,0.54150206,0.94047457,-0.012385906,0.98230624,0.6834998,0.36458647
1747679505.2750912,0.54150206,0.94047457,-0.012385906,0.98230624,0.6834998,0.36458647
1747679505.2756305,0.54150206,0.94047457,-0.012385906,0.98230624,0.6834998,0.36458647
1747679505.2761588,0.54150206,0.94047457,-0.012385906,0.98230624,0.6834998,0.36458647
1747679505.2766802,0.54150206,0.94047457,-0.012385906,0.98230624,0.6834998,0.36458647
1747679505.2772017,0.54150206,0.94047457,-0.012385906,0.98230624,0.6834998,0.36458647
1747679505.2777226,0.54150206,0.94047457,-0.012385906,0.98230624,0.6834998,0.36458647
1747679505.2782433,0.54150206,0.94047457,-0.012385906,0.98230624,0.6834998,0.36458647
1747679505.2787647,0.54150206,0.94047457,-0.012385906,0.98230624,0.6834998,0.36458647
1747679505.279286,0.54150206,0.94047457,-0.012385906,0.98230624,0.6834998,0.36458647
1747679505.2798066,0.54150206,0.94047457,-0.012385906,0.98230624,0.6834998,0.36458647
1747679505.2803304,0.54150206,0.94047457,-0.012385906,0.64142185,0.73676294,0.15899059
1747679505.280852,0.54150206,0.94047457,-0.012385906,0.64142185,0.73676294,0.15899059
1747679505.2813728,0.54150206,0.94047457,-0.012385906,0.64142185,0.73676294,0.15899059
1747679505.2818985,0.5834798,0.96732086,-0.20470302,0.64142185,0.73676294,0.15899059
1747679505.2824526,0.5834798,0.96732086,-0.20470302,0.64142185,0.73676294,0.15899059
1747679505.28301,0.5834798,0.96732086,-0.20470302,0.64142185,0.73676294,0.15899059
1747679505.2835486,0.5834798,0.96732086,-0.20470302,0.64142185,0.73676294,0.15899059
1747679505.2840853,0.5834798,0.96732086,-0.20470302,0.64142185,0.73676294,0.15899059
1747679505.2846124,0.5834798,0.96732086,-0.20470302,0.64142185,0.73676294,0.15899059
1747679505.2851799,0.5834798,0.96732086,-0.20470302,0.64142185,0.73676294,0.15899059
1747679505.2857385,0.5834798,0.96732086,-0.20470302,0.64142185,0.73676294,0.15899059
1747679505.2862773,0.5834798,0.96732086,-0.20470302,0.64142185,0.73676294,0.15899059
1747679505.2868094,0.5834798,0.96732086,-0.20470302,0.64142185,0.73676294,0.15899059
1747679505.2873466,0.5834798,0.96732086,-0.20470302,0.64142185,0.73676294,0.15899059
1747679505.2883658,0.5834798,0.96732086,-0.20470302,0.64142185,0.73676294,0.15899059
1747679505.2889,0.5834798,0.96732086,-0.20470302,0.64142185,0.73676294,0.15899059
1747679505.2894218,0.5834798,0.96732086,-0.20470302,0.64142185,0.73676294,0.15899059
1747679505.2899406,0.5834798,0.96732086,-0.20470302,0.64142185,0.73676294,0.15899059
1747679505.290459,0.5834798,0.96732086,-0.20470302,0.64142185,0.73676294,0.15899059
1747679505.2909772,0.5834798,0.96732086,-0.20470302,0.64142185,0.73676294,0.15899059
1747679505.2914956,0.5834798,0.96732086,-0.20470302,0.64142185,0.73676294,0.15899059
1747679505.2920141,0.5834798,0.96732086,-0.20470302,0.64142185,0.73676294,0.15899059
1747679505.2925322,0.5834798,0.96732086,-0.20470302,0.64142185,0.73676294,0.15899059
1747679505.293053,0.588361,0.95316553,-0.2647411,0.64142185,0.73676294,0.15899059
1747679505.2936504,0.588361,0.95316553,-0.2647411,0.64142185,0.73676294,0.15899059
1747679505.2941933,0.588361,0.95316553,-0.2647411,0.64142185,0.73676294,0.15899059
1747679505.2947192,0.588361,0.95316553,-0.2647411,0.2941459,0.918923,-0.0018642114
1747679505.2952383,0.588361,0.95316553,-0.2647411,0.2941459,0.918923,-0.0018642114
1747679505.2957563,0.588361,0.95316553,-0.2647411,0.2941459,0.918923,-0.0018642114
1747679505.2962742,0.588361,0.95316553,-0.2647411,0.2941459,0.918923,-0.0018642114
1747679505.2967923,0.588361,0.95316553,-0.2647411,0.2941459,0.918923,-0.0018642114
1747679505.2973132,0.588361,0.95316553,-0.2647411,0.2941459,0.918923,-0.0018642114
1747679505.2978656,0.588361,0.95316553,-0.2647411,0.2941459,0.918923,-0.0018642114
1747679505.2984166,0.588361,0.95316553,-0.2647411,0.2941459,0.918923,-0.0018642114
1747679505.2989497,0.588361,0.95316553,-0.2647411,0.2941459,0.918923,-0.0018642114
1747679505.2994697,0.588361,0.95316553,-0.2647411,0.2941459,0.918923,-0.0018642114
1747679505.2999883,0.588361,0.95316553,-0.2647411,0.2941459,0.918923,-0.0018642114
1747679505.3005445,0.588361,0.95316553,-0.2647411,0.2941459,0.918923,-0.0018642114
1747679505.3010805,0.588361,0.95316553,-0.2647411,0.2941459,0.918923,-0.0018642114
1747679505.3016024,0.588361,0.95316553,-0.2647411,0.2941459,0.918923,-0.0018642114
1747679505.3021212,0.588361,0.95316553,-0.2647411,0.2941459,0.918923,-0.0018642114
1747679505.3026392,0.588361,0.95316553,-0.2647411,0.2941459,0.918923,-0.0018642114
1747679505.3031597,0.588361,0.95316553,-0.2647411,0.2941459,0.918923,-0.0018642114
1747679505.303683,0.588361,0.95316553,-0.2647411,0.2941459,0.918923,-0.0018642114
1747679505.304209,0.588361,0.95316553,-0.2647411,0.2941459,0.918923,-0.0018642114
1747679505.304731,0.52588236,0.92290246,-0.22227512,-0.1532648,1.2747211,-0.19148114
1747679505.30525,0.52588236,0.92290246,-0.22227512,-0.1532648,1.2747211,-0.19148114
1747679505.3057687,0.52588236,0.92290246,-0.22227512,-0.1532648,1.2747211,-0.19148114
1747679505.3062868,0.52588236,0.92290246,-0.22227512,-0.1532648,1.2747211,-0.19148114
1747679505.3068051,0.52588236,0.92290246,-0.22227512,-0.1532648,1.2747211,-0.19148114
1747679505.3073237,0.52588236,0.92290246,-0.22227512,-0.1532648,1.2747211,-0.19148114
1747679505.3078418,0.52588236,0.92290246,-0.22227512,-0.1532648,1.2747211,-0.19148114
1747679505.30836,0.52588236,0.92290246,-0.22227512,-0.1532648,1.2747211,-0.19148114
1747679505.3088782,0.52588236,0.92290246,-0.22227512,-0.1532648,1.2747211,-0.19148114
1747679505.3093965,0.52588236,0.92290246,-0.22227512,-0.1532648,1.2747211,-0.19148114
1747679505.3099146,0.52588236,0.92290246,-0.22227512,-0.1532648,1.2747211,-0.19148114
1747679505.3104324,0.52588236,0.92290246,-0.22227512,-0.1532648,1.2747211,-0.19148114
1747679505.3109508,0.52588236,0.92290246,-0.22227512,-0.1532648,1.2747211,-0.19148114
1747679505.3114688,0.52588236,0.92290246,-0.22227512,-0.1532648,1.2747211,-0.19148114
1747679505.311989,0.52588236,0.92290246,-0.22227512,-0.1532648,1.2747211,-0.19148114
1747679505.3125098,0.52588236,0.92290246,-0.22227512,-0.1532648,1.2747211,-0.19148114
1747679505.313031,0.3423513,0.9307123,-0.042649005,-0.5282376,1.694435,-0.29587698
1747679505.3135736,0.3423513,0.9307123,-0.042649005,-0.5282376,1.694435,-0.29587698
1747679505.3141143,0.3423513,0.9307123,-0.042649005,-0.5282376,1.694435,-0.29587698
1747679505.3146484,0.3423513,0.9307123,-0.042649005,-0.5282376,1.694435,-0.29587698
1747679505.3151743,0.3423513,0.9307123,-0.042649005,-0.5282376,1.694435,-0.29587698
1747679505.3157783,0.3423513,0.9307123,-0.042649005,-0.5282376,1.694435,-0.29587698
1747679505.316335,0.3423513,0.9307123,-0.042649005,-0.5282376,1.694435,-0.29587698
1747679505.3168712,0.3423513,0.9307123,-0.042649005,-0.5282376,1.694435,-0.29587698
1747679505.3174112,0.3423513,0.9307123,-0.042649005,-0.5282376,1.694435,-0.29587698
1747679505.3179502,0.3423513,0.9307123,-0.042649005,-0.5282376,1.694435,-0.29587698
1747679505.3185143,0.3423513,0.9307123,-0.042649005,-0.5282376,1.694435,-0.29587698
1747679505.3190353,0.3423513,0.9307123,-0.042649005,-0.5282376,1.694435,-0.29587698
1747679505.3195546,0.3423513,0.9307123,-0.042649005,-0.5282376,1.694435,-0.29587698
1747679505.3200734,0.3423513,0.9307123,-0.042649005,-0.5282376,1.694435,-0.29587698
1747679505.3205924,0.3423513,0.9307123,-0.042649005,-0.5282376,1.694435,-0.29587698
1747679505.3211105,0.3423513,0.9307123,-0.042649005,-0.5282376,1.694435,-0.29587698
1747679505.3216295,0.3423513,0.9307123,-0.042649005,-0.7008103,1.993774,-0.2543317
1747679505.322148,0.2105604,0.9453557,0.15454924,-0.7008103,1.993774,-0.2543317
1747679505.3226664,0.2105604,0.9453557,0.15454924,-0.7008103,1.993774,-0.2543317
1747679505.3231847,0.2105604,0.9453557,0.15454924,-0.7008103,1.993774,-0.2543317
1747679505.3237026,0.2105604,0.9453557,0.15454924,-0.7008103,1.993774,-0.2543317
1747679505.3242233,0.2105604,0.9453557,0.15454924,-0.7008103,1.993774,-0.2543317
1747679505.324755,0.2105604,0.9453557,0.15454924,-0.7008103,1.993774,-0.2543317
1747679505.3252811,0.2105604,0.9453557,0.15454924,-0.7008103,1.993774,-0.2543317
1747679505.3257997,0.2105604,0.9453557,0.15454924,-0.7008103,1.993774,-0.2543317
1747679505.326318,0.2105604,0.9453557,0.15454924,-0.7008103,1.993774,-0.2543317
1747679505.326836,0.2105604,0.9453557,0.15454924,-0.7008103,1.993774,-0.2543317
1747679505.3273544,0.2105604,0.9453557,0.15454924,-0.7008103,1.993774,-0.2543317
1747679505.3278725,0.2105604,0.9453557,0.15454924,-0.7008103,1.993774,-0.2543317
1747679505.3283906,0.2105604,0.9453557,0.15454924,-0.7008103,1.993774,-0.2543317
1747679505.3289118,0.2105604,0.9453557,0.15454924,-0.7008103,1.993774,-0.2543317
1747679505.329455,0.2105604,0.9453557,0.15454924,-0.7008103,1.993774,-0.2543317
1747679505.3300066,0.116842404,0.9746426,0.37224832,-0.5687176,2.0971045,-0.043409493
1747679505.3305316,0.116842404,0.9746426,0.37224832,-0.5687176,2.0971045,-0.043409493
1747679505.3310783,0.116842404,0.9746426,0.37224832,-0.5687176,2.0971045,-0.043409493
1747679505.33163,0.116842404,0.9746426,0.37224832,-0.5687176,2.0971045,-0.043409493
1747679505.3321545,0.116842404,0.9746426,0.37224832,-0.5687176,2.0971045,-0.043409493
1747679505.3326735,0.116842404,0.9746426,0.37224832,-0.5687176,2.0971045,-0.043409493
1747679505.333192,0.116842404,0.9746426,0.37224832,-0.5687176,2.0971045,-0.043409493
1747679505.333713,0.116842404,0.9746426,0.37224832,-0.5687176,2.0971045,-0.043409493
1747679505.334237,0.116842404,0.9746426,0.37224832,-0.5687176,2.0971045,-0.043409493
1747679505.3347576,0.116842404,0.9746426,0.37224832,-0.5687176,2.0971045,-0.043409493
1747679505.3352764,0.116842404,0.9746426,0.37224832,-0.5687176,2.0971045,-0.043409493
1747679505.3357947,0.116842404,0.9746426,0.37224832,-0.5687176,2.0971045,-0.043409493
1747679505.336313,0.116842404,0.9746426,0.37224832,-0.5687176,2.0971045,-0.043409493
1747679505.336831,0.116842404,0.9746426,0.37224832,-0.5687176,2.0971045,-0.043409493
1747679505.3373494,0.116842404,0.9746426,0.37224832,-0.5687176,2.0971045,-0.043409493
1747679505.3378675,0.116842404,0.9746426,0.37224832,-0.5687176,2.0971045,-0.043409493
1747679505.338386,0.116842404,0.9746426,0.37224832,-0.5687176,2.0971045,-0.043409493
1747679505.3389049,0.116842404,0.9746426,0.37224832,-0.5687176,2.0971045,-0.043409493
1747679505.3394237,0.13880756,0.9653684,0.49720562,-0.32157648,2.034254,0.11318426
1747679505.3399422,0.13880756,0.9653684,0.49720562,-0.32157648,2.034254,0.11318426
1747679505.3404608,0.13880756,0.9653684,0.49720562,-0.32157648,2.034254,0.11318426
1747679505.340979,0.13880756,0.9653684,0.49720562,-0.32157648,2.034254,0.11318426
1747679505.3414974,0.13880756,0.9653684,0.49720562,-0.32157648,2.034254,0.11318426
1747679505.3420153,0.13880756,0.9653684,0.49720562,-0.32157648,2.034254,0.11318426
1747679505.3425333,0.13880756,0.9653684,0.49720562,-0.32157648,2.034254,0.11318426
1747679505.3430514,0.13880756,0.9653684,0.49720562,-0.32157648,2.034254,0.11318426
1747679505.3435729,0.13880756,0.9653684,0.49720562,-0.32157648,2.034254,0.11318426
1747679505.3440933,0.13880756,0.9653684,0.49720562,-0.32157648,2.034254,0.11318426
1747679505.344619,0.13880756,0.9653684,0.49720562,-0.32157648,2.034254,0.11318426
1747679505.3451865,0.13880756,0.9653684,0.49720562,-0.32157648,2.034254,0.11318426
1747679505.3457258,0.13880756,0.9653684,0.49720562,-0.32157648,2.034254,0.11318426
1747679505.3462722,0.13880756,0.9653684,0.49720562,-0.32157648,2.034254,0.11318426
1747679505.34683,0.13880756,0.9653684,0.49720562,-0.32157648,2.034254,0.11318426
1747679505.3473673,0.13880756,0.9653684,0.49720562,-0.32157648,2.034254,0.11318426
1747679505.3479016,0.13880756,0.9653684,0.49720562,-0.32157648,2.034254,0.11318426
1747679505.348435,0.13880756,0.9653684,0.49720562,-0.32157648,2.034254,0.11318426
1747679505.3489552,0.13880756,0.9653684,0.49720562,-0.32157648,2.034254,0.11318426
1747679505.3494818,0.21592964,0.9409627,0.48402655,-0.32157648,2.034254,0.11318426
1747679505.350004,0.21592964,0.9409627,0.48402655,-0.32157648,2.034254,0.11318426
1747679505.3505235,0.21592964,0.9409627,0.48402655,0.12583427,1.8233318,0.29108328
1747679505.351042,0.21592964,0.9409627,0.48402655,0.12583427,1.8233318,0.29108328
1747679505.3515604,0.21592964,0.9409627,0.48402655,0.12583427,1.8233318,0.29108328
1747679505.3520787,0.21592964,0.9409627,0.48402655,0.12583427,1.8233318,0.29108328
1747679505.352597,0.21592964,0.9409627,0.48402655,0.12583427,1.8233318,0.29108328
1747679505.3531148,0.21592964,0.9409627,0.48402655,0.12583427,1.8233318,0.29108328
1747679505.353633,0.21592964,0.9409627,0.48402655,0.12583427,1.8233318,0.29108328
1747679505.3541539,0.21592964,0.9409627,0.48402655,0.12583427,1.8233318,0.29108328
1747679505.3546858,0.21592964,0.9409627,0.48402655,0.12583427,1.8233318,0.29108328
1747679505.3552115,0.21592964,0.9409627,0.48402655,0.12583427,1.8233318,0.29108328
1747679505.3557305,0.21592964,0.9409627,0.48402655,0.12583427,1.8233318,0.29108328
1747679505.356249,0.21592964,0.9409627,0.48402655,0.12583427,1.8233318,0.29108328
1747679505.3567672,0.21592964,0.9409627,0.48402655,0.12583427,1.8233318,0.29108328
1747679505.3572857,0.21592964,0.9409627,0.48402655,0.12583427,1.8233318,0.29108328
1747679505.357804,0.21592964,0.9409627,0.48402655,0.12583427,1.8233318,0.29108328
1747679505.3583221,0.21592964,0.9409627,0.48402655,0.12583427,1.8233318,0.29108328
1747679505.3588681,0.21592964,0.9409627,0.48402655,0.12583427,1.8233318,0.29108328
1747679505.3594081,0.328196,0.9482844,0.3717602,0.12583427,1.8233318,0.29108328
1747679505.3599434,0.328196,0.9482844,0.3717602,0.12583427,1.8233318,0.29108328
1747679505.360478,0.328196,0.9482844,0.3717602,0.12583427,1.8233318,0.29108328
1747679505.361022,0.328196,0.9482844,0.3717602,0.12583427,1.8233318,0.29108328
1747679505.361591,0.328196,0.9482844,0.3717602,0.12583427,1.8233318,0.29108328
1747679505.3621376,0.328196,0.9482844,0.3717602,0.4475439,1.5431676,0.3518033
1747679505.362662,0.328196,0.9482844,0.3717602,0.4475439,1.5431676,0.3518033
1747679505.3631835,0.328196,0.9482844,0.3717602,0.4475439,1.5431676,0.3518033
1747679505.3637028,0.328196,0.9482844,0.3717602,0.4475439,1.5431676,0.3518033
1747679505.3642235,0.328196,0.9482844,0.3717602,0.4475439,1.5431676,0.3518033
1747679505.3647468,0.328196,0.9482844,0.3717602,0.4475439,1.5431676,0.3518033
1747679505.3652673,0.328196,0.9482844,0.3717602,0.4475439,1.5431676,0.3518033
1747679505.3657858,0.328196,0.9482844,0.3717602,0.4475439,1.5431676,0.3518033
1747679505.366304,0.328196,0.9482844,0.3717602,0.4475439,1.5431676,0.3518033
1747679505.3668225,0.328196,0.9482844,0.3717602,0.4475439,1.5431676,0.3518033
1747679505.3673406,0.328196,0.9482844,0.3717602,0.4475439,1.5431676,0.3518033
1747679505.367859,0.328196,0.9482844,0.3717602,0.4475439,1.5431676,0.3518033
1747679505.368377,0.328196,0.9482844,0.3717602,0.4475439,1.5431676,0.3518033
1747679505.3688953,0.328196,0.9482844,0.3717602,0.4475439,1.5431676,0.3518033
1747679505.3694134,0.328196,0.9482844,0.3717602,0.4475439,1.5431676,0.3518033
1747679505.3699315,0.328196,0.9482844,0.3717602,0.4475439,1.5431676,0.3518033
1747679505.3704498,0.328196,0.9482844,0.3717602,0.4475439,1.5431676,0.3518033
1747679505.3709679,0.328196,0.9482844,0.3717602,0.4475439,1.5431676,0.3518033
1747679505.3714857,0.328196,0.9482844,0.3717602,0.4475439,1.5431676,0.3518033
1747679505.372004,0.328196,0.9482844,0.3717602,0.4475439,1.5431676,0.3518033
1747679505.3725224,0.328196,0.9482844,0.3717602,0.4475439,1.5431676,0.3518033
1747679505.3730433,0.328196,0.9482844,0.3717602,0.4475439,1.5431676,0.3518033
1747679505.3735669,0.328196,0.9482844,0.3717602,0.4475439,1.5431676,0.3518033
1747679505.3740945,0.328196,0.9482844,0.3717602,0.4475439,1.5431676,0.3518033
1747679505.374617,0.328196,0.9482844,0.3717602,0.4475439,1.5431676,0.3518033
1747679505.375143,0.37651932,0.96732086,0.2975668,0.4475439,1.5431676,0.3518033
1747679505.3756652,0.37651932,0.96732086,0.2975668,0.4475439,1.5431676,0.3518033
1747679505.3761885,0.37651932,0.96732086,0.2975668,0.4475439,1.5431676,0.3518033
1747679505.3767664,0.37651932,0.96732086,0.2975668,0.4475439,1.5431676,0.3518033
1747679505.3773613,0.37651932,0.96732086,0.2975668,0.4475439,1.5431676,0.3518033
1747679505.377894,0.37651932,0.96732086,0.2975668,0.4475439,1.5431676,0.3518033
1747679505.37843,0.37651932,0.96732086,0.2975668,0.4475439,1.5431676,0.3518033
1747679505.3789659,0.37651932,0.96732086,0.2975668,0.4475439,1.5431676,0.3518033
1747679505.3794875,0.37651932,0.96732086,0.2975668,0.4475439,1.5431676,0.3518033
1747679505.3800092,0.37651932,0.96732086,0.2975668,0.4475439,1.5431676,0.3518033
1747679505.3805306,0.37651932,0.96732086,0.2975668,0.4475439,1.5431676,0.3518033
1747679505.3810515,0.37651932,0.96732086,0.2975668,0.4475439,1.5431676,0.3518033
1747679505.3815722,0.37651932,0.96732086,0.2975668,0.4475439,1.5431676,0.3518033
1747679505.3820934,0.37651932,0.96732086,0.2975668,0.4475439,1.5431676,0.3518033
1747679505.3826187,0.37651932,0.96732086,0.2975668,0.4475439,1.5431676,0.3518033
1747679505.3831425,0.43314058,0.99856025,0.11061895,0.4475439,1.5431676,0.3518033
1747679505.3836675,0.43314058,0.99856025,0.11061895,0.7074682,0.939163,0.28362644
1747679505.3842034,0.43314058,0.99856025,0.11061895,0.7074682,0.939163,0.28362644
1747679505.3847303,0.43314058,0.99856025,0.11061895,0.7074682,0.939163,0.28362644
1747679505.385252,0.43314058,0.99856025,0.11061895,0.7074682,0.939163,0.28362644
1747679505.3857734,0.43314058,0.99856025,0.11061895,0.7074682,0.939163,0.28362644
1747679505.3862941,0.43314058,0.99856025,0.11061895,0.7074682,0.939163,0.28362644
1747679505.386815,0.43314058,0.99856025,0.11061895,0.7074682,0.939163,0.28362644
1747679505.3873363,0.43314058,0.99856025,0.11061895,0.7074682,0.939163,0.28362644
1747679505.38786,0.43314058,0.99856025,0.11061895,0.7074682,0.939163,0.28362644
1747679505.388399,0.43314058,0.99856025,0.11061895,0.7074682,0.939163,0.28362644
1747679505.3889492,0.43314058,0.99856025,0.11061895,0.7074682,0.939163,0.28362644
1747679505.3894696,0.43314058,0.99856025,0.11061895,0.7074682,0.939163,0.28362644
1747679505.3899882,0.43314058,0.99856025,0.11061895,0.7074682,0.939163,0.28362644
1747679505.3905065,0.43314058,0.99856025,0.11061895,0.7074682,0.939163,0.28362644
1747679505.3910275,0.47609466,1.0136918,-0.0831625,0.7074682,0.939163,0.28362644
1747679505.3915718,0.47609466,1.0136918,-0.0831625,0.7074682,0.939163,0.28362644
1747679505.392114,0.47609466,1.0136918,-0.0831625,0.7074682,0.939163,0.28362644
1747679505.3926387,0.47609466,1.0136918,-0.0831625,0.7074682,0.939163,0.28362644
1747679505.3931575,0.47609466,1.0136918,-0.0831625,0.7074682,0.939163,0.28362644
1747679505.3936763,0.47609466,1.0136918,-0.0831625,0.54341763,0.7910914,0.19947061
1747679505.394198,0.47609466,1.0136918,-0.0831625,0.54341763,0.7910914,0.19947061
1747679505.3947294,0.47609466,1.0136918,-0.0831625,0.54341763,0.7910914,0.19947061
1747679505.3952556,0.47609466,1.0136918,-0.0831625,0.54341763,0.7910914,0.19947061
1747679505.3957744,0.47609466,1.0136918,-0.0831625,0.54341763,0.7910914,0.19947061
1747679505.3962932,0.47609466,1.0136918,-0.0831625,0.54341763,0.7910914,0.19947061
1747679505.3968115,0.47609466,1.0136918,-0.0831625,0.54341763,0.7910914,0.19947061
1747679505.3973296,0.47609466,1.0136918,-0.0831625,0.54341763,0.7910914,0.19947061
1747679505.397848,0.47609466,1.0136918,-0.0831625,0.54341763,0.7910914,0.19947061
1747679505.398366,0.47609466,1.0136918,-0.0831625,0.54341763,0.7910914,0.19947061
1747679505.3988838,0.47609466,1.0136918,-0.0831625,0.54341763,0.7910914,0.19947061
1747679505.399402,0.47609466,1.0136918,-0.0831625,0.54341763,0.7910914,0.19947061
1747679505.399978,0.47609466,1.0136918,-0.0831625,0.54341763,0.7910914,0.19947061
1747679505.4004965,0.47609466,1.0136918,-0.0831625,0.54341763,0.7910914,0.19947061
1747679505.4010148,0.47609466,1.0136918,-0.0831625,0.54341763,0.7910914,0.19947061
1747679505.4015326,0.47609466,1.0136918,-0.0831625,0.54341763,0.7910914,0.19947061
1747679505.4020507,0.47609466,1.0136918,-0.0831625,0.54341763,0.7910914,0.19947061
1747679505.4025693,0.47609466,1.0136918,-0.0831625,0.073636346,0.9562073,0.078030564
1747679505.4030874,0.47609466,1.0136918,-0.0831625,0.073636346,0.9562073,0.078030564
1747679505.4036083,0.47609466,1.0136918,-0.0831625,0.073636346,0.9562073,0.078030564
1747679505.4041324,0.52929914,0.9966078,-0.18810712,0.073636346,0.9562073,0.078030564
1747679505.404653,0.52929914,0.9966078,-0.18810712,0.073636346,0.9562073,0.078030564
1747679505.4051719,0.52929914,0.9966078,-0.18810712,0.073636346,0.9562073,0.078030564
1747679505.4056902,0.52929914,0.9966078,-0.18810712,0.073636346,0.9562073,0.078030564
1747679505.406209,0.52929914,0.9966078,-0.18810712,0.073636346,0.9562073,0.078030564
1747679505.40673,0.52929914,0.9966078,-0.18810712,0.073636346,0.9562073,0.078030564
1747679505.4073856,0.52929914,0.9966078,-0.18810712,0.073636346,0.9562073,0.078030564
1747679505.4079561,0.52929914,0.9966078,-0.18810712,0.073636346,0.9562073,0.078030564
