timestamp,acc_x,acc_y,acc_z,gyro_x,gyro_y,gyro_z
1747672198.1526122,0.29061118,0.5953776,0.48402655,-0.9928257,-1.20215,-0.31917962
1747672198.1535487,0.29061118,0.5953776,0.48402655,-0.9928257,-1.20215,-0.31917962
1747672198.1542816,0.29061118,0.5953776,0.48402655,-0.9928257,-1.20215,-0.31917962
1747672198.1550045,0.29061118,0.5953776,0.48402655,-0.9928257,-1.20215,-0.31917962
1747672198.155743,0.29061118,0.5953776,0.48402655,-0.9928257,-1.20215,-0.31917962
1747672198.1564572,0.29061118,0.5953776,0.48402655,-0.9928257,-1.20215,-0.31917962
1747672198.157171,0.29061118,0.5953776,0.48402655,-0.9928257,-1.20215,-0.31917962
1747672198.158783,0.29061118,0.5953776,0.48402655,-0.9928257,-1.20215,-0.31917962
1747672198.159547,0.29061118,0.5953776,0.48402655,-0.9928257,-1.20215,-0.31917962
1747672198.1602657,0.29061118,0.5953776,0.48402655,-0.9928257,-1.20215,-0.31917962
1747672198.1613646,0.29061118,0.5953776,0.48402655,-0.9928257,-1.20215,-0.31917962
1747672198.162468,0.54491884,0.6544395,0.6641408,-0.9928257,-1.20215,-0.31917962
1747672198.163189,0.54491884,0.6544395,0.6641408,-1.1504847,-1.2543479,-0.14447638
1747672198.1639035,0.54491884,0.6544395,0.6641408,-1.1504847,-1.2543479,-0.14447638
1747672198.1646345,0.54491884,0.6544395,0.6641408,-1.1504847,-1.2543479,-0.14447638
1747672198.1662462,0.54491884,0.6544395,0.6641408,-1.1504847,-1.2543479,-0.14447638
1747672198.1669645,0.54491884,0.6544395,0.6641408,-1.1504847,-1.2543479,-0.14447638
1747672198.1676764,0.54491884,0.6544395,0.6641408,-1.1504847,-1.2543479,-0.14447638
1747672198.1683877,0.54491884,0.6544395,0.6641408,-1.1504847,-1.2543479,-0.14447638
1747672198.1690996,0.54491884,0.6544395,0.6641408,-1.1504847,-1.2543479,-0.14447638
1747672198.1696167,0.54491884,0.6544395,0.6641408,-1.1504847,-1.2543479,-0.14447638
1747672198.170332,0.54491884,0.6544395,0.6641408,-1.1504847,-1.2543479,-0.14447638
1747672198.1710453,0.54491884,0.6544395,0.6641408,-1.1504847,-1.2543479,-0.14447638
1747672198.1720526,0.54491884,0.6544395,0.6641408,-1.1504847,-1.2543479,-0.14447638
1747672198.1731,0.54491884,0.6544395,0.6641408,-1.1504847,-1.2543479,-0.14447638
1747672198.1742783,0.942244,0.67982143,0.9086861,-1.1472889,-1.3140028,-0.2573943
1747672198.1753123,0.942244,0.67982143,0.9086861,-1.1472889,-1.3140028,-0.2573943
1747672198.1765413,0.942244,0.67982143,0.9086861,-1.1472889,-1.3140028,-0.2573943
1747672198.177667,0.942244,0.67982143,0.9086861,-1.1472889,-1.3140028,-0.2573943
1747672198.2413404,0.74797446,0.70862025,1.1771492,-0.8351667,-2.4229422,-1.0424936
1747672198.2429867,0.74797446,0.70862025,1.1771492,-0.8351667,-2.4229422,-1.0424936
1747672198.2437606,0.74797446,0.70862025,1.1771492,-0.8351667,-2.4229422,-1.0424936
1747672198.244548,0.74797446,0.70862025,1.1771492,-0.8351667,-2.4229422,-1.0424936
1747672198.245419,0.91881454,0.7505981,1.257688,-0.8351667,-2.4229422,-1.0424936
1747672198.2462478,0.91881454,0.7505981,1.257688,-0.7382277,-2.1683443,-0.7825693
1747672198.246987,0.91881454,0.7505981,1.257688,-0.7382277,-2.1683443,-0.7825693
1747672198.247743,0.91881454,0.7505981,1.257688,-0.7382277,-2.1683443,-0.7825693
1747672198.2484815,0.91881454,0.7505981,1.257688,-0.7382277,-2.1683443,-0.7825693
1747672198.2491963,0.91881454,0.7505981,1.257688,-0.7382277,-2.1683443,-0.7825693
1747672198.2498908,0.91881454,0.7505981,1.257688,-0.7382277,-2.1683443,-0.7825693
1747672198.250583,0.91881454,0.7505981,1.257688,-0.7382277,-2.1683443,-0.7825693
1747672198.251276,0.91881454,0.7505981,1.257688,-0.7382277,-2.1683443,-0.7825693
1747672198.2520802,0.91881454,0.7505981,1.257688,-0.7382277,-2.1683443,-0.7825693
1747672198.253124,0.91881454,0.7505981,1.257688,-0.5773729,-1.9265293,-0.67923874
1747672198.2905078,1.2131475,0.62564075,1.0116783,0.103330575,-2.1992369,-0.9562073
1747672198.29165,1.2131475,0.62564075,1.0116783,0.103330575,-2.1992369,-0.9562073
1747672198.2925272,1.2131475,0.62564075,1.0116783,0.36432016,-2.7691529,-1.358877
1747672198.2932727,1.2824599,0.5451018,0.8340046,0.36432016,-2.7691529,-1.358877
1747672198.2940052,1.2824599,0.5451018,0.8340046,0.36432016,-2.7691529,-1.358877
1747672198.294706,1.2824599,0.5451018,0.8340046,0.36432016,-2.7691529,-1.358877
1747672198.2954252,1.2824599,0.5451018,0.8340046,0.36432016,-2.7691529,-1.358877
1747672198.2961354,1.2824599,0.5451018,0.8340046,0.36432016,-2.7691529,-1.358877
1747672198.2968397,1.2824599,0.5451018,0.8340046,0.36432016,-2.7691529,-1.358877
1747672198.2975957,1.2824599,0.5451018,0.8340046,0.36432016,-2.7691529,-1.358877
1747672198.2983196,1.2824599,0.5451018,0.8340046,0.36432016,-2.7691529,-1.358877
1747672198.2992725,1.2824599,0.5451018,0.8340046,0.36432016,-2.7691529,-1.358877
1747672198.3000467,1.2824599,0.5451018,0.8340046,0.36432016,-2.7691529,-1.358877
1747672198.3347075,0.94810134,0.28347248,0.40348765,0.56458974,-4.2104545,-2.4486415
1747672198.3368738,0.6654831,0.1760873,0.21849224,0.4101265,-4.503402,-2.6861954
1747672198.3376465,0.6654831,0.1760873,0.21849224,0.4101265,-4.503402,-2.6861954
1747672198.3383818,0.6654831,0.1760873,0.21849224,0.4101265,-4.503402,-2.6861954
1747672198.3390799,0.6654831,0.1760873,0.21849224,0.4101265,-4.503402,-2.6861954
1747672198.3397708,0.6654831,0.1760873,0.21849224,0.4101265,-4.503402,-2.6861954
1747672198.3404613,0.6654831,0.1760873,0.21849224,0.4101265,-4.503402,-2.6861954
1747672198.3411527,0.6654831,0.1760873,0.21849224,0.4101265,-4.503402,-2.6861954
1747672198.3418536,0.6654831,0.1760873,0.21849224,0.4101265,-4.503402,-2.6861954
1747672198.342574,0.6654831,0.1760873,0.21849224,0.4101265,-4.503402,-2.6861954
1747672198.3432658,0.6654831,0.1760873,0.21849224,0.4101265,-4.503402,-2.6861954
1747672198.344032,0.6654831,0.1760873,0.21849224,0.4101265,-4.503402,-2.6861954
1747672198.344768,0.6654831,0.1760873,0.21849224,0.4101265,-4.503402,-2.6861954
1747672198.3454797,0.6654831,0.1760873,0.21849224,0.4101265,-4.503402,-2.6861954
1747672198.3463995,0.6654831,0.1760873,0.21849224,0.4101265,-4.503402,-2.6861954
1747672198.3473773,0.4565701,0.10238201,0.040818576,0.1523327,-4.600341,-2.7149575
1747672198.3824868,0.23008497,-0.47164065,-0.349673,-2.18166,-4.27437,-2.0001657
1747672198.38436,0.23008497,-0.47164065,-0.349673,-2.18166,-4.27437,-2.0001657
1747672198.3851366,0.23008497,-0.47164065,-0.349673,-2.18166,-4.27437,-2.0001657
1747672198.38591,0.23008497,-0.47164065,-0.349673,-2.18166,-4.27437,-2.0001657
1747672198.3866267,0.23008497,-0.47164065,-0.349673,-2.18166,-4.27437,-2.0001657
1747672198.3873198,0.23008497,-0.47164065,-0.349673,-2.18166,-4.27437,-2.0001657
1747672198.3880093,0.23008497,-0.47164065,-0.349673,-2.18166,-4.27437,-2.0001657
1747672198.388708,0.23008497,-0.47164065,-0.349673,-2.18166,-4.27437,-2.0001657
1747672198.3894262,0.23008497,-0.47164065,-0.349673,-2.18166,-4.27437,-2.0001657
1747672198.3901162,0.23008497,-0.47164065,-0.349673,-2.18166,-4.27437,-2.0001657
1747672198.3908122,0.23008497,-0.47164065,-0.349673,-2.18166,-4.27437,-2.0001657
1747672198.3915646,0.23008497,-0.47164065,-0.349673,-2.18166,-4.27437,-2.0001657
1747672198.3922865,0.23008497,-0.47164065,-0.349673,-2.18166,-4.27437,-2.0001657
1747672198.3932087,0.23008497,-0.47164065,-0.349673,-2.18166,-4.27437,-2.0001657
1747672198.394001,0.23008497,-0.47164065,-0.349673,-2.18166,-4.27437,-2.0001657
1747672198.428251,0.30915952,-1.1550009,0.26876804,-3.3758204,-2.6200159,-1.6923045
1747672198.4300897,0.30915952,-1.1550009,0.26876804,-3.3758204,-2.6200159,-1.6923045
1747672198.4311354,0.30915952,-1.1550009,0.26876804,-3.3758204,-2.6200159,-1.6923045
1747672198.4318883,0.30915952,-1.1550009,0.26876804,-3.3758204,-2.6200159,-1.6923045
1747672198.4326208,0.30915952,-1.1550009,0.26876804,-3.3758204,-2.6200159,-1.6923045
1747672198.4333324,0.30915952,-1.1550009,0.26876804,-3.3758204,-2.6200159,-1.6923045
1747672198.4340463,0.30915952,-1.1550009,0.26876804,-3.3758204,-2.6200159,-1.6923045
1747672198.434794,0.30915952,-1.1550009,0.26876804,-3.3758204,-2.6200159,-1.6923045
1747672198.4355726,0.30915952,-1.1550009,0.26876804,-3.3758204,-2.6200159,-1.6923045
1747672198.436314,0.30915952,-1.1550009,0.26876804,-3.3758204,-2.6200159,-1.6923045
1747672198.437252,0.30915952,-1.1550009,0.26876804,-3.3758204,-2.6200159,-1.6923045
1747672198.4380245,0.1739518,-1.1881927,0.33612785,-3.2778163,-2.2908494,-1.6124097
1747672198.438758,0.1739518,-1.1881927,0.33612785,-3.2778163,-2.2908494,-1.6124097
1747672198.4395604,0.1739518,-1.1881927,0.33612785,-3.2778163,-2.2908494,-1.6124097
1747672198.4403281,0.1739518,-1.1881927,0.33612785,-3.2778163,-2.2908494,-1.6124097
1747672198.441132,0.1739518,-1.1881927,0.33612785,-3.2778163,-2.2908494,-1.6124097
1747672198.4653897,0.0323986,-1.2496952,0.1530849,-3.0786119,-2.0639484,-1.4334453
1747672198.4663107,0.0323986,-1.2496952,0.1530849,-3.0786119,-2.0639484,-1.4334453
1747672198.4673805,0.058268666,-1.3238885,-0.022148196,-3.0051088,-2.3462431,-1.0733863
1747672198.4681337,0.058268666,-1.3238885,-0.022148196,-3.0051088,-2.3462431,-1.0733863
1747672198.4688635,0.058268666,-1.3238885,-0.022148196,-3.0051088,-2.3462431,-1.0733863
1747672198.469552,0.058268666,-1.3238885,-0.022148196,-3.0051088,-2.3462431,-1.0733863
1747672198.4700875,0.058268666,-1.3238885,-0.022148196,-3.0051088,-2.3462431,-1.0733863
1747672198.47084,0.058268666,-1.3238885,-0.022148196,-3.0051088,-2.3462431,-1.0733863
1747672198.471613,0.058268666,-1.3238885,-0.022148196,-3.0051088,-2.3462431,-1.0733863
1747672198.4965322,0.25205013,-1.6367699,-0.12514035,-3.6996605,-2.7276075,-0.8880304
1747672198.497359,0.25205013,-1.6367699,-0.12514035,-4.1886168,-2.8373296,-0.88909566
1747672198.4981263,0.25205013,-1.6367699,-0.12514035,-4.1886168,-2.8373296,-0.88909566
1747672198.4989407,0.25205013,-1.6367699,-0.12514035,-4.1886168,-2.8373296,-0.88909566
1747672198.4996781,0.25205013,-1.6367699,-0.12514035,-4.1886168,-2.8373296,-0.88909566
1747672198.500397,0.25205013,-1.6367699,-0.12514035,-4.1886168,-2.8373296,-0.88909566
1747672198.5011306,0.28231323,-1.7539175,0.058390696,-4.1886168,-2.8373296,-0.88909566
1747672198.5020788,0.28231323,-1.7539175,0.058390696,-4.1886168,-2.8373296,-0.88909566
1747672198.502898,0.28231323,-1.7539175,0.058390696,-4.1886168,-2.8373296,-0.88909566
1747672198.5289068,0.2310612,-1.8832678,0.30000737,-4.993956,-2.7148244,-0.89335674
1747672198.5299106,0.2310612,-1.8832678,0.30000737,-4.993956,-2.7148244,-0.89335674
1747672198.5307233,0.2310612,-1.8832678,0.30000737,-4.993956,-2.7148244,-0.89335674
1747672198.5315475,0.2310612,-1.8832678,0.30000737,-4.993956,-2.7148244,-0.89335674
1747672198.5323114,-0.028615711,-2.0902283,0.66267645,-5.3305793,-2.2663484,-0.5982787
1747672198.5330524,-0.028615711,-2.0902283,0.66267645,-5.3305793,-2.2663484,-0.5982787
1747672198.5338519,-0.028615711,-2.0902283,0.66267645,-5.3305793,-2.2663484,-0.5982787
1747672198.5346467,-0.028615711,-2.0902283,0.66267645,-5.3305793,-2.2663484,-0.5982787
1747672198.5354288,-0.028615711,-2.0902283,0.66267645,-5.3305793,-2.2663484,-0.5982787
1747672198.561671,-0.20970619,-2.0819304,0.83937395,-5.4317794,-1.8967019,-0.08695214
1747672198.5625577,-0.32636556,-1.9555086,1.0526799,-5.406213,-1.6399734,0.5298355
1747672198.5633433,-0.32636556,-1.9555086,1.0526799,-5.406213,-1.6399734,0.5298355
1747672198.5643387,-0.32636556,-1.9555086,1.0526799,-5.406213,-1.6399734,0.5298355
1747672198.5666723,-0.32636556,-1.9555086,1.0526799,-5.406213,-1.6399734,0.5298355
1747672198.5918138,0.034839172,-1.6611756,1.6013206,-5.2059436,-1.5600786,1.1775157
1747672198.5933287,0.29988533,-1.5459807,1.7472668,-3.9776945,-2.042643,2.0680761
1747672198.5941026,0.5000123,-1.3927127,1.7541004,-3.220292,-2.4495738,2.1873858
1747672198.594879,0.5000123,-1.3927127,1.7541004,-3.220292,-2.4495738,2.1873858
1747672198.5957315,0.5000123,-1.3927127,1.7541004,-3.220292,-2.4495738,2.1873858
1747672198.5964856,0.5000123,-1.3927127,1.7541004,-3.220292,-2.4495738,2.1873858
1747672198.6233566,0.6576733,-1.0607948,1.3352982,-2.1550283,-3.1750183,2.7157564
1747672198.624183,0.6576733,-1.0607948,1.3352982,-2.1550283,-3.1750183,2.7157564
1747672198.6249418,0.8133818,-0.9538978,1.0136307,-2.1550283,-3.1750183,2.7157564
1747672198.6256835,0.8133818,-0.9538978,1.0136307,-2.1550283,-3.1750183,2.7157564
1747672198.653441,1.1492045,-0.8289405,0.8125276,-2.4660854,-2.8426561,2.9895291
1747672198.6547027,1.6246281,-0.7527946,0.7534657,-2.9678245,-2.3483737,3.125883
1747672198.6555755,1.6246281,-0.7527946,0.7534657,-2.9678245,-2.3483737,3.125883
1747672198.6563692,2.4007301,-0.75181836,0.90917426,-2.9678245,-2.3483737,3.125883
1747672198.657133,2.4007301,-0.75181836,0.90917426,-2.9678245,-2.3483737,3.125883
1747672198.6579146,2.4007301,-0.75181836,0.90917426,-2.9678245,-2.3483737,3.125883
1747672198.6587296,2.4007301,-0.75181836,0.90917426,-2.9678245,-2.3483737,3.125883
1747672198.6869514,2.6657763,-0.53216684,2.118234,-4.8458843,0.21571589,0.0046605286
1747672198.6878028,2.6657763,-0.53216684,2.118234,-4.8458843,0.21571589,0.0046605286
1747672198.688623,2.6657763,-0.53216684,2.118234,-4.8458843,0.21571589,0.0046605286
1747672198.6894157,2.6657763,-0.53216684,2.118234,-4.8458843,0.21571589,0.0046605286
1747672198.6902153,2.6657763,-0.53216684,2.118234,-4.8458843,0.21571589,0.0046605286
1747672198.6909523,2.6657763,-0.53216684,2.118234,-4.8458843,0.21571589,0.0046605286
1747672198.691762,2.6657763,-0.53216684,2.118234,-4.8458843,0.21571589,0.0046605286
1747672198.6925547,1.7495854,-0.027456442,2.5824308,-4.8458843,0.21571589,0.0046605286
1747672198.6933358,1.7495854,-0.027456442,2.5824308,-4.8458843,0.21571589,0.0046605286
1747672198.694117,1.7495854,-0.027456442,2.5824308,-4.425105,0.07403582,-0.42890176
1747672198.6948614,1.7495854,-0.027456442,2.5824308,-4.425105,0.07403582,-0.42890176
1747672198.6955986,1.7495854,-0.027456442,2.5824308,-4.425105,0.07403582,-0.42890176
1747672198.6963108,1.7495854,-0.027456442,2.5824308,-4.425105,0.07403582,-0.42890176
1747672198.6970189,1.7495854,-0.027456442,2.5824308,-4.425105,0.07403582,-0.42890176
1747672198.6977274,1.7495854,-0.027456442,2.5824308,-4.425105,0.07403582,-0.42890176
1747672198.6984718,1.7495854,-0.027456442,2.5824308,-4.425105,0.07403582,-0.42890176
1747672198.699261,1.7495854,-0.027456442,2.5824308,-4.425105,0.07403582,-0.42890176
1747672198.700099,1.7495854,-0.027456442,2.5824308,-4.425105,0.07403582,-0.42890176
1747672198.70087,1.7495854,-0.027456442,2.5824308,-4.425105,0.07403582,-0.42890176
1747672198.7016852,1.7495854,-0.027456442,2.5824308,-4.425105,0.07403582,-0.42890176
1747672198.7024257,0.97934073,0.45968184,2.907515,-4.425105,0.07403582,-0.42890176
1747672198.7031367,0.97934073,0.45968184,2.907515,-4.425105,0.07403582,-0.42890176
1747672198.7038534,0.97934073,0.45968184,2.907515,-4.425105,0.07403582,-0.42890176
1747672198.7046194,0.97934073,0.45968184,2.907515,-4.425105,0.07403582,-0.42890176
1747672198.7053993,0.97934073,0.45968184,2.907515,-4.425105,0.07403582,-0.42890176
1747672198.7061675,0.97934073,0.45968184,2.907515,-4.425105,0.07403582,-0.42890176
1747672198.7069476,0.97934073,0.45968184,2.907515,-4.425105,0.07403582,-0.42890176
1747672198.7379525,1.6197469,1.5945481,3.828587,-1.9441061,-2.6509085,1.917874
1747672198.7388775,1.6197469,1.5945481,3.828587,-1.127049,-2.567818,2.1149478
1747672198.7396896,3.7352352,1.7795434,3.815408,-1.127049,-2.567818,2.1149478
1747672198.7405584,3.7352352,1.7795434,3.815408,-1.127049,-2.567818,2.1149478
1747672198.7414076,3.7352352,1.7795434,3.815408,-1.127049,-2.567818,2.1149478
1747672198.7421722,3.7352352,1.7795434,3.815408,-1.127049,-2.567818,2.1149478
1747672198.7428825,3.7352352,1.7795434,3.815408,-1.127049,-2.567818,2.1149478
1747672198.7436004,3.7352352,1.7795434,3.815408,-1.127049,-2.567818,2.1149478
1747672198.7444344,3.7352352,1.7795434,3.815408,-1.127049,-2.567818,2.1149478
1747672198.7452152,5.4792686,1.5969887,3.684105,-0.8937562,-1.7741966,1.4321138
1747672198.745963,5.4792686,1.5969887,3.684105,-0.8937562,-1.7741966,1.4321138
1747672198.7466798,5.4792686,1.5969887,3.684105,-0.8937562,-1.7741966,1.4321138
1747672198.7474468,5.4792686,1.5969887,3.684105,-0.8937562,-1.7741966,1.4321138
1747672198.7482426,5.4792686,1.5969887,3.684105,-0.8937562,-1.7741966,1.4321138
1747672198.7490292,5.4792686,1.5969887,3.684105,-0.8937562,-1.7741966,1.4321138
1747672198.749933,5.4792686,1.5969887,3.684105,-0.8937562,-1.7741966,1.4321138
1747672198.7507265,5.4792686,1.5969887,3.684105,-0.8937562,-1.7741966,1.4321138
1747672198.7514844,5.4792686,1.5969887,3.684105,-0.8937562,-1.7741966,1.4321138
1747672198.7523847,5.4792686,1.5969887,3.684105,-0.8937562,-1.7741966,1.4321138
1747672198.7532384,5.4792686,1.5969887,3.684105,-0.8937562,-1.7741966,1.4321138
1747672198.7540636,5.4792686,1.5969887,3.684105,-0.8937562,-1.7741966,1.4321138
1747672198.7548597,5.4792686,1.5969887,3.684105,-0.8937562,-1.7741966,1.4321138
1747672198.7556279,5.4792686,1.5969887,3.684105,-0.8937562,-1.7741966,1.4321138
1747672198.784812,4.966748,0.56853133,3.249195,-1.1526153,3.3539827,-3.274221
1747672198.7857785,3.0562677,0.5280179,3.4478579,-1.1036131,4.850678,-4.0529284
1747672198.786604,3.0562677,0.5280179,3.4478579,-1.1036131,4.850678,-4.0529284
1747672198.7874193,3.0562677,0.5280179,3.4478579,-1.1036131,4.850678,-4.0529284
1747672198.7881727,1.8169453,0.5358277,3.5855062,-0.5539371,5.5430994,-3.5927348
1747672198.789008,1.8169453,0.5358277,3.5855062,-0.5539371,5.5430994,-3.5927348
1747672198.789785,1.8169453,0.5358277,3.5855062,-0.5539371,5.5430994,-3.5927348
1747672198.7907712,1.8169453,0.5358277,3.5855062,-0.5539371,5.5430994,-3.5927348
1747672198.7916162,1.8169453,0.5358277,3.5855062,-0.5539371,5.5430994,-3.5927348
1747672198.7924356,1.8169453,0.5358277,3.5855062,-0.5539371,5.5430994,-3.5927348
1747672198.7932298,1.8169453,0.5358277,3.5855062,0.30573067,5.295958,-2.425206
1747672198.7939897,1.8169453,0.5358277,3.5855062,0.30573067,5.295958,-2.425206
1747672198.7947507,1.8389103,0.35913023,3.5913634,0.30573067,5.295958,-2.425206
1747672198.7954957,1.8389103,0.35913023,3.5913634,0.30573067,5.295958,-2.425206
1747672198.7962472,1.8389103,0.35913023,3.5913634,0.30573067,5.295958,-2.425206
1747672198.7970068,1.8389103,0.35913023,3.5913634,0.30573067,5.295958,-2.425206
1747672198.797739,1.8389103,0.35913023,3.5913634,0.30573067,5.295958,-2.425206
1747672198.7985086,1.8389103,0.35913023,3.5913634,0.30573067,5.295958,-2.425206
1747672198.799288,1.8389103,0.35913023,3.5913634,0.30573067,5.295958,-2.425206
1747672198.8461046,4.9521046,-0.19634406,3.231135,2.658898,3.9452038,-2.2409153
1747672198.8901737,3.6293144,-2.166374,3.3199718,2.9124308,6.39318,-4.689956
1747672198.8909552,3.6293144,-2.166374,3.3199718,2.9124308,6.39318,-4.689956
1747672198.896831,3.6293144,-2.166374,3.3199718,2.9124308,6.39318,-4.689956
1747672198.9149444,3.3364456,-2.3904188,3.3702476,3.6559849,6.1694746,-4.418314
1747672198.9178994,2.8922613,-2.178089,2.770843,5.0333705,5.012598,-3.8420064
1747672198.9189155,2.8922613,-2.178089,2.770843,5.0333705,5.012598,-3.8420064
1747672198.9197242,2.8922613,-2.178089,2.770843,5.0333705,5.012598,-3.8420064
1747672198.920697,2.8922613,-2.178089,2.770843,5.0333705,5.012598,-3.8420064
1747672198.922265,2.8922613,-2.178089,2.770843,5.0333705,5.012598,-3.8420064
1747672198.9240913,2.8922613,-2.178089,2.770843,5.0333705,5.012598,-3.8420064
1747672198.924562,2.8922613,-2.178089,2.770843,5.0333705,5.012598,-3.8420064
1747672198.9255629,2.8024483,-1.9530681,2.328123,5.3849077,4.664257,-3.7141747
1747672198.9265773,2.8024483,-1.9530681,2.328123,5.3849077,4.664257,-3.7141747
1747672198.9275875,2.8024483,-1.9530681,2.328123,5.3849077,4.664257,-3.7141747
1747672198.92858,2.8024483,-1.9530681,2.328123,5.3849077,4.664257,-3.7141747
1747672198.9295695,2.8024483,-1.9530681,2.328123,5.3849077,4.664257,-3.7141747
1747672198.930569,2.8024483,-1.9530681,2.328123,5.3849077,4.664257,-3.7141747
1747672198.9315748,2.8024483,-1.9530681,2.328123,5.3849077,4.664257,-3.7141747
1747672198.9325752,2.8024483,-1.9530681,2.328123,5.3849077,4.664257,-3.7141747
1747672198.9335678,2.6862772,-1.816396,1.8434254,5.4797163,4.645082,-3.7141747
1747672198.934563,2.6862772,-1.816396,1.8434254,5.4797163,4.645082,-3.7141747
1747672198.9355657,2.6862772,-1.816396,1.8434254,5.4797163,4.645082,-3.7141747
1747672198.9365501,2.6862772,-1.816396,1.8434254,5.4797163,4.645082,-3.7141747
1747672198.9375606,2.6862772,-1.816396,1.8434254,5.4797163,4.645082,-3.7141747
1747672198.9385643,2.6862772,-1.816396,1.8434254,5.4797163,4.645082,-3.7141747
1747672198.939568,2.6862772,-1.816396,1.8434254,5.4797163,4.645082,-3.7141747
1747672198.9405775,2.6862772,-1.816396,1.8434254,5.4797163,4.645082,-3.7141747
1747672198.9413526,2.6862772,-1.816396,1.8434254,5.4797163,4.645082,-3.7141747
1747672198.9420586,2.6862772,-1.816396,1.8434254,5.4797163,4.645082,-3.7141747
1747672198.944025,2.6862772,-1.816396,1.8434254,5.4797163,4.645082,-3.7141747
1747672198.9754891,2.2015793,-1.7548937,1.0624422,5.0770464,4.8592,-3.8143096
1747672198.9795604,1.8062066,-1.8251821,0.8545055,4.499674,5.475988,-3.7685032
1747672198.9803574,1.8062066,-1.8251821,0.8545055,4.499674,5.475988,-3.7685032
1747672198.9811108,1.8062066,-1.8251821,0.8545055,4.499674,5.475988,-3.7685032
1747672198.9818916,1.8062066,-1.8251821,0.8545055,4.499674,5.475988,-3.7685032
1747672198.9829125,1.8062066,-1.8251821,0.8545055,4.499674,5.475988,-3.7685032
1747672198.983622,1.8062066,-1.8251821,0.8545055,4.499674,5.475988,-3.7685032
1747672198.9843423,1.8062066,-1.8251821,0.8545055,4.499674,5.475988,-3.7685032
1747672198.9857872,1.8062066,-1.8251821,0.8545055,4.499674,5.475988,-3.7685032
1747672198.987434,1.5489703,-1.9506274,0.8837923,4.376103,5.7167373,-3.658781
1747672198.9882863,1.5489703,-1.9506274,0.8837923,4.376103,5.7167373,-3.658781
1747672198.9892998,1.5489703,-1.9506274,0.8837923,4.376103,5.7167373,-3.658781
1747672198.992336,1.5489703,-1.9506274,0.8837923,4.376103,5.7167373,-3.658781
1747672198.9928725,1.5489703,-1.9506274,0.8837923,4.376103,5.7167373,-3.658781
1747672198.9937956,1.5489703,-1.9506274,0.8837923,4.376103,5.7167373,-3.658781
1747672198.9949203,1.5489703,-1.9506274,0.8837923,4.376103,5.7167373,-3.658781
1747672199.0011554,1.3337119,-1.9867481,0.91015047,4.4176483,5.6325817,-3.4712946
1747672199.0021324,1.3337119,-1.9867481,0.91015047,4.4176483,5.6325817,-3.4712946
1747672199.0032918,1.3337119,-1.9867481,0.91015047,4.4176483,5.6325817,-3.4712946
1747672199.005151,1.3337119,-1.9867481,0.91015047,4.4176483,5.6325817,-3.4712946
1747672199.0085642,1.3337119,-1.9867481,0.91015047,4.4176483,5.6325817,-3.4712946
1747672199.0094788,1.1775153,-2.1746721,0.9706767,4.591286,5.213933,-3.152781
1747672199.01025,1.1775153,-2.1746721,0.9706767,4.591286,5.213933,-3.152781
1747672199.0110383,1.1775153,-2.1746721,0.9706767,4.591286,5.213933,-3.152781
1747672199.0118282,1.1775153,-2.1746721,0.9706767,4.591286,5.213933,-3.152781
1747672199.0127237,1.1775153,-2.1746721,0.9706767,4.591286,5.213933,-3.152781
1747672199.0131583,1.1775153,-2.1746721,0.9706767,4.591286,5.213933,-3.152781
1747672199.013944,1.1775153,-2.1746721,0.9706767,4.591286,5.213933,-3.152781
1747672199.014825,1.15555,-2.2332458,0.9648193,4.74788,4.8325686,-2.7905912
1747672199.0164428,1.15555,-2.2332458,0.9648193,4.74788,4.8325686,-2.7905912
1747672199.01726,1.15555,-2.2332458,0.9648193,4.74788,4.8325686,-2.7905912
1747672199.018052,1.15555,-2.2332458,0.9648193,4.74788,4.8325686,-2.7905912
1747672199.0188162,1.15555,-2.2332458,0.9648193,4.74788,4.8325686,-2.7905912
1747672199.019567,1.15555,-2.2332458,0.9648193,4.74788,4.8325686,-2.7905912
1747672199.0214412,1.15555,-2.2332458,0.9648193,4.74788,4.8325686,-2.7905912
1747672199.0222743,1.2790431,-2.2312934,0.8833042,4.74788,4.8325686,-2.7905912
1747672199.0232656,1.2790431,-2.2312934,0.8833042,4.796882,4.5907536,-2.3836606
1747672199.024292,1.2790431,-2.2312934,0.8833042,4.796882,4.5907536,-2.3836606
1747672199.0252612,1.2790431,-2.2312934,0.8833042,4.796882,4.5907536,-2.3836606
1747672199.026258,1.2790431,-2.2312934,0.8833042,4.796882,4.5907536,-2.3836606
1747672199.0273163,1.2790431,-2.2312934,0.8833042,4.796882,4.5907536,-2.3836606
1747672199.0283053,1.2790431,-2.2312934,0.8833042,4.796882,4.5907536,-2.3836606
1747672199.029261,1.2790431,-2.2312934,0.8833042,4.796882,4.5907536,-2.3836606
1747672199.03026,1.2790431,-2.2312934,0.8833042,4.796882,4.5907536,-2.3836606
1747672199.0312636,1.2790431,-2.2312934,0.8833042,4.796882,4.5907536,-2.3836606
1747672199.0411713,1.4889323,-2.267902,0.7925149,4.796882,4.5907536,-2.3836606
1747672199.0431302,1.4889323,-2.267902,0.7925149,4.796882,4.5907536,-2.3836606
1747672199.0443223,1.8921149,-2.2093284,0.58409,4.441084,4.461857,-1.7093487
1747672199.0453289,1.8921149,-2.2093284,0.58409,4.441084,4.461857,-1.7093487
1747672199.0464346,1.8921149,-2.2093284,0.58409,4.441084,4.461857,-1.7093487
1747672199.047324,1.8921149,-2.2093284,0.58409,4.441084,4.461857,-1.7093487
1747672199.048335,1.8921149,-2.2093284,0.58409,4.441084,4.461857,-1.7093487
1747672199.0493245,1.8921149,-2.2093284,0.58409,4.441084,4.461857,-1.7093487
1747672199.0503306,1.8921149,-2.2093284,0.58409,4.441084,4.461857,-1.7093487
1747672199.0513866,1.8921149,-2.2093284,0.58409,4.441084,4.461857,-1.7093487
1747672199.0523386,1.8921149,-2.2093284,0.58409,4.441084,4.461857,-1.7093487
1747672199.0533378,1.8921149,-2.2093284,0.58409,4.024566,4.605667,-1.5889739
1747672199.0543292,1.8921149,-2.2093284,0.58409,4.024566,4.605667,-1.5889739
1747672199.0562303,1.8921149,-2.2093284,0.58409,4.024566,4.605667,-1.5889739
1747672199.0573843,1.8921149,-2.2093284,0.58409,4.024566,4.605667,-1.5889739
1747672199.0581906,1.8921149,-2.2093284,0.58409,4.024566,4.605667,-1.5889739
1747672199.0590198,1.8921149,-2.2093284,0.58409,4.024566,4.605667,-1.5889739
1747672199.0600083,1.8921149,-2.2093284,0.58409,4.024566,4.605667,-1.5889739
1747672199.0608509,1.8921149,-2.2093284,0.58409,4.024566,4.605667,-1.5889739
1747672199.0616646,1.8921149,-2.2093284,0.58409,4.024566,4.605667,-1.5889739
1747672199.0624895,1.8921149,-2.2093284,0.58409,4.024566,4.605667,-1.5889739
1747672199.0635192,2.3187268,-2.0277498,0.45913267,3.673029,4.891158,-1.5943002
1747672199.0650702,2.3187268,-2.0277498,0.45913267,3.673029,4.891158,-1.5943002
1747672199.0663044,2.3187268,-2.0277498,0.45913267,3.673029,4.891158,-1.5943002
1747672199.0676088,2.3187268,-2.0277498,0.45913267,3.673029,4.891158,-1.5943002
1747672199.068624,2.3187268,-2.0277498,0.45913267,3.673029,4.891158,-1.5943002
1747672199.069608,2.3187268,-2.0277498,0.45913267,3.673029,4.891158,-1.5943002
1747672199.0705345,2.3187268,-2.0277498,0.45913267,3.673029,4.891158,-1.5943002
1747672199.071477,2.3187268,-2.0277498,0.45913267,3.673029,4.891158,-1.5943002
1747672199.0722647,2.3187268,-2.0277498,0.45913267,3.673029,4.891158,-1.5943002
1747672199.0730813,2.3187268,-2.0277498,0.45913267,3.673029,4.891158,-1.5943002
1747672199.073773,2.3187268,-2.0277498,0.45913267,3.673029,4.891158,-1.5943002
1747672199.074766,2.3187268,-2.0277498,0.45913267,3.673029,4.891158,-1.5943002
1747672199.0757961,2.3187268,-2.0277498,0.45913267,3.673029,4.891158,-1.5943002
1747672199.0767827,2.3187268,-2.0277498,0.45913267,3.673029,4.891158,-1.5943002
1747672199.0778043,2.4192786,-1.974057,0.5162421,3.3523846,5.3556128,-1.6827171
1747672199.0787747,2.4192786,-1.974057,0.5162421,3.3523846,5.3556128,-1.6827171
1747672199.0798876,2.4192786,-1.974057,0.5162421,3.3523846,5.3556128,-1.6827171
1747672199.0807874,2.4192786,-1.974057,0.5162421,3.3523846,5.3556128,-1.6827171
1747672199.0818472,2.4192786,-1.974057,0.5162421,3.3523846,5.3556128,-1.6827171
1747672199.0833972,2.4192786,-1.974057,0.5162421,3.3523846,5.3556128,-1.6827171
1747672199.0844119,2.4192786,-1.974057,0.5162421,3.3523846,5.3556128,-1.6827171
1747672199.0852048,2.4192786,-1.974057,0.5162421,3.3523846,5.3556128,-1.6827171
1747672199.085752,2.1639946,-1.9203644,0.5406478,3.3523846,5.3556128,-1.6827171
1747672199.0865839,2.1639946,-1.9203644,0.5406478,3.2192268,5.62832,-1.7285234
1747672199.087353,2.1639946,-1.9203644,0.5406478,3.2192268,5.62832,-1.7285234
1747672199.0880795,2.1639946,-1.9203644,0.5406478,3.2192268,5.62832,-1.7285234
1747672199.088797,2.1639946,-1.9203644,0.5406478,3.2192268,5.62832,-1.7285234
1747672199.0895143,2.1639946,-1.9203644,0.5406478,3.2192268,5.62832,-1.7285234
1747672199.0902817,2.1639946,-1.9203644,0.5406478,3.2192268,5.62832,-1.7285234
1747672199.0910249,2.1639946,-1.9203644,0.5406478,3.2192268,5.62832,-1.7285234
1747672199.091735,2.1639946,-1.9203644,0.5406478,3.2192268,5.62832,-1.7285234
1747672199.0924592,2.1639946,-1.9203644,0.5406478,3.2192268,5.62832,-1.7285234
1747672199.0934556,2.1639946,-1.9203644,0.5406478,3.2192268,5.62832,-1.7285234
1747672199.0944831,2.1639946,-1.9203644,0.5406478,3.2192268,5.62832,-1.7285234
1747672199.0953057,2.1639946,-1.9203644,0.5406478,3.2192268,5.62832,-1.7285234
1747672199.0966988,2.1639946,-1.9203644,0.5406478,3.2192268,5.62832,-1.7285234
1747672199.0976255,1.7979088,-1.8203009,0.4152024,3.1627676,5.5026193,-1.6156055
1747672199.0985513,1.7979088,-1.8203009,0.4152024,3.1627676,5.5026193,-1.6156055
1747672199.0994525,1.7979088,-1.8203009,0.4152024,3.1627676,5.5026193,-1.6156055
1747672199.1005404,1.7979088,-1.8203009,0.4152024,3.1627676,5.5026193,-1.6156055
1747672199.1013548,1.7979088,-1.8203009,0.4152024,3.1627676,5.5026193,-1.6156055
1747672199.1021485,1.7979088,-1.8203009,0.4152024,3.1627676,5.5026193,-1.6156055
1747672199.1029634,1.7979088,-1.8203009,0.4152024,3.1627676,5.5026193,-1.6156055
1747672199.1039693,1.7979088,-1.8203009,0.4152024,3.1627676,5.5026193,-1.6156055
1747672199.1050007,1.508945,-1.7475718,0.23850495,3.1627676,5.5026193,-1.6156055
1747672199.1059954,1.508945,-1.7475718,0.23850495,3.0306752,5.1851707,-1.302418
1747672199.1069775,1.508945,-1.7475718,0.23850495,3.0306752,5.1851707,-1.302418
1747672199.1079729,1.508945,-1.7475718,0.23850495,3.0306752,5.1851707,-1.302418
1747672199.1089656,1.508945,-1.7475718,0.23850495,3.0306752,5.1851707,-1.302418
1747672199.109966,1.508945,-1.7475718,0.23850495,3.0306752,5.1851707,-1.302418
1747672199.1109865,1.508945,-1.7475718,0.23850495,3.0306752,5.1851707,-1.302418
1747672199.112153,1.508945,-1.7475718,0.23850495,3.0306752,5.1851707,-1.302418
1747672199.1129935,1.3410336,-1.6777717,0.14918,3.0306752,5.1851707,-1.302418
1747672199.114985,1.3410336,-1.6777717,0.14918,2.9113655,5.089297,-1.0659294
1747672199.1159706,1.3410336,-1.6777717,0.14918,2.9113655,5.089297,-1.0659294
1747672199.1169653,1.3410336,-1.6777717,0.14918,2.9113655,5.089297,-1.0659294
1747672199.1179733,1.3410336,-1.6777717,0.14918,2.9113655,5.089297,-1.0659294
1747672199.1189797,1.3410336,-1.6777717,0.14918,2.9113655,5.089297,-1.0659294
1747672199.1199698,1.3410336,-1.6777717,0.14918,2.9113655,5.089297,-1.0659294
1747672199.1209662,1.3410336,-1.6777717,0.14918,2.9113655,5.089297,-1.0659294
1747672199.1219664,1.3410336,-1.6777717,0.14918,2.9113655,5.089297,-1.0659294
1747672199.1229684,1.3410336,-1.6777717,0.14918,2.9113655,5.089297,-1.0659294
1747672199.123978,1.3410336,-1.6777717,0.14918,2.9113655,5.089297,-1.0659294
1747672199.1249707,1.1589668,-1.6143166,0.05546201,2.7696855,5.1596045,-0.6419545
1747672199.1259897,1.1589668,-1.6143166,0.05546201,2.7696855,5.1596045,-0.6419545
1747672199.1270018,1.1589668,-1.6143166,0.05546201,2.7696855,5.1596045,-0.6419545
1747672199.1279774,1.1589668,-1.6143166,0.05546201,2.7696855,5.1596045,-0.6419545
1747672199.1289785,1.1589668,-1.6143166,0.05546201,2.7696855,5.1596045,-0.6419545
1747672199.1306207,1.1589668,-1.6143166,0.05546201,2.7696855,5.1596045,-0.6419545
1747672199.1314893,1.1589668,-1.6143166,0.05546201,2.7696855,5.1596045,-0.6419545
1747672199.1322782,1.1589668,-1.6143166,0.05546201,2.7696855,5.1596045,-0.6419545
1747672199.1333044,1.1589668,-1.6143166,0.05546201,2.7696855,5.1596045,-0.6419545
1747672199.1343803,1.1589668,-1.6143166,0.05546201,2.7696855,5.1596045,-0.6419545
1747672199.1351776,1.1589668,-1.6143166,0.05546201,2.7696855,5.1596045,-0.6419545
1747672199.1360242,1.1589668,-1.6143166,0.05546201,2.7696855,5.1596045,-0.6419545
1747672199.13682,1.0115563,-1.5288967,-0.028493684,2.7206833,5.2363033,-0.29467857
1747672199.1376917,1.0115563,-1.5288967,-0.028493684,2.7206833,5.2363033,-0.29467857
1747672199.1385589,1.0115563,-1.5288967,-0.028493684,2.7206833,5.2363033,-0.29467857
1747672199.1396036,1.0115563,-1.5288967,-0.028493684,2.7206833,5.2363033,-0.29467857
1747672199.1404643,1.0115563,-1.5288967,-0.028493684,2.7206833,5.2363033,-0.29467857
1747672199.1412766,1.0115563,-1.5288967,-0.028493684,2.7206833,5.2363033,-0.29467857
1747672199.1433752,0.88220596,-1.3809979,-0.19542885,2.64718,5.2767835,0.3285007
1747672199.1456978,0.88220596,-1.3809979,-0.19542885,2.64718,5.2767835,0.3285007
1747672199.1466935,0.88220596,-1.3809979,-0.19542885,2.64718,5.2767835,0.3285007
1747672199.1476948,0.88220596,-1.3809979,-0.19542885,2.64718,5.2767835,0.3285007
1747672199.148694,0.88220596,-1.3809979,-0.19542885,2.64718,5.2767835,0.3285007
1747672199.1496942,0.88220596,-1.3809979,-0.19542885,2.64718,5.2767835,0.3285007
1747672199.1506956,0.88220596,-1.3809979,-0.19542885,2.64718,5.2767835,0.3285007
1747672199.151688,0.88220596,-1.3809979,-0.19542885,2.64718,5.2767835,0.3285007
1747672199.1526916,0.88220596,-1.3809979,-0.19542885,2.64718,5.2767835,0.3285007
1747672199.1537387,0.88220596,-1.3809979,-0.19542885,2.64718,5.2767835,0.3285007
1747672199.1549468,0.9461489,-1.1935619,-0.38140047,2.5843296,5.222455,0.7450188
1747672199.1590962,0.9461489,-1.1935619,-0.38140047,2.5843296,5.222455,0.7450188
1747672199.1607933,0.9461489,-1.1935619,-0.38140047,2.5843296,5.222455,0.7450188
1747672199.1617494,0.9461489,-1.1935619,-0.38140047,2.5843296,5.222455,0.7450188
1747672199.1625772,1.2731857,-1.1052132,-0.588361,2.4841948,4.983836,1.0539452
1747672199.1633372,1.2731857,-1.1052132,-0.588361,2.4841948,4.983836,1.0539452
1747672199.1638649,1.2731857,-1.1052132,-0.588361,2.4841948,4.983836,1.0539452
1747672199.1646135,1.2731857,-1.1052132,-0.588361,2.4841948,4.983836,1.0539452
1747672199.1653266,1.2731857,-1.1052132,-0.588361,2.4841948,4.983836,1.0539452
1747672199.1660478,1.2731857,-1.1052132,-0.588361,2.4841948,4.983836,1.0539452
1747672199.167799,1.2731857,-1.1052132,-0.588361,2.4841948,4.983836,1.0539452
1747672199.1688223,1.2731857,-1.1052132,-0.588361,2.4841948,4.983836,1.0539452
1747672199.169754,1.2731857,-1.1052132,-0.588361,2.4841948,4.983836,1.0539452
1747672199.1708827,1.2731857,-1.1052132,-0.588361,2.4841948,4.983836,1.0539452
1747672199.1716735,1.2731857,-1.1052132,-0.588361,2.4841948,4.983836,1.0539452
1747672199.1728315,1.2731857,-1.1052132,-0.588361,2.4841948,4.983836,1.0539452
1747672199.1774871,1.5792334,-1.1218091,-0.8236322,2.2817948,4.7388253,0.8920251
1747672199.1839123,1.5792334,-1.1218091,-0.8236322,2.2817948,4.7388253,0.8920251
1747672199.1848378,1.5792334,-1.1218091,-0.8236322,2.2817948,4.7388253,0.8920251
1747672199.185714,1.5792334,-1.1218091,-0.8236322,2.2817948,4.7388253,0.8920251
1747672199.1877759,1.5792334,-1.1218091,-0.8236322,2.2817948,4.7388253,0.8920251
1747672199.1893444,1.5665425,-1.14231,-0.9339461,2.0623505,4.587558,0.6821682
1747672199.1902306,1.5665425,-1.14231,-0.9339461,2.0623505,4.587558,0.6821682
1747672199.1911302,1.5665425,-1.14231,-0.9339461,2.0623505,4.587558,0.6821682
1747672199.1921976,1.5665425,-1.14231,-0.9339461,2.0623505,4.587558,0.6821682
1747672199.1929836,1.5665425,-1.14231,-0.9339461,2.0623505,4.587558,0.6821682
1747672199.1940095,1.5665425,-1.14231,-0.9339461,2.0623505,4.587558,0.6821682
1747672199.1948247,1.5665425,-1.14231,-0.9339461,2.0623505,4.587558,0.6821682
1747672199.1956854,1.5665425,-1.14231,-0.9339461,2.0623505,4.587558,0.6821682
1747672199.1964939,1.291734,-1.0646998,-1.032057,1.7907082,4.345743,0.4776376
1747672199.1972966,1.291734,-1.0646998,-1.032057,1.7907082,4.345743,0.4776376
1747672199.1980975,1.291734,-1.0646998,-1.032057,1.7907082,4.345743,0.4776376
1747672199.1989837,1.291734,-1.0646998,-1.032057,1.7907082,4.345743,0.4776376
1747672199.199773,1.291734,-1.0646998,-1.032057,1.7907082,4.345743,0.4776376
1747672199.2005877,1.291734,-1.0646998,-1.032057,1.7907082,4.345743,0.4776376
1747672199.2013674,1.291734,-1.0646998,-1.032057,1.7907082,4.345743,0.4776376
1747672199.2021155,1.291734,-1.0646998,-1.032057,1.7907082,4.345743,0.4776376
1747672199.20282,1.291734,-1.0646998,-1.032057,1.7907082,4.345743,0.4776376
1747672199.2035666,1.291734,-1.0646998,-1.032057,1.7907082,4.345743,0.4776376
1747672199.2043335,1.291734,-1.0646998,-1.032057,1.7907082,4.345743,0.4776376
1747672199.2050807,1.291734,-1.0646998,-1.032057,1.7907082,4.345743,0.4776376
1747672199.2061074,1.291734,-1.0646998,-1.032057,1.7907082,4.345743,0.4776376
1747672199.20784,1.0169256,-0.9480404,-0.9339461,1.9973693,3.9409428,0.73117036
1747672199.209308,1.0169256,-0.9480404,-0.9339461,1.9973693,3.9409428,0.73117036
1747672199.2104375,1.0169256,-0.9480404,-0.9339461,1.9973693,3.9409428,0.73117036
1747672199.2115033,1.0169256,-0.9480404,-0.9339461,1.9973693,3.9409428,0.73117036
1747672199.2122874,1.0169256,-0.9480404,-0.9339461,1.9973693,3.9409428,0.73117036
1747672199.213128,1.0169256,-0.9480404,-0.9339461,1.9973693,3.9409428,0.73117036
1747672199.2139592,0.963233,-0.8103921,-1.1077149,1.9973693,3.9409428,0.73117036
1747672199.2147937,0.963233,-0.8103921,-1.1077149,2.5470455,3.3422647,1.3032169
1747672199.215593,0.963233,-0.8103921,-1.1077149,2.5470455,3.3422647,1.3032169
1747672199.2164476,0.963233,-0.8103921,-1.1077149,2.5470455,3.3422647,1.3032169
1747672199.2173076,0.963233,-0.8103921,-1.1077149,2.5470455,3.3422647,1.3032169
1747672199.218328,0.963233,-0.8103921,-1.1077149,2.5470455,3.3422647,1.3032169
1747672199.2192492,0.963233,-0.8103921,-1.1077149,2.5470455,3.3422647,1.3032169
1747672199.220034,0.963233,-0.8103921,-1.1077149,2.5470455,3.3422647,1.3032169
1747672199.2210495,0.963233,-0.8103921,-1.1077149,2.5470455,3.3422647,1.3032169
1747672199.2218552,0.963233,-0.8103921,-1.1077149,2.5470455,3.3422647,1.3032169
1747672199.222653,0.963233,-0.8103921,-1.1077149,2.5470455,3.3422647,1.3032169
1747672199.2235193,1.0642726,-0.5194759,-1.7378706,3.1095045,2.806437,1.7516929
1747672199.2243226,1.0642726,-0.5194759,-1.7378706,3.1095045,2.806437,1.7516929
1747672199.2250905,1.0642726,-0.5194759,-1.7378706,3.1095045,2.806437,1.7516929
1747672199.2258716,1.0642726,-0.5194759,-1.7378706,3.1095045,2.806437,1.7516929
1747672199.2266634,1.0642726,-0.5194759,-1.7378706,3.1095045,2.806437,1.7516929
1747672199.2274377,1.0642726,-0.5194759,-1.7378706,3.1095045,2.806437,1.7516929
1747672199.2282112,1.0642726,-0.5194759,-1.7378706,3.1095045,2.806437,1.7516929
1747672199.2289846,1.0642726,-0.5194759,-1.7378706,3.1095045,2.806437,1.7516929
1747672199.2297373,1.0642726,-0.5194759,-1.7378706,3.1095045,2.806437,1.7516929
1747672199.2306328,1.0642726,-0.5194759,-1.7378706,3.1095045,2.806437,1.7516929
1747672199.2315228,1.0642726,-0.5194759,-1.7378706,3.1095045,2.806437,1.7516929
1747672199.2324662,1.1047862,-0.25394157,-2.1742449,3.1095045,2.806437,1.7516929
1747672199.2336051,1.1047862,-0.25394157,-2.1742449,3.518566,2.6242769,1.7836508
1747672199.2353573,1.1047862,-0.25394157,-2.1742449,3.518566,2.6242769,1.7836508
1747672199.2378428,1.1047862,-0.25394157,-2.1742449,3.518566,2.6242769,1.7836508
1747672199.2386637,1.1047862,-0.25394157,-2.1742449,3.518566,2.6242769,1.7836508
1747672199.2394118,1.1047862,-0.25394157,-2.1742449,3.518566,2.6242769,1.7836508
1747672199.2401536,1.1047862,-0.25394157,-2.1742449,3.518566,2.6242769,1.7836508
1747672199.2408824,1.1047862,-0.25394157,-2.1742449,3.518566,2.6242769,1.7836508
1747672199.2416263,1.1047862,-0.25394157,-2.1742449,3.518566,2.6242769,1.7836508
1747672199.2423587,1.1047862,-0.25394157,-2.1742449,3.518566,2.6242769,1.7836508
1747672199.2436075,1.1047862,-0.25394157,-2.1742449,3.518566,2.6242769,1.7836508
1747672199.2450519,1.2399938,-0.48628405,-2.5525339,3.8477323,2.2439778,1.3735243
1747672199.24589,1.2399938,-0.48628405,-2.5525339,3.8477323,2.2439778,1.3735243
1747672199.2466888,1.2399938,-0.48628405,-2.5525339,3.8477323,2.2439778,1.3735243
1747672199.247534,1.2399938,-0.48628405,-2.5525339,3.8477323,2.2439778,1.3735243
1747672199.248319,1.2399938,-0.48628405,-2.5525339,3.8477323,2.2439778,1.3735243
1747672199.2491403,1.2399938,-0.48628405,-2.5525339,3.8477323,2.2439778,1.3735243
1747672199.2499905,1.2399938,-0.48628405,-2.5525339,3.8477323,2.2439778,1.3735243
1747672199.2508037,1.2399938,-0.48628405,-2.5525339,3.8477323,2.2439778,1.3735243
1747672199.251877,1.2399938,-0.48628405,-2.5525339,3.8477323,2.2439778,1.3735243
1747672199.2527359,1.2399938,-0.48628405,-2.5525339,3.8477323,2.2439778,1.3735243
1747672199.2542207,1.1643362,-0.78549826,-2.9015355,4.0735683,1.3001543,0.7556714
1747672199.2551167,1.1643362,-0.78549826,-2.9015355,4.0735683,1.3001543,0.7556714
1747672199.2562232,1.1643362,-0.78549826,-2.9015355,4.0735683,1.3001543,0.7556714
1747672199.2578008,1.1643362,-0.78549826,-2.9015355,4.0735683,1.3001543,0.7556714
1747672199.2588277,1.1643362,-0.78549826,-2.9015355,4.0735683,1.3001543,0.7556714
1747672199.2598639,1.1643362,-0.78549826,-2.9015355,4.0735683,1.3001543,0.7556714
1747672199.2608874,1.1643362,-0.78549826,-2.9015355,4.0735683,1.3001543,0.7556714
1747672199.2618146,1.1643362,-0.78549826,-2.9015355,4.0735683,1.3001543,0.7556714
1747672199.2626276,1.1643362,-0.78549826,-2.9015355,4.0735683,1.3001543,0.7556714
1747672199.2634375,1.1643362,-0.78549826,-2.9015355,4.0735683,1.3001543,0.7556714
1747672199.2643583,0.23984726,-0.80404663,-2.792198,4.52524,-0.9763141,-0.09867004
1747672199.2657604,0.23984726,-0.80404663,-2.792198,4.52524,-0.9763141,-0.09867004
1747672199.2678304,0.23984726,-0.80404663,-2.792198,4.52524,-0.9763141,-0.09867004
1747672199.2686372,0.23984726,-0.80404663,-2.792198,4.52524,-0.9763141,-0.09867004
1747672199.26949,0.23984726,-0.80404663,-2.792198,4.52524,-0.9763141,-0.09867004
1747672199.270284,0.23984726,-0.80404663,-2.792198,4.52524,-0.9763141,-0.09867004
1747672199.2711937,0.23984726,-0.80404663,-2.792198,4.52524,-0.9763141,-0.09867004
1747672199.272045,0.23984726,-0.80404663,-2.792198,4.52524,-0.9763141,-0.09867004
1747672199.2728622,0.23984726,-0.80404663,-2.792198,4.52524,-0.9763141,-0.09867004
1747672199.273856,0.23984726,-0.80404663,-2.792198,4.52524,-0.9763141,-0.09867004
1747672199.2748532,0.23984726,-0.80404663,-2.792198,4.52524,-0.9763141,-0.09867004
1747672199.2758536,-0.32343686,-0.9065506,-2.3602166,5.0291095,-2.1853883,-0.32344067
1747672199.2768717,-0.32343686,-0.9065506,-2.3602166,5.0291095,-2.1853883,-0.32344067
1747672199.2778666,-0.32343686,-0.9065506,-2.3602166,5.0291095,-2.1853883,-0.32344067
1747672199.278865,-0.32343686,-0.9065506,-2.3602166,5.0291095,-2.1853883,-0.32344067
1747672199.2798967,-0.32343686,-0.9065506,-2.3602166,5.0291095,-2.1853883,-0.32344067
1747672199.2813625,-0.32343686,-0.9065506,-2.3602166,5.0291095,-2.1853883,-0.32344067
1747672199.2818491,-0.32343686,-0.9065506,-2.3602166,5.0291095,-2.1853883,-0.32344067
1747672199.2855155,-0.32343686,-0.9065506,-2.3602166,5.0291095,-2.1853883,-0.32344067
1747672199.2864134,-0.32343686,-0.9065506,-2.3602166,5.0291095,-2.1853883,-0.32344067
1747672199.2873325,-0.32343686,-0.9065506,-2.3602166,5.0291095,-2.1853883,-0.32344067
1747672199.2882018,-0.81887305,-1.2814226,-2.2259853,6.30423,-4.2200418,-0.36498594
1747672199.289078,-0.81887305,-1.2814226,-2.2259853,6.30423,-4.2200418,-0.36498594
1747672199.2899177,-0.81887305,-1.2814226,-2.2259853,6.30423,-4.2200418,-0.36498594
1747672199.2907028,-0.81887305,-1.2814226,-2.2259853,6.30423,-4.2200418,-0.36498594
1747672199.291482,-0.81887305,-1.2814226,-2.2259853,6.30423,-4.2200418,-0.36498594
1747672199.2922623,-0.81887305,-1.2814226,-2.2259853,6.30423,-4.2200418,-0.36498594
1747672199.2931814,-0.81887305,-1.2814226,-2.2259853,6.30423,-4.2200418,-0.36498594
1747672199.2939758,-0.81887305,-1.2814226,-2.2259853,6.30423,-4.2200418,-0.36498594
1747672199.2957773,-0.81887305,-1.2814226,-2.2259853,6.30423,-4.2200418,-0.36498594
1747672199.2979255,-1.4895424,-1.3878316,-3.0196593,7.6251574,-5.622994,0.21558273
1747672199.2991023,-1.4895424,-1.3878316,-3.0196593,7.6251574,-5.622994,0.21558273
1747672199.3000777,-1.4895424,-1.3878316,-3.0196593,7.6251574,-5.622994,0.21558273
1747672199.3009531,-1.4895424,-1.3878316,-3.0196593,7.6251574,-5.622994,0.21558273
1747672199.3020182,-1.4895424,-1.3878316,-3.0196593,7.6251574,-5.622994,0.21558273
1747672199.3028252,-1.4895424,-1.3878316,-3.0196593,7.6251574,-5.622994,0.21558273
1747672199.3038826,-1.4895424,-1.3878316,-3.0196593,7.6251574,-5.622994,0.21558273
1747672199.3047426,-1.4895424,-1.3878316,-3.0196593,7.6251574,-5.622994,0.21558273
1747672199.3055718,-1.4895424,-1.3878316,-3.0196593,7.6251574,-5.622994,0.21558273
1747672199.306393,-1.4895424,-1.3878316,-3.0196593,7.6251574,-5.622994,0.21558273
1747672199.307191,-1.4895424,-1.3878316,-3.0196593,7.6251574,-5.622994,0.21558273
1747672199.307985,-1.4895424,-1.3878316,-3.0196593,7.6251574,-5.622994,0.21558273
1747672199.3087645,-1.4895424,-1.3878316,-3.0196593,7.6251574,-5.622994,0.21558273
1747672199.30961,-1.4895424,-1.3878316,-3.0196593,7.6251574,-5.622994,0.21558273
1747672199.3106303,-1.7643509,-1.2716603,-4.689499,7.6336794,-5.299154,1.0827073
1747672199.3120449,-1.7643509,-1.2716603,-4.689499,7.6336794,-5.299154,1.0827073
1747672199.3128812,-1.7643509,-1.2716603,-4.689499,7.6336794,-5.299154,1.0827073
1747672199.313636,-1.7643509,-1.2716603,-4.689499,7.6336794,-5.299154,1.0827073
1747672199.314381,-1.7643509,-1.2716603,-4.689499,7.6336794,-5.299154,1.0827073
1747672199.3151467,-1.7643509,-1.2716603,-4.689499,7.6336794,-5.299154,1.0827073
1747672199.3158853,-1.7643509,-1.2716603,-4.689499,7.6336794,-5.299154,1.0827073
1747672199.316611,-1.7643509,-1.2716603,-4.689499,7.6336794,-5.299154,1.0827073
1747672199.3173325,-1.7643509,-1.2716603,-4.689499,7.6336794,-5.299154,1.0827073
1747672199.3184621,-1.7643509,-1.2716603,-4.689499,7.6336794,-5.299154,1.0827073
1747672199.3193893,-1.4461002,-1.1369407,-6.7600803,5.4893036,-3.5510564,2.0382488
1747672199.3201742,-1.4461002,-1.1369407,-6.7600803,5.4893036,-3.5510564,2.0382488
1747672199.3210077,-1.4461002,-1.1369407,-6.7600803,5.4893036,-3.5510564,2.0382488
1747672199.321825,-1.4461002,-1.1369407,-6.7600803,5.4893036,-3.5510564,2.0382488
1747672199.322727,-1.4461002,-1.1369407,-6.7600803,5.4893036,-3.5510564,2.0382488
1747672199.3235323,-1.4461002,-1.1369407,-6.7600803,5.4893036,-3.5510564,2.0382488
1747672199.3244834,-1.3108925,-0.9202178,-7.44881,2.3574286,-1.1723226,2.4803333
1747672199.325451,-1.3108925,-0.9202178,-7.44881,2.3574286,-1.1723226,2.4803333
1747672199.3263605,-1.3108925,-0.9202178,-7.44881,2.3574286,-1.1723226,2.4803333
1747672199.3274183,-1.3108925,-0.9202178,-7.44881,2.3574286,-1.1723226,2.4803333
1747672199.3282306,-1.3108925,-0.9202178,-7.44881,2.3574286,-1.1723226,2.4803333
1747672199.3290286,-1.3108925,-0.9202178,-7.44881,2.3574286,-1.1723226,2.4803333
1747672199.3301957,-1.3108925,-0.9202178,-7.44881,2.3574286,-1.1723226,2.4803333
1747672199.331193,-1.3108925,-0.9202178,-7.44881,2.3574286,-1.1723226,2.4803333
1747672199.3320932,-1.3108925,-0.9202178,-7.44881,2.3574286,-1.1723226,2.4803333
1747672199.3333046,-1.3108925,-0.9202178,-7.44881,2.3574286,-1.1723226,2.4803333
1747672199.3342562,-1.2464614,-0.6644459,-7.209146,-0.36751595,0.8484825,2.6337311
1747672199.3351183,-1.2464614,-0.6644459,-7.209146,-0.36751595,0.8484825,2.6337311
1747672199.3359709,-1.2464614,-0.6644459,-7.209146,-0.36751595,0.8484825,2.6337311
1747672199.3367968,-1.2464614,-0.6644459,-7.209146,-0.36751595,0.8484825,2.6337311
1747672199.3375971,-1.2464614,-0.6644459,-7.209146,-0.36751595,0.8484825,2.6337311
1747672199.3384292,-1.2464614,-0.6644459,-7.209146,-0.36751595,0.8484825,2.6337311
1747672199.3392167,-1.2464614,-0.6644459,-7.209146,-0.36751595,0.8484825,2.6337311
1747672199.3400304,-1.2464614,-0.6644459,-7.209146,-0.36751595,0.8484825,2.6337311
1747672199.340807,-1.2464614,-0.6644459,-7.209146,-0.36751595,0.8484825,2.6337311
1747672199.3416033,-1.2464614,-0.6644459,-7.209146,-0.36751595,0.8484825,2.6337311
1747672199.342403,-1.2464614,-0.6644459,-7.209146,-0.36751595,0.8484825,2.6337311
1747672199.3432868,-1.2464614,-0.6644459,-7.209146,-0.36751595,0.8484825,2.6337311
1747672199.344237,-1.2464614,-0.6644459,-7.209146,-0.36751595,0.8484825,2.6337311
1747672199.3451624,-1.2464614,-0.6644459,-7.209146,-0.36751595,0.8484825,2.6337311
1747672199.346223,-0.9042931,-0.69617325,-5.6515727,-3.6069827,2.8905928,2.2278657
1747672199.3470376,-0.9042931,-0.69617325,-5.6515727,-3.6069827,2.8905928,2.2278657
1747672199.3478332,-0.9042931,-0.69617325,-5.6515727,-3.6069827,2.8905928,2.2278657
1747672199.3486912,-0.9042931,-0.69617325,-5.6515727,-3.6069827,2.8905928,2.2278657
1747672199.3494756,-0.9042931,-0.69617325,-5.6515727,-3.6069827,2.8905928,2.2278657
1747672199.350408,-0.9042931,-0.69617325,-5.6515727,-3.6069827,2.8905928,2.2278657
1747672199.3512008,-0.7895862,-0.7659737,-4.267768,-4.6573324,3.4104416,1.6856465
1747672199.352011,-0.7895862,-0.7659737,-4.267768,-4.6573324,3.4104416,1.6856465
1747672199.3527684,-0.7895862,-0.7659737,-4.267768,-4.6573324,3.4104416,1.6856465
1747672199.353541,-0.7895862,-0.7659737,-4.267768,-4.6573324,3.4104416,1.6856465
1747672199.354301,-0.7895862,-0.7659737,-4.267768,-4.6573324,3.4104416,1.6856465
1747672199.3550818,-0.7895862,-0.7659737,-4.267768,-4.6573324,3.4104416,1.6856465
1747672199.3558595,-0.7895862,-0.7659737,-4.267768,-4.6573324,3.4104416,1.6856465
1747672199.3566716,-0.7895862,-0.7659737,-4.267768,-4.6573324,3.4104416,1.6856465
1747672199.3574886,-0.7895862,-0.7659737,-4.267768,-4.6573324,3.4104416,1.6856465
1747672199.3582687,-0.7895862,-0.7659737,-4.267768,-4.6573324,3.4104416,1.6856465
1747672199.3590345,-0.7895862,-0.7659737,-4.267768,-4.6573324,3.4104416,1.6856465
1747672199.3597975,-0.7895862,-0.7659737,-4.267768,-4.6573324,3.4104416,1.6856465
1747672199.3605294,-0.7895862,-0.7659737,-4.267768,-4.6573324,3.4104416,1.6856465
1747672199.3613026,-0.7895862,-0.7659737,-4.267768,-4.6573324,3.4104416,1.6856465
1747672199.3621273,-0.7895862,-0.7659737,-4.267768,-4.6573324,3.4104416,1.6856465
1747672199.3650916,-0.7895862,-0.7659737,-4.267768,-4.6573324,3.4104416,1.6856465
1747672199.3660984,-0.7895862,-0.7659737,-4.267768,-4.6573324,3.4104416,1.6856465
1747672199.3669116,-0.7895862,-0.7659737,-4.267768,-4.6573324,3.4104416,1.6856465
1747672199.36772,-0.7895862,-0.7659737,-4.267768,-4.6573324,3.4104416,1.6856465
1747672199.3685615,-0.7895862,-0.7659737,-4.267768,-4.6573324,3.4104416,1.6856465
1747672199.3694422,-0.7895862,-0.7659737,-4.267768,-4.6573324,3.4104416,1.6856465
1747672199.370405,-0.7895862,-0.7659737,-4.267768,-4.6573324,3.4104416,1.6856465
1747672199.3713531,-0.72222644,-0.8318692,-2.5417953,-4.549741,2.3792663,1.0443579
1747672199.372227,-0.72222644,-0.8318692,-2.5417953,-4.549741,2.3792663,1.0443579
1747672199.3731778,-0.72222644,-0.8318692,-2.5417953,-4.549741,2.3792663,1.0443579
1747672199.3741927,-0.72222644,-0.8318692,-2.5417953,-4.549741,2.3792663,1.0443579
1747672199.3751686,-0.72222644,-0.8318692,-2.5417953,-4.549741,2.3792663,1.0443579
1747672199.3767657,-0.72222644,-0.8318692,-2.5417953,-4.549741,2.3792663,1.0443579
1747672199.377861,-0.72222644,-0.8318692,-2.5417953,-4.549741,2.3792663,1.0443579
1747672199.3794765,-0.85792226,-0.92802775,-1.7530023,-3.446128,-0.20399798,1.0741853
1747672199.380367,-0.85792226,-0.92802775,-1.7530023,-3.446128,-0.20399798,1.0741853
1747672199.3814352,-0.85792226,-0.92802775,-1.7530023,-3.446128,-0.20399798,1.0741853
1747672199.3823333,-0.85792226,-0.92802775,-1.7530023,-3.446128,-0.20399798,1.0741853
1747672199.3832402,-0.85792226,-0.92802775,-1.7530023,-3.446128,-0.20399798,1.0741853
1747672199.384576,-1.0155832,-1.0193051,-1.4767294,-2.609896,-1.9723356,1.408678
1747672199.3857908,-1.0155832,-1.0193051,-1.4767294,-2.609896,-1.9723356,1.408678
1747672199.3876214,-1.0155832,-1.0193051,-1.4767294,-2.609896,-1.9723356,1.408678
1747672199.3890333,-1.0155832,-1.0193051,-1.4767294,-2.609896,-1.9723356,1.408678
1747672199.3909993,-1.0155832,-1.0193051,-1.4767294,-2.609896,-1.9723356,1.408678
1747672199.392754,-1.0155832,-1.0193051,-1.4767294,-2.609896,-1.9723356,1.408678
1747672199.3935661,-1.0155832,-1.0193051,-1.4767294,-2.609896,-1.9723356,1.408678
1747672199.394399,-1.0155832,-1.0193051,-1.4767294,-2.609896,-1.9723356,1.408678
1747672199.3952012,-1.1786134,-1.125226,-1.3132111,-1.1952258,-4.2754354,2.4526365
1747672199.3959975,-1.1786134,-1.125226,-1.3132111,-1.1952258,-4.2754354,2.4526365
1747672199.3967865,-1.1786134,-1.125226,-1.3132111,-1.1952258,-4.2754354,2.4526365
1747672199.397572,-1.1786134,-1.125226,-1.3132111,-1.1952258,-4.2754354,2.4526365
1747672199.3983696,-1.1786134,-1.125226,-1.3132111,-1.1952258,-4.2754354,2.4526365
1747672199.399122,-1.1786134,-1.125226,-1.3132111,-1.1952258,-4.2754354,2.4526365
1747672199.3998897,-1.1786134,-1.125226,-1.3132111,-1.1952258,-4.2754354,2.4526365
1747672199.400673,-1.1786134,-1.125226,-1.3132111,-1.1952258,-4.2754354,2.4526365
1747672199.4014616,-1.1786134,-1.125226,-1.3132111,-1.1952258,-4.2754354,2.4526365
1747672199.4022658,-1.1786134,-1.125226,-1.3132111,-1.1952258,-4.2754354,2.4526365
1747672199.402992,-1.1786134,-1.125226,-1.3132111,-1.1952258,-4.2754354,2.4526365
1747672199.4037309,-1.1786134,-1.125226,-1.3132111,-1.1952258,-4.2754354,2.4526365
1747672199.4044724,-1.1786134,-1.125226,-1.3132111,-1.1952258,-4.2754354,2.4526365
1747672199.4052525,-1.1786134,-1.125226,-1.3132111,-1.1952258,-4.2754354,2.4526365
1747672199.4059665,-1.1786134,-1.125226,-1.3132111,-1.1952258,-4.2754354,2.4526365
1747672199.4066746,-1.1786134,-1.125226,-1.3132111,-1.1952258,-4.2754354,2.4526365
1747672199.4074094,-1.1786134,-1.125226,-1.3132111,-1.1952258,-4.2754354,2.4526365
1747672199.4081671,-1.1786134,-1.125226,-1.3132111,-1.1952258,-4.2754354,2.4526365
1747672199.4089384,-1.1786134,-1.125226,-1.3132111,0.047936864,-5.7668047,4.0089865
1747672199.409696,-1.1786134,-1.125226,-1.3132111,0.047936864,-5.7668047,4.0089865
1747672199.411521,-1.1786134,-1.125226,-1.3132111,0.047936864,-5.7668047,4.0089865
1747672199.4165652,-1.1786134,-1.125226,-1.3132111,0.047936864,-5.7668047,4.0089865
1747672199.4173763,-1.1786134,-1.125226,-1.3132111,0.047936864,-5.7668047,4.0089865
1747672199.4183164,-1.1786134,-1.125226,-1.3132111,0.047936864,-5.7668047,4.0089865
1747672199.4205418,-0.20043202,-1.5362184,-2.1200645,0.40373492,-6.405963,5.1072736
1747672199.4213355,-0.20043202,-1.5362184,-2.1200645,0.40373492,-6.405963,5.1072736
1747672199.422187,-0.20043202,-1.5362184,-2.1200645,0.40373492,-6.405963,5.1072736
1747672199.4267771,-0.20043202,-1.5362184,-2.1200645,0.40373492,-6.405963,5.1072736
1747672199.428363,-0.20043202,-1.5362184,-2.1200645,0.40373492,-6.405963,5.1072736
1747672199.4296806,0.51807255,-1.9193882,-2.5740108,-0.13422322,-6.431529,6.0926423
1747672199.4308121,0.51807255,-1.9193882,-2.5740108,-0.13422322,-6.431529,6.0926423
1747672199.4319954,0.51807255,-1.9193882,-2.5740108,-0.13422322,-6.431529,6.0926423
1747672199.4333453,0.51807255,-1.9193882,-2.5740108,-0.13422322,-6.431529,6.0926423
1747672199.4342847,0.9646973,-2.1854105,-2.6159887,-1.1323752,-6.1204724,6.72967
1747672199.4359398,0.9646973,-2.1854105,-2.6159887,-1.1323752,-6.1204724,6.72967
1747672199.4373326,0.9646973,-2.1854105,-2.6159887,-1.1323752,-6.1204724,6.72967
1747672199.439036,0.9646973,-2.1854105,-2.6159887,-1.1323752,-6.1204724,6.72967
1747672199.4401367,0.9646973,-2.1854105,-2.6159887,-1.1323752,-6.1204724,6.72967
1747672199.4409266,0.9646973,-2.1854105,-2.6159887,-1.1323752,-6.1204724,6.72967
1747672199.4417386,0.9646973,-2.1854105,-2.6159887,-1.1323752,-6.1204724,6.72967
1747672199.442625,0.9646973,-2.1854105,-2.6159887,-2.1198747,-5.624059,7.2505836
1747672199.4435823,1.1662886,-2.4524093,-2.464185,-2.1198747,-5.624059,7.2505836
1747672199.4444344,1.1662886,-2.4524093,-2.464185,-2.1198747,-5.624059,7.2505836
1747672199.4452364,1.1662886,-2.4524093,-2.464185,-2.1198747,-5.624059,7.2505836
1747672199.4460104,1.1662886,-2.4524093,-2.464185,-2.1198747,-5.624059,7.2505836
1747672199.4467936,1.1662886,-2.4524093,-2.464185,-2.1198747,-5.624059,7.2505836
1747672199.4475713,1.1662886,-2.4524093,-2.464185,-2.1198747,-5.624059,7.2505836
1747672199.4483125,1.1662886,-2.4524093,-2.464185,-2.1198747,-5.624059,7.2505836
1747672199.4490576,1.1662886,-2.4524093,-2.464185,-2.1198747,-5.624059,7.2505836
1747672199.4498336,1.1662886,-2.4524093,-2.464185,-2.1198747,-5.624059,7.2505836
1747672199.4505537,1.1662886,-2.4524093,-2.464185,-2.1198747,-5.624059,7.2505836
1747672199.4512582,1.1662886,-2.4524093,-2.464185,-2.1198747,-5.624059,7.2505836
1747672199.452007,1.5045519,-2.8629134,-1.9472718,-2.1198747,-5.624059,7.2505836
1747672199.4527438,1.5045519,-2.8629134,-1.9472718,-2.1198747,-5.624059,7.2505836
1747672199.453535,1.5045519,-2.8629134,-1.9472718,-3.6229618,-4.667453,8.284955
1747672199.4542947,1.5045519,-2.8629134,-1.9472718,-3.6229618,-4.667453,8.284955
1747672199.4551845,1.5045519,-2.8629134,-1.9472718,-3.6229618,-4.667453,8.284955
1747672199.4560008,1.5045519,-2.8629134,-1.9472718,-3.6229618,-4.667453,8.284955
1747672199.4567533,1.5045519,-2.8629134,-1.9472718,-3.6229618,-4.667453,8.284955
1747672199.457552,1.5045519,-2.8629134,-1.9472718,-3.6229618,-4.667453,8.284955
1747672199.4598653,1.5045519,-2.8629134,-1.9472718,-3.6229618,-4.667453,8.284955
1747672199.46076,1.5045519,-2.8629134,-1.9472718,-3.6229618,-4.667453,8.284955
1747672199.4617894,1.5045519,-2.8629134,-1.9472718,-3.6229618,-4.667453,8.284955
1747672199.4626012,1.5045519,-2.8629134,-1.9472718,-3.6229618,-4.667453,8.284955
1747672199.4634578,1.5045519,-2.8629134,-1.9472718,-3.6229618,-4.667453,8.284955
1747672199.4643662,1.5045519,-2.8629134,-1.9472718,-3.6229618,-4.667453,8.284955
1747672199.4651768,2.0673478,-3.1821404,-1.5719118,-4.5071306,-4.321242,8.9123955
1747672199.4661012,2.0673478,-3.1821404,-1.5719118,-4.5071306,-4.321242,8.9123955
1747672199.4669778,2.0673478,-3.1821404,-1.5719118,-4.5071306,-4.321242,8.9123955
1747672199.4680164,2.0673478,-3.1821404,-1.5719118,-4.5071306,-4.321242,8.9123955
1747672199.4689457,2.0673478,-3.1821404,-1.5719118,-4.5071306,-4.321242,8.9123955
1747672199.4726367,2.0673478,-3.1821404,-1.5719118,-4.5071306,-4.321242,8.9123955
1747672199.4748242,3.2163694,-3.7966766,-1.1653124,-5.713009,-4.0687747,9.494029
1747672199.475824,3.2163694,-3.7966766,-1.1653124,-5.713009,-4.0687747,9.494029
1747672199.4768217,3.2163694,-3.7966766,-1.1653124,-5.713009,-4.0687747,9.494029
1747672199.4779456,3.2163694,-3.7966766,-1.1653124,-5.713009,-4.0687747,9.494029
1747672199.47883,3.2163694,-3.7966766,-1.1653124,-5.713009,-4.0687747,9.494029
1747672199.479822,3.2163694,-3.7966766,-1.1653124,-5.713009,-4.0687747,9.494029
1747672199.480835,3.2163694,-3.7966766,-1.1653124,-5.713009,-4.0687747,9.494029
1747672199.4818323,3.2163694,-3.7966766,-1.1653124,-5.713009,-4.0687747,9.494029
1747672199.482823,4.142811,-4.1705723,-0.9832457,-6.776142,-3.8599827,9.272454
1747672199.4845855,4.142811,-4.1705723,-0.9832457,-6.776142,-3.8599827,9.272454
1747672199.4856267,4.142811,-4.1705723,-0.9832457,-6.776142,-3.8599827,9.272454
1747672199.4864357,4.142811,-4.1705723,-0.9832457,-6.776142,-3.8599827,9.272454
1747672199.487237,4.142811,-4.1705723,-0.9832457,-6.776142,-3.8599827,9.272454
1747672199.488051,4.142811,-4.1705723,-0.9832457,-6.776142,-3.8599827,9.272454
1747672199.4889047,4.142811,-4.1705723,-0.9832457,-6.776142,-3.8599827,9.272454
1747672199.48968,4.142811,-4.1705723,-0.9832457,-6.776142,-3.8599827,9.272454
1747672199.4904542,4.142811,-4.1705723,-0.9832457,-6.776142,-3.8599827,9.272454
1747672199.491219,4.142811,-4.1705723,-0.9832457,-6.776142,-3.8599827,9.272454
1747672199.4919474,4.142811,-4.1705723,-0.9832457,-6.776142,-3.8599827,9.272454
1747672199.4927166,4.142811,-4.1705723,-0.9832457,-6.776142,-3.8599827,9.272454
1747672199.49346,4.142811,-4.1705723,-0.9832457,-6.776142,-3.8599827,9.272454
1747672199.494215,4.142811,-4.1705723,-0.9832457,-6.776142,-3.8599827,9.272454
1747672199.4949517,5.3757877,-4.5220146,-0.69623435,-8.026762,-3.5968628,8.305195
1747672199.4957168,5.3757877,-4.5220146,-0.69623435,-8.026762,-3.5968628,8.305195
1747672199.49649,5.3757877,-4.5220146,-0.69623435,-8.026762,-3.5968628,8.305195
1747672199.4972265,5.3757877,-4.5220146,-0.69623435,-8.026762,-3.5968628,8.305195
1747672199.4979684,5.3757877,-4.5220146,-0.69623435,-8.026762,-3.5968628,8.305195
1747672199.4986799,5.3757877,-4.5220146,-0.69623435,-8.026762,-3.5968628,8.305195
1747672199.499456,5.3757877,-4.5220146,-0.69623435,-8.026762,-3.5968628,8.305195
1747672199.5001488,5.3757877,-4.5220146,-0.69623435,-8.026762,-3.5968628,8.305195
1747672199.5008352,5.3757877,-4.5220146,-0.69623435,-8.026762,-3.5968628,8.305195
1747672199.5015273,5.3757877,-4.5220146,-0.69623435,-8.026762,-3.5968628,8.305195
1747672199.5022962,5.3757877,-4.5220146,-0.69623435,-8.026762,-3.5968628,8.305195
1747672199.5030577,5.3757877,-4.5220146,-0.69623435,-8.026762,-3.5968628,8.305195
1747672199.5044463,5.3757877,-4.5220146,-0.69623435,-8.026762,-3.5968628,8.305195
1747672199.5059888,5.760422,-4.59572,-0.47560656,-8.828905,-3.392332,7.4433966
1747672199.5068133,5.760422,-4.59572,-0.47560656,-8.828905,-3.392332,7.4433966
1747672199.5076404,5.760422,-4.59572,-0.47560656,-8.828905,-3.392332,7.4433966
1747672199.5086455,5.760422,-4.59572,-0.47560656,-8.828905,-3.392332,7.4433966
1747672199.5098135,5.760422,-4.59572,-0.47560656,-8.828905,-3.392332,7.4433966
1747672199.5107675,5.760422,-4.59572,-0.47560656,-8.828905,-3.392332,7.4433966
1747672199.51159,5.760422,-4.59572,-0.47560656,-8.828905,-3.392332,7.4433966
1747672199.5125463,5.760422,-4.59572,-0.47560656,-8.828905,-3.392332,7.4433966
1747672199.5133417,5.760422,-4.59572,-0.47560656,-8.828905,-3.392332,7.4433966
1747672199.5142517,5.760422,-4.59572,-0.47560656,-8.828905,-3.392332,7.4433966
1747672199.5150464,5.760422,-4.59572,-0.47560656,-8.828905,-3.392332,7.4433966
1747672199.5158515,5.760422,-4.59572,-0.47560656,-8.828905,-3.392332,7.4433966
1747672199.5181391,5.760422,-4.59572,-0.47560656,-8.828905,-3.392332,7.4433966
1747672199.5190778,5.8292465,-4.762167,0.14966811,-10.440649,-2.9097676,5.498225
1747672199.5199783,5.8292465,-4.762167,0.14966811,-10.440649,-2.9097676,5.498225
1747672199.5209622,5.8292465,-4.762167,0.14966811,-10.440649,-2.9097676,5.498225
1747672199.522136,5.8292465,-4.762167,0.14966811,-10.440649,-2.9097676,5.498225
1747672199.522951,5.8292465,-4.762167,0.14966811,-10.440649,-2.9097676,5.498225
1747672199.5240345,5.8292465,-4.762167,0.14966811,-10.440649,-2.9097676,5.498225
1747672199.5260816,5.8292465,-4.762167,0.14966811,-10.440649,-2.9097676,5.498225
1747672199.526933,5.306964,-4.9046965,0.8769587,-11.566632,-2.2993715,4.08249
1747672199.5277505,5.306964,-4.9046965,0.8769587,-11.566632,-2.2993715,4.08249
1747672199.528694,5.306964,-4.9046965,0.8769587,-11.566632,-2.2993715,4.08249
1747672199.5296605,5.306964,-4.9046965,0.8769587,-11.566632,-2.2993715,4.08249
1747672199.5313168,5.306964,-4.9046965,0.8769587,-11.566632,-2.2993715,4.08249
1747672199.5321517,5.306964,-4.9046965,0.8769587,-11.566632,-2.2993715,4.08249
1747672199.5329585,5.306964,-4.9046965,0.8769587,-11.566632,-2.2993715,4.08249
1747672199.5339754,5.306964,-4.9046965,0.8769587,-11.566632,-2.2993715,4.08249
1747672199.5349264,5.306964,-4.9046965,0.8769587,-11.566632,-2.2993715,4.08249
1747672199.535713,5.306964,-4.9046965,0.8769587,-11.566632,-2.2993715,4.08249
1747672199.5364943,5.306964,-4.9046965,0.8769587,-11.566632,-2.2993715,4.08249
1747672199.5372417,5.306964,-4.9046965,0.8769587,-11.566632,-2.2993715,4.08249
1747672199.5379918,4.442513,-4.9432573,1.9288454,-12.214313,-1.4876406,2.8489144
1747672199.5387177,4.442513,-4.9432573,1.9288454,-12.214313,-1.4876406,2.8489144
1747672199.5394406,4.442513,-4.9432573,1.9288454,-12.214313,-1.4876406,2.8489144
1747672199.5401616,4.442513,-4.9432573,1.9288454,-12.214313,-1.4876406,2.8489144
1747672199.540881,4.442513,-4.9432573,1.9288454,-12.214313,-1.4876406,2.8489144
1747672199.5416353,4.442513,-4.9432573,1.9288454,-12.214313,-1.4876406,2.8489144
1747672199.542372,4.442513,-4.9432573,1.9288454,-12.065176,-1.1254511,2.2821941
1747672199.5430717,3.7059484,-4.6987123,2.7020187,-12.065176,-1.1254511,2.2821941
1747672199.5437813,3.7059484,-4.6987123,2.7020187,-12.065176,-1.1254511,2.2821941
1747672199.5444984,3.7059484,-4.6987123,2.7020187,-12.065176,-1.1254511,2.2821941
1747672199.5452774,3.7059484,-4.6987123,2.7020187,-12.065176,-1.1254511,2.2821941
1747672199.5459707,3.7059484,-4.6987123,2.7020187,-12.065176,-1.1254511,2.2821941
1747672199.5466564,3.7059484,-4.6987123,2.7020187,-12.065176,-1.1254511,2.2821941
1747672199.5473526,3.7059484,-4.6987123,2.7020187,-12.065176,-1.1254511,2.2821941
1747672199.548104,3.7059484,-4.6987123,2.7020187,-12.065176,-1.1254511,2.2821941
1747672199.548838,3.7059484,-4.6987123,2.7020187,-12.065176,-1.1254511,2.2821941
1747672199.5495694,3.7059484,-4.6987123,2.7020187,-12.065176,-1.1254511,2.2821941
1747672199.5503032,3.7059484,-4.6987123,2.7020187,-12.065176,-1.1254511,2.2821941
1747672199.5522814,3.7059484,-4.6987123,2.7020187,-12.065176,-1.1254511,2.2821941
1747672199.553163,3.1729271,-4.3975453,3.0134358,-12.065176,-1.1254511,2.2821941
1747672199.5539606,3.1729271,-4.3975453,3.0134358,-12.065176,-1.1254511,2.2821941
1747672199.5548923,3.1729271,-4.3975453,3.0134358,-11.09046,-0.9539436,2.0244005
1747672199.5560598,3.1729271,-4.3975453,3.0134358,-11.09046,-0.9539436,2.0244005
1747672199.5571702,3.1729271,-4.3975453,3.0134358,-11.09046,-0.9539436,2.0244005
1747672199.5579638,3.1729271,-4.3975453,3.0134358,-11.09046,-0.9539436,2.0244005
1747672199.558832,3.1729271,-4.3975453,3.0134358,-11.09046,-0.9539436,2.0244005
1747672199.559808,3.1729271,-4.3975453,3.0134358,-11.09046,-0.9539436,2.0244005
1747672199.560797,3.1729271,-4.3975453,3.0134358,-11.09046,-0.9539436,2.0244005
1747672199.5617323,3.1729271,-4.3975453,3.0134358,-11.09046,-0.9539436,2.0244005
1747672199.5625715,3.1729271,-4.3975453,3.0134358,-11.09046,-0.9539436,2.0244005
1747672199.5647388,3.1729271,-4.3975453,3.0134358,-11.09046,-0.9539436,2.0244005
1747672199.565626,3.1729271,-4.3975453,3.0134358,-11.09046,-0.9539436,2.0244005
1747672199.5664332,2.9762173,-4.237932,2.9719462,-10.279794,-1.1755184,1.9061562
1747672199.5676892,2.9762173,-4.237932,2.9719462,-10.279794,-1.1755184,1.9061562
1747672199.5686655,2.9762173,-4.237932,2.9719462,-10.279794,-1.1755184,1.9061562
1747672199.5696595,2.9762173,-4.237932,2.9719462,-10.279794,-1.1755184,1.9061562
1747672199.5709174,2.9762173,-4.237932,2.9719462,-10.279794,-1.1755184,1.9061562
1747672199.571813,2.9762173,-4.237932,2.9719462,-10.279794,-1.1755184,1.9061562
1747672199.5726337,2.9762173,-4.237932,2.9719462,-10.279794,-1.1755184,1.9061562
1747672199.5734305,2.9762173,-4.237932,2.9719462,-10.279794,-1.1755184,1.9061562
1747672199.5742366,2.9762173,-4.237932,2.9719462,-10.279794,-1.1755184,1.9061562
1747672199.5753393,2.8375926,-4.0622106,2.7913437,-9.328514,-1.7816534,1.760215
1747672199.5761223,2.8375926,-4.0622106,2.7913437,-9.328514,-1.7816534,1.760215
1747672199.5769086,2.8375926,-4.0622106,2.7913437,-9.328514,-1.7816534,1.760215
1747672199.577729,2.8375926,-4.0622106,2.7913437,-9.328514,-1.7816534,1.760215
1747672199.5789924,2.8375926,-4.0622106,2.7913437,-9.328514,-1.7816534,1.760215
1747672199.5802798,2.8375926,-4.0622106,2.7913437,-9.328514,-1.7816534,1.760215
1747672199.5812988,2.8375926,-4.0622106,2.7913437,-9.328514,-1.7816534,1.760215
1747672199.5821338,2.8375926,-4.0622106,2.7913437,-8.523174,-2.4517043,1.546097
1747672199.5829163,2.7555895,-3.8225465,2.575109,-8.523174,-2.4517043,1.546097
1747672199.5836987,2.7555895,-3.8225465,2.575109,-8.523174,-2.4517043,1.546097
1747672199.5844665,2.7555895,-3.8225465,2.575109,-8.523174,-2.4517043,1.546097
1747672199.5852606,2.7555895,-3.8225465,2.575109,-8.523174,-2.4517043,1.546097
1747672199.586068,2.7555895,-3.8225465,2.575109,-8.523174,-2.4517043,1.546097
1747672199.5868065,2.7555895,-3.8225465,2.575109,-8.523174,-2.4517043,1.546097
1747672199.5875428,2.7555895,-3.8225465,2.575109,-8.523174,-2.4517043,1.546097
1747672199.588274,2.7555895,-3.8225465,2.575109,-8.523174,-2.4517043,1.546097
1747672199.5890102,2.7555895,-3.8225465,2.575109,-8.523174,-2.4517043,1.546097
1747672199.5896971,2.7555895,-3.8225465,2.575109,-8.523174,-2.4517043,1.546097
1747672199.5903795,2.7555895,-3.8225465,2.575109,-8.523174,-2.4517043,1.546097
1747672199.591062,2.7555895,-3.8225465,2.575109,-8.523174,-2.4517043,1.546097
1747672199.5917513,2.7555895,-3.8225465,2.575109,-8.523174,-2.4517043,1.546097
1747672199.5925004,2.7555895,-3.8225465,2.575109,-8.523174,-2.4517043,1.546097
1747672199.5932434,2.6184292,-3.5628695,2.434044,-7.7157044,-2.9907277,1.2307789
1747672199.5939791,2.6184292,-3.5628695,2.434044,-7.7157044,-2.9907277,1.2307789
1747672199.5946677,2.6184292,-3.5628695,2.434044,-7.7157044,-2.9907277,1.2307789
1747672199.5954065,2.6184292,-3.5628695,2.434044,-7.7157044,-2.9907277,1.2307789
1747672199.5961254,2.6184292,-3.5628695,2.434044,-7.7157044,-2.9907277,1.2307789
1747672199.5968664,2.6184292,-3.5628695,2.434044,-7.7157044,-2.9907277,1.2307789
1747672199.5975811,2.6184292,-3.5628695,2.434044,-7.7157044,-2.9907277,1.2307789
1747672199.5993419,2.6184292,-3.5628695,2.434044,-7.7157044,-2.9907277,1.2307789
1747672199.6003306,2.6184292,-3.5628695,2.434044,-7.7157044,-2.9907277,1.2307789
1747672199.601322,2.6184292,-3.5628695,2.434044,-7.7157044,-2.9907277,1.2307789
1747672199.6024384,2.6184292,-3.5628695,2.434044,-7.7157044,-2.9907277,1.2307789
1747672199.603347,2.6184292,-3.5628695,2.434044,-7.7157044,-2.9907277,1.2307789
1747672199.60415,2.6184292,-3.5628695,2.434044,-7.366298,-3.1590393,1.1008168
1747672199.605097,2.6184292,-3.5628695,2.434044,-7.366298,-3.1590393,1.1008168
1747672199.6059158,2.6184292,-3.5628695,2.434044,-7.366298,-3.1590393,1.1008168
1747672199.6067798,2.6184292,-3.5628695,2.434044,-7.366298,-3.1590393,1.1008168
1747672199.6076922,2.6184292,-3.5628695,2.434044,-7.366298,-3.1590393,1.1008168
1747672199.6085322,2.6184292,-3.5628695,2.434044,-7.366298,-3.1590393,1.1008168
1747672199.6093376,2.6184292,-3.5628695,2.434044,-7.366298,-3.1590393,1.1008168
1747672199.6101413,2.6184292,-3.5628695,2.434044,-7.366298,-3.1590393,1.1008168
1747672199.6132796,2.6184292,-3.5628695,2.434044,-7.366298,-3.1590393,1.1008168
1747672199.6142888,1.9091988,-3.299288,2.2607634,-6.8634934,-3.3497214,1.0837725
1747672199.6151025,1.9091988,-3.299288,2.2607634,-6.8634934,-3.3497214,1.0837725
1747672199.6159914,1.9091988,-3.299288,2.2607634,-6.8634934,-3.3497214,1.0837725
1747672199.617737,1.9091988,-3.299288,2.2607634,-6.8634934,-3.3497214,1.0837725
1747672199.6188078,1.9091988,-3.299288,2.2607634,-6.8634934,-3.3497214,1.0837725
1747672199.6197474,1.9091988,-3.299288,2.2607634,-6.8634934,-3.3497214,1.0837725
1747672199.6206539,1.9091988,-3.299288,2.2607634,-6.8634934,-3.3497214,1.0837725
1747672199.6215482,1.9091988,-3.299288,2.2607634,-6.8634934,-3.3497214,1.0837725
1747672199.622342,1.9091988,-3.299288,2.2607634,-6.8634934,-3.3497214,1.0837725
1747672199.6232991,1.9091988,-3.299288,2.2607634,-6.8634934,-3.3497214,1.0837725
1747672199.6241422,1.9091988,-3.299288,2.2607634,-6.8634934,-3.3497214,1.0837725
1747672199.62501,1.9091988,-3.299288,2.2607634,-6.8634934,-3.3497214,1.0837725
1747672199.6264696,1.9091988,-3.299288,2.2607634,-6.8634934,-3.3497214,1.0837725
1747672199.6276176,1.9091988,-3.299288,2.2607634,-6.8634934,-3.3497214,1.0837725
1747672199.6286414,1.3620224,-3.0898867,2.3286114,-6.28186,-3.5553174,1.4683328
1747672199.6295128,1.3620224,-3.0898867,2.3286114,-6.28186,-3.5553174,1.4683328
1747672199.6302958,1.3620224,-3.0898867,2.3286114,-6.28186,-3.5553174,1.4683328
1747672199.6310196,1.3620224,-3.0898867,2.3286114,-6.28186,-3.5553174,1.4683328
1747672199.6317742,1.3620224,-3.0898867,2.3286114,-6.28186,-3.5553174,1.4683328
1747672199.6324959,1.3620224,-3.0898867,2.3286114,-6.28186,-3.5553174,1.4683328
1747672199.6331985,1.3620224,-3.0898867,2.3286114,-6.28186,-3.5553174,1.4683328
1747672199.6339376,1.3620224,-3.0898867,2.3286114,-6.28186,-3.5553174,1.4683328
1747672199.6346383,1.3620224,-3.0898867,2.3286114,-6.28186,-3.5553174,1.4683328
1747672199.6353495,1.3620224,-3.0898867,2.3286114,-6.28186,-3.5553174,1.4683328
1747672199.6360335,1.3620224,-3.0898867,2.3286114,-6.28186,-3.5553174,1.4683328
1747672199.636726,1.3620224,-3.0898867,2.3286114,-6.28186,-3.5553174,1.4683328
1747672199.6374884,1.0330333,-2.7565045,2.532643,-6.28186,-3.5553174,1.4683328
1747672199.6382246,1.0330333,-2.7565045,2.532643,-6.28186,-3.5553174,1.4683328
1747672199.6389558,1.0330333,-2.7565045,2.532643,-5.666137,-3.719368,2.0723372
1747672199.6396453,1.0330333,-2.7565045,2.532643,-5.666137,-3.719368,2.0723372
1747672199.6403322,1.0330333,-2.7565045,2.532643,-5.666137,-3.719368,2.0723372
1747672199.6410153,1.0330333,-2.7565045,2.532643,-5.666137,-3.719368,2.0723372
1747672199.6417084,1.0330333,-2.7565045,2.532643,-5.666137,-3.719368,2.0723372
1747672199.642449,1.0330333,-2.7565045,2.532643,-5.666137,-3.719368,2.0723372
1747672199.643199,0.9954485,-2.4592428,2.6502788,-4.787295,-3.6916711,2.8531754
1747672199.6445572,0.9954485,-2.4592428,2.6502788,-4.787295,-3.6916711,2.8531754
1747672199.6456258,0.9954485,-2.4592428,2.6502788,-4.787295,-3.6916711,2.8531754
1747672199.646911,0.9954485,-2.4592428,2.6502788,-4.787295,-3.6916711,2.8531754
1747672199.650185,0.9954485,-2.4592428,2.6502788,-4.787295,-3.6916711,2.8531754
1747672199.651308,0.9954485,-2.4592428,2.6502788,-4.787295,-3.6916711,2.8531754
1747672199.6524272,0.9954485,-2.4592428,2.6502788,-4.787295,-3.6916711,2.8531754
1747672199.6532273,0.9954485,-2.4592428,2.6502788,-4.787295,-3.6916711,2.8531754
1747672199.6542132,0.9954485,-2.4592428,2.6502788,-4.787295,-3.6916711,2.8531754
1747672199.6550164,0.9954485,-2.4592428,2.6502788,-4.787295,-3.6916711,2.8531754
1747672199.6558387,1.4079052,-2.251794,2.5438697,-3.903126,-3.573427,3.4273527
1747672199.6567109,1.4079052,-2.251794,2.5438697,-3.903126,-3.573427,3.4273527
1747672199.6590843,1.4079052,-2.251794,2.5438697,-3.903126,-3.573427,3.4273527
1747672199.659868,1.4079052,-2.251794,2.5438697,-3.903126,-3.573427,3.4273527
1747672199.6606736,1.4079052,-2.251794,2.5438697,-3.903126,-3.573427,3.4273527
1747672199.6614552,1.4079052,-2.251794,2.5438697,-3.903126,-3.573427,3.4273527
1747672199.6623015,1.4079052,-2.251794,2.5438697,-3.903126,-3.573427,3.4273527
1747672199.6634886,1.9067583,-2.0013914,2.216833,-3.2021825,-3.4796836,3.5253568
1747672199.664876,1.9067583,-2.0013914,2.216833,-3.2021825,-3.4796836,3.5253568
1747672199.6657867,1.9067583,-2.0013914,2.216833,-3.2021825,-3.4796836,3.5253568
1747672199.6665835,1.9067583,-2.0013914,2.216833,-3.2021825,-3.4796836,3.5253568
1747672199.6675282,1.9067583,-2.0013914,2.216833,-3.2021825,-3.4796836,3.5253568
1747672199.6686246,1.9067583,-2.0013914,2.216833,-3.2021825,-3.4796836,3.5253568
1747672199.669681,1.9067583,-2.0013914,2.216833,-3.2021825,-3.4796836,3.5253568
1747672199.6706743,1.9067583,-2.0013914,2.216833,-3.2021825,-3.4796836,3.5253568
1747672199.6723645,1.9067583,-2.0013914,2.216833,-3.2021825,-3.4796836,3.5253568
1747672199.673223,1.9067583,-2.0013914,2.216833,-3.2021825,-3.4796836,3.5253568
1747672199.6742072,1.9067583,-2.0013914,2.216833,-3.2021825,-3.4796836,3.5253568
1747672199.6747448,2.1581373,-1.6108998,1.8361037,-2.7611635,-3.376353,2.9170914
1747672199.6755593,2.1581373,-1.6108998,1.8361037,-2.7611635,-3.376353,2.9170914
1747672199.6763687,2.1581373,-1.6108998,1.8361037,-2.7611635,-3.376353,2.9170914
1747672199.6771638,2.1581373,-1.6108998,1.8361037,-2.7611635,-3.376353,2.9170914
1747672199.6779141,2.1581373,-1.6108998,1.8361037,-2.7611635,-3.376353,2.9170914
1747672199.6786625,2.1581373,-1.6108998,1.8361037,-2.7611635,-3.376353,2.9170914
1747672199.6793947,2.1581373,-1.6108998,1.8361037,-2.7611635,-3.376353,2.9170914
1747672199.6801255,2.1581373,-1.6108998,1.8361037,-2.7611635,-3.376353,2.9170914
1747672199.6808655,2.1581373,-1.6108998,1.8361037,-2.7611635,-3.376353,2.9170914
1747672199.6815631,2.1581373,-1.6108998,1.8361037,-2.7611635,-3.376353,2.9170914
1747672199.6822531,1.8559945,-1.4122372,1.6393934,-2.7611635,-3.376353,2.9170914
1747672199.6829395,1.8559945,-1.4122372,1.6393934,-2.7249444,-3.529751,2.2395837
1747672199.6836352,1.8559945,-1.4122372,1.6393934,-2.7249444,-3.529751,2.2395837
1747672199.6843646,1.8559945,-1.4122372,1.6393934,-2.7249444,-3.529751,2.2395837
1747672199.6850967,1.8559945,-1.4122372,1.6393934,-2.7249444,-3.529751,2.2395837
1747672199.6858764,1.8559945,-1.4122372,1.6393934,-2.7249444,-3.529751,2.2395837
1747672199.6865678,1.8559945,-1.4122372,1.6393934,-2.7249444,-3.529751,2.2395837
1747672199.6872537,1.8559945,-1.4122372,1.6393934,-2.7249444,-3.529751,2.2395837
1747672199.6879363,1.8559945,-1.4122372,1.6393934,-2.7249444,-3.529751,2.2395837
1747672199.688625,1.8559945,-1.4122372,1.6393934,-2.7249444,-3.529751,2.2395837
1747672199.689381,1.8559945,-1.4122372,1.6393934,-2.7249444,-3.529751,2.2395837
1747672199.6901076,1.8559945,-1.4122372,1.6393934,-2.7249444,-3.529751,2.2395837
1747672199.690792,1.8559945,-1.4122372,1.6393934,-2.7249444,-3.529751,2.2395837
1747672199.6914706,1.8559945,-1.4122372,1.6393934,-2.7249444,-3.529751,2.2395837
1747672199.6921418,1.8559945,-1.4122372,1.6393934,-2.7249444,-3.529751,2.2395837
1747672199.6945553,1.065249,-1.2404209,1.5198054,-2.8868644,-3.7662396,1.9306571
1747672199.6959987,1.065249,-1.2404209,1.5198054,-2.8868644,-3.7662396,1.9306571
1747672199.6969721,1.065249,-1.2404209,1.5198054,-2.8868644,-3.7662396,1.9306571
1747672199.6979976,1.065249,-1.2404209,1.5198054,-2.8868644,-3.7662396,1.9306571
1747672199.6988943,1.065249,-1.2404209,1.5198054,-2.8868644,-3.7662396,1.9306571
1747672199.6997085,1.065249,-1.2404209,1.5198054,-2.8868644,-3.7662396,1.9306571
1747672199.7005088,1.065249,-1.2404209,1.5198054,-2.8868644,-3.7662396,1.9306571
1747672199.7013586,1.065249,-1.2404209,1.5198054,-2.8868644,-3.7662396,1.9306571
1747672199.7022839,1.065249,-1.2404209,1.5198054,-2.8868644,-3.7662396,1.9306571
1747672199.7031453,1.065249,-1.2404209,1.5198054,-3.1329403,-4.016577,2.180994
1747672199.7039402,0.11391372,-1.0686047,1.6784426,-3.1329403,-4.016577,2.180994
1747672199.7088392,0.11391372,-1.0686047,1.6784426,-3.1329403,-4.016577,2.180994
1747672199.7106173,0.11391372,-1.0686047,1.6784426,-3.1329403,-4.016577,2.180994
1747672199.7118185,0.11391372,-1.0686047,1.6784426,-3.1329403,-4.016577,2.180994
1747672199.7126648,0.11391372,-1.0686047,1.6784426,-3.1329403,-4.016577,2.180994
1747672199.7134707,0.11391372,-1.0686047,1.6784426,-3.1329403,-4.016577,2.180994
1747672199.7144723,-0.40007085,-0.96317196,2.0381832,-3.3438625,-4.299937,2.960767
1747672199.715279,-0.40007085,-0.96317196,2.0381832,-3.3438625,-4.299937,2.960767
1747672199.7160628,-0.40007085,-0.96317196,2.0381832,-3.3438625,-4.299937,2.960767
1747672199.716875,-0.40007085,-0.96317196,2.0381832,-3.3438625,-4.299937,2.960767
1747672199.7185273,-0.40007085,-0.96317196,2.0381832,-3.3438625,-4.299937,2.960767
1747672199.7194793,-0.40007085,-0.96317196,2.0381832,-3.3438625,-4.299937,2.960767
1747672199.7207274,-0.40007085,-0.96317196,2.0381832,-3.3438625,-4.299937,2.960767
1747672199.7215219,-0.40007085,-0.96317196,2.0381832,-3.3438625,-4.299937,2.960767
1747672199.7223327,-0.40007085,-0.96317196,2.0381832,-3.3438625,-4.299937,2.960767
1747672199.7231195,-0.40007085,-0.96317196,2.0381832,-3.3438625,-4.299937,2.960767
1747672199.7239716,-0.40007085,-0.96317196,2.0381832,-3.3438625,-4.299937,2.960767
1747672199.7247984,-0.40007085,-0.96317196,2.0381832,-3.3438625,-4.299937,2.960767
1747672199.7256045,-0.40007085,-0.96317196,2.0381832,-3.3438625,-4.299937,2.960767
1747672199.72636,-0.40007085,-0.96317196,2.0381832,-3.3438625,-4.299937,2.960767
1747672199.7271035,-0.40007085,-0.96317196,2.0381832,-3.3438625,-4.299937,2.960767
1747672199.7278314,-0.41861922,-0.9426711,2.62148,-3.23201,-4.365983,4.405265
1747672199.7286131,-0.41861922,-0.9426711,2.62148,-3.23201,-4.365983,4.405265
1747672199.7293525,-0.41861922,-0.9426711,2.62148,-3.23201,-4.365983,4.405265
1747672199.7300684,-0.41861922,-0.9426711,2.62148,-3.23201,-4.365983,4.405265
1747672199.7308772,-0.41861922,-0.9426711,2.62148,-3.23201,-4.365983,4.405265
1747672199.731585,-0.41861922,-0.9426711,2.62148,-3.23201,-4.365983,4.405265
1747672199.7322967,-0.41861922,-0.9426711,2.62148,-3.23201,-4.365983,4.405265
1747672199.7329843,-0.41861922,-0.9426711,2.62148,-3.23201,-4.365983,4.405265
1747672199.733679,-0.41861922,-0.9426711,2.62148,-3.23201,-4.365983,4.405265
1747672199.7344172,-0.41861922,-0.9426711,2.62148,-3.23201,-4.365983,4.405265
1747672199.735179,1.1716579,-1.0432228,2.8528461,-2.9230835,-4.6557345,6.151232
1747672199.7358913,1.1716579,-1.0432228,2.8528461,-2.9230835,-4.6557345,6.151232
1747672199.7366462,1.1716579,-1.0432228,2.8528461,-2.9230835,-4.6557345,6.151232
1747672199.7373714,1.1716579,-1.0432228,2.8528461,-2.9230835,-4.6557345,6.151232
1747672199.739019,1.1716579,-1.0432228,2.8528461,-2.9230835,-4.6557345,6.151232
1747672199.740825,1.1716579,-1.0432228,2.8528461,-2.9230835,-4.6557345,6.151232
1747672199.7422452,1.1716579,-1.0432228,2.8528461,-2.9230835,-4.6557345,6.151232
1747672199.7438178,1.1716579,-1.0432228,2.8528461,-2.9230835,-4.6557345,6.151232
1747672199.7446911,1.1716579,-1.0432228,2.8528461,-2.9230835,-4.6557345,6.151232
1747672199.7457697,1.1716579,-1.0432228,2.8528461,-2.9230835,-4.6557345,6.151232
1747672199.7467022,1.1716579,-1.0432228,2.8528461,-2.9230835,-4.6557345,6.151232
1747672199.7475147,3.9299927,-0.9973399,3.0461395,-2.857037,-5.32259,6.1704063
1747672199.748338,3.9299927,-0.9973399,3.0461395,-2.857037,-5.32259,6.1704063
1747672199.749138,3.9299927,-0.9973399,3.0461395,-2.857037,-5.32259,6.1704063
1747672199.7499218,3.9299927,-0.9973399,3.0461395,-2.857037,-5.32259,6.1704063
1747672199.7529237,3.9299927,-0.9973399,3.0461395,-2.857037,-5.32259,6.1704063
1747672199.753927,3.9299927,-0.9973399,3.0461395,-2.857037,-5.32259,6.1704063
1747672199.7548113,3.9299927,-0.9973399,3.0461395,-2.857037,-5.32259,6.1704063
1747672199.7563503,5.724302,-0.56291807,3.3380318,-2.8943212,-6.0150113,4.4819636
1747672199.7571738,5.724302,-0.56291807,3.3380318,-2.8943212,-6.0150113,4.4819636
1747672199.7579548,5.724302,-0.56291807,3.3380318,-2.8943212,-6.0150113,4.4819636
1747672199.7587626,5.724302,-0.56291807,3.3380318,-2.8943212,-6.0150113,4.4819636
1747672199.7596939,5.724302,-0.56291807,3.3380318,-2.8943212,-6.0150113,4.4819636
1747672199.7604969,5.724302,-0.56291807,3.3380318,-2.8943212,-6.0150113,4.4819636
1747672199.7613611,5.724302,-0.56291807,3.3380318,-2.8943212,-6.0150113,4.4819636
1747672199.7621598,5.444612,0.5734125,3.7729418,-3.1489193,-6.0640135,2.7264092
1747672199.762982,5.444612,0.5734125,3.7729418,-3.1489193,-6.0640135,2.7264092
1747672199.7638752,5.444612,0.5734125,3.7729418,-3.1489193,-6.0640135,2.7264092
1747672199.764682,5.444612,0.5734125,3.7729418,-3.1489193,-6.0640135,2.7264092
1747672199.766782,5.444612,0.5734125,3.7729418,-3.1489193,-6.0640135,2.7264092
1747672199.7676034,5.444612,0.5734125,3.7729418,-3.1489193,-6.0640135,2.7264092
1747672199.768534,5.444612,0.5734125,3.7729418,-3.1489193,-6.0640135,2.7264092
1747672199.7695732,5.444612,0.5734125,3.7729418,-3.1489193,-6.0640135,2.7264092
1747672199.7705195,5.444612,0.5734125,3.7729418,-3.1489193,-6.0640135,2.7264092
1747672199.7714279,5.444612,0.5734125,3.7729418,-3.1489193,-6.0640135,2.7264092
1747672199.772366,5.444612,0.5734125,3.7729418,-3.1489193,-6.0640135,2.7264092
1747672199.7731724,4.5547795,1.7224339,4.216638,-3.4567804,-5.481314,2.362089
1747672199.773928,4.5547795,1.7224339,4.216638,-3.4567804,-5.481314,2.362089
1747672199.7746499,4.5547795,1.7224339,4.216638,-3.4567804,-5.481314,2.362089
1747672199.7754197,4.5547795,1.7224339,4.216638,-3.4567804,-5.481314,2.362089
1747672199.7761781,4.5547795,1.7224339,4.216638,-3.4567804,-5.481314,2.362089
1747672199.7768705,4.5547795,1.7224339,4.216638,-3.4567804,-5.481314,2.362089
1747672199.7775536,4.5547795,1.7224339,4.216638,-3.4567804,-5.481314,2.362089
1747672199.7782354,4.5547795,1.7224339,4.216638,-3.4567804,-5.481314,2.362089
1747672199.778927,4.5547795,1.7224339,4.216638,-3.4567804,-5.481314,2.362089
1747672199.7796605,4.5547795,1.7224339,4.216638,-3.4567804,-5.481314,2.362089
1747672199.780384,4.5547795,1.7224339,4.216638,-3.4567804,-5.481314,2.362089
1747672199.7811117,4.5547795,1.7224339,4.216638,-3.4567804,-5.481314,2.362089
1747672199.7818155,4.5547795,1.7224339,4.216638,-3.4567804,-5.481314,2.362089
1747672199.7825618,4.5547795,1.7224339,4.216638,-3.4567804,-5.481314,2.362089
1747672199.783317,4.5547795,1.7224339,4.216638,-3.4567804,-5.481314,2.362089
1747672199.7845814,4.5547795,1.7224339,4.216638,-3.4567804,-5.481314,2.362089
1747672199.785545,5.409956,2.1993217,4.497304,-4.0820904,-3.9015281,3.0609019
1747672199.7865193,5.409956,2.1993217,4.497304,-4.0820904,-3.9015281,3.0609019
1747672199.787372,5.409956,2.1993217,4.497304,-4.0820904,-3.9015281,3.0609019
1747672199.788181,5.409956,2.1993217,4.497304,-4.0820904,-3.9015281,3.0609019
1747672199.7890055,5.409956,2.1993217,4.497304,-4.0820904,-3.9015281,3.0609019
1747672199.7897868,5.409956,2.1993217,4.497304,-4.0820904,-3.9015281,3.0609019
1747672199.7906406,5.409956,2.1993217,4.497304,-4.0820904,-3.9015281,3.0609019
1747672199.791462,5.409956,2.1993217,4.497304,-4.0820904,-3.9015281,3.0609019
1747672199.792259,5.409956,2.1993217,4.497304,-4.0820904,-3.9015281,3.0609019
1747672199.7930603,5.409956,2.1993217,4.497304,-4.0820904,-3.9015281,3.0609019
1747672199.793883,5.409956,2.1993217,4.497304,-4.0820904,-3.9015281,3.0609019
1747672199.7946675,5.409956,2.1993217,4.497304,-4.0820904,-3.9015281,3.0609019
1747672199.7956772,7.305793,1.7678286,5.6804934,-4.9300404,-1.2554132,2.5772722
1747672199.796469,7.305793,1.7678286,5.6804934,-4.9300404,-1.2554132,2.5772722
1747672199.7972581,7.305793,1.7678286,5.6804934,-4.9300404,-1.2554132,2.5772722
1747672199.7990842,7.305793,1.7678286,5.6804934,-4.9300404,-1.2554132,2.5772722
1747672199.8000255,7.305793,1.7678286,5.6804934,-4.9300404,-1.2554132,2.5772722
1747672199.8015335,7.305793,1.7678286,5.6804934,-4.9300404,-1.2554132,2.5772722
1747672199.802774,7.305793,1.7678286,5.6804934,-4.9300404,-1.2554132,2.5772722
1747672199.805369,7.305793,1.7678286,5.6804934,-4.9300404,-1.2554132,2.5772722
1747672199.806414,7.305793,1.7678286,5.6804934,-4.9300404,-1.2554132,2.5772722
1747672199.8078794,7.8676124,1.4803293,6.356044,-4.9066043,0.039947387,1.4193306
1747672199.8088036,7.8676124,1.4803293,6.356044,-4.9066043,0.039947387,1.4193306
1747672199.809629,7.8676124,1.4803293,6.356044,-4.9066043,0.039947387,1.4193306
1747672199.8106556,7.8676124,1.4803293,6.356044,-4.9066043,0.039947387,1.4193306
1747672199.811628,7.8676124,1.4803293,6.356044,-4.9066043,0.039947387,1.4193306
1747672199.8128142,7.8676124,1.4803293,6.356044,-4.9066043,0.039947387,1.4193306
1747672199.8136923,7.8676124,1.4803293,6.356044,-4.9066043,0.039947387,1.4193306
1747672199.8145063,7.110059,0.6280813,8.575989,-3.5771554,2.4165506,-0.69308716
1747672199.8155723,7.110059,0.6280813,8.575989,-3.5771554,2.4165506,-0.69308716
1747672199.8164194,7.110059,0.6280813,8.575989,-3.5771554,2.4165506,-0.69308716
1747672199.8171802,7.110059,0.6280813,8.575989,-3.5771554,2.4165506,-0.69308716
1747672199.8179564,7.110059,0.6280813,8.575989,-3.5771554,2.4165506,-0.69308716
1747672199.8187354,7.110059,0.6280813,8.575989,-3.5771554,2.4165506,-0.69308716
1747672199.8195064,7.110059,0.6280813,8.575989,-3.5771554,2.4165506,-0.69308716
1747672199.8202717,7.110059,0.6280813,8.575989,-3.5771554,2.4165506,-0.69308716
1747672199.8210175,7.110059,0.6280813,8.575989,-3.5771554,2.4165506,-0.69308716
1747672199.82179,7.110059,0.6280813,8.575989,-3.5771554,2.4165506,-0.69308716
1747672199.822514,7.110059,0.6280813,8.575989,-3.5771554,2.4165506,-0.69308716
1747672199.8232412,7.110059,0.6280813,8.575989,-3.5771554,2.4165506,-0.69308716
1747672199.8240256,7.110059,0.6280813,8.575989,-3.5771554,2.4165506,-0.69308716
1747672199.824805,7.110059,0.6280813,8.575989,-3.5771554,2.4165506,-0.69308716
1747672199.8255734,5.1414933,0.0057353457,9.884624,-3.5771554,2.4165506,-0.69308716
1747672199.8263214,5.1414933,0.0057353457,9.884624,-3.5771554,2.4165506,-0.69308716
1747672199.827075,5.1414933,0.0057353457,9.884624,-3.5771554,2.4165506,-0.69308716
1747672199.8278034,5.1414933,0.0057353457,9.884624,-3.5771554,2.4165506,-0.69308716
1747672199.8285556,5.1414933,0.0057353457,9.884624,-3.5771554,2.4165506,-0.69308716
1747672199.8293202,5.1414933,0.0057353457,9.884624,-3.5771554,2.4165506,-0.69308716
1747672199.8300831,5.1414933,0.0057353457,9.884624,-3.5771554,2.4165506,-0.69308716
1747672199.8308482,5.1414933,0.0057353457,9.884624,-3.5771554,2.4165506,-0.69308716
1747672199.831653,5.1414933,0.0057353457,9.884624,-3.5771554,2.4165506,-0.69308716
1747672199.8329453,5.1414933,0.0057353457,9.884624,-3.5771554,2.4165506,-0.69308716
1747672199.8340533,5.1414933,0.0057353457,9.884624,-3.5771554,2.4165506,-0.69308716
1747672199.8350081,5.1414933,0.0057353457,9.884624,-3.5771554,2.4165506,-0.69308716
1747672199.8360388,5.1414933,0.0057353457,9.884624,-3.5771554,2.4165506,-0.69308716
1747672199.837016,4.0642242,-0.8884904,9.55661,4.331362,4.5577307,-1.1223884
1747672199.837873,4.0642242,-0.8884904,9.55661,4.331362,4.5577307,-1.1223884
1747672199.838883,4.0642242,-0.8884904,9.55661,4.331362,4.5577307,-1.1223884
1747672199.8399298,4.0642242,-0.8884904,9.55661,4.331362,4.5577307,-1.1223884
1747672199.841159,4.0642242,-0.8884904,9.55661,4.331362,4.5577307,-1.1223884
1747672199.8422754,4.0642242,-0.8884904,9.55661,4.331362,4.5577307,-1.1223884
1747672199.8447108,4.0642242,-0.8884904,9.55661,4.331362,4.5577307,-1.1223884
1747672199.8456595,4.0642242,-0.8884904,9.55661,4.331362,4.5577307,-1.1223884
1747672199.8507493,4.0642242,-0.8884904,9.55661,4.331362,4.5577307,-1.1223884
1747672199.8515265,4.0642242,-0.8884904,9.55661,4.331362,4.5577307,-1.1223884
1747672199.8523097,4.0642242,-0.8884904,9.55661,4.331362,4.5577307,-1.1223884
1747672199.853376,4.0642242,-0.8884904,9.55661,4.331362,4.5577307,-1.1223884
1747672199.8541498,4.5557556,-2.0438573,6.774358,9.221988,3.8312206,-0.28935224
1747672199.854932,4.5557556,-2.0438573,6.774358,9.221988,3.8312206,-0.28935224
1747672199.8559358,4.5557556,-2.0438573,6.774358,9.221988,3.8312206,-0.28935224
1747672199.8572009,4.5557556,-2.0438573,6.774358,9.221988,3.8312206,-0.28935224
1747672199.8579955,4.5557556,-2.0438573,6.774358,9.221988,3.8312206,-0.28935224
1747672199.8588376,4.5557556,-2.0438573,6.774358,9.221988,3.8312206,-0.28935224
1747672199.8598638,4.5557556,-2.0438573,6.774358,9.221988,3.8312206,-0.28935224
1747672199.860975,5.313309,-2.3713822,3.1994073,11.15118,2.8724835,-0.5183839
1747672199.862283,5.313309,-2.3713822,3.1994073,11.15118,2.8724835,-0.5183839
1747672199.863532,5.313309,-2.3713822,3.1994073,11.15118,2.8724835,-0.5183839
1747672199.8643641,5.4158134,-1.9125546,0.8066702,11.15118,2.8724835,-0.5183839
1747672199.8653252,5.4158134,-1.9125546,0.8066702,11.15118,2.8724835,-0.5183839
1747672199.8661687,5.4158134,-1.9125546,0.8066702,11.15118,2.8724835,-0.5183839
1747672199.8669386,5.4158134,-1.9125546,0.8066702,10.541849,2.4495738,-1.1191926
1747672199.867694,5.4158134,-1.9125546,0.8066702,10.541849,2.4495738,-1.1191926
1747672199.8684828,5.4158134,-1.9125546,0.8066702,10.541849,2.4495738,-1.1191926
1747672199.8692527,5.4158134,-1.9125546,0.8066702,10.541849,2.4495738,-1.1191926
1747672199.8700194,5.4158134,-1.9125546,0.8066702,10.541849,2.4495738,-1.1191926
1747672199.870757,5.4158134,-1.9125546,0.8066702,10.541849,2.4495738,-1.1191926
1747672199.8712935,5.4158134,-1.9125546,0.8066702,10.541849,2.4495738,-1.1191926
1747672199.8718328,5.4158134,-1.9125546,0.8066702,10.541849,2.4495738,-1.1191926
1747672199.8723757,5.4158134,-1.9125546,0.8066702,10.541849,2.4495738,-1.1191926
1747672199.8729255,5.4465647,-1.3165668,-0.38823408,8.223835,2.5379906,-1.8552898
1747672199.8734703,5.4465647,-1.3165668,-0.38823408,8.223835,2.5379906,-1.8552898
1747672199.874016,5.4465647,-1.3165668,-0.38823408,8.223835,2.5379906,-1.8552898
1747672199.8745553,5.4465647,-1.3165668,-0.38823408,8.223835,2.5379906,-1.8552898
1747672199.8750913,5.4465647,-1.3165668,-0.38823408,8.223835,2.5379906,-1.8552898
1747672199.875658,5.4465647,-1.3165668,-0.38823408,8.223835,2.5379906,-1.8552898
1747672199.8762496,5.4465647,-1.3165668,-0.38823408,8.223835,2.5379906,-1.8552898
1747672199.8767564,5.4465647,-1.3165668,-0.38823408,8.223835,2.5379906,-1.8552898
1747672199.8773046,5.4465647,-1.3165668,-0.38823408,8.223835,2.5379906,-1.8552898
1747672199.8778522,5.4465647,-1.3165668,-0.38823408,8.223835,2.5379906,-1.8552898
1747672199.8793414,5.4465647,-1.3165668,-0.38823408,8.223835,2.5379906,-1.8552898
1747672199.880601,5.4465647,-1.3165668,-0.38823408,8.223835,2.5379906,-1.8552898
1747672199.8813126,5.4465647,-1.3165668,-0.38823408,8.223835,2.5379906,-1.8552898
1747672199.8819356,5.4465647,-1.3165668,-0.38823408,4.9524107,3.8706355,-2.7224145
1747672199.8825555,5.4465647,-1.3165668,-0.38823408,4.9524107,3.8706355,-2.7224145
1747672199.8831966,5.4465647,-1.3165668,-0.38823408,4.9524107,3.8706355,-2.7224145
1747672199.8842642,5.4465647,-1.3165668,-0.38823408,4.9524107,3.8706355,-2.7224145
1747672199.8848445,5.4465647,-1.3165668,-0.38823408,4.9524107,3.8706355,-2.7224145
1747672199.8854692,5.4465647,-1.3165668,-0.38823408,4.9524107,3.8706355,-2.7224145
1747672199.8862686,5.4465647,-1.3165668,-0.38823408,4.9524107,3.8706355,-2.7224145
1747672199.8896186,5.4465647,-1.3165668,-0.38823408,4.9524107,3.8706355,-2.7224145
1747672199.89025,5.4465647,-1.3165668,-0.38823408,4.9524107,3.8706355,-2.7224145
1747672199.8914921,5.4465647,-1.3165668,-0.38823408,4.9524107,3.8706355,-2.7224145
1747672199.8966014,5.4465647,-1.3165668,-0.38823408,4.9524107,3.8706355,-2.7224145
1747672199.8972335,5.8209486,-0.8225949,-0.7552962,1.5755249,6.2600217,-3.7855475
1747672199.8980546,5.8209486,-0.8225949,-0.7552962,1.5755249,6.2600217,-3.7855475
1747672199.8991692,5.8209486,-0.8225949,-0.7552962,1.5755249,6.2600217,-3.7855475
1747672199.900229,5.8209486,-0.8225949,-0.7552962,1.5755249,6.2600217,-3.7855475
1747672199.900885,5.8209486,-0.8225949,-0.7552962,1.5755249,6.2600217,-3.7855475
1747672199.9015155,5.8209486,-0.8225949,-0.7552962,1.5755249,6.2600217,-3.7855475
1747672199.9027581,5.8209486,-0.8225949,-0.7552962,1.5755249,6.2600217,-3.7855475
1747672199.9033053,5.8209486,-0.8225949,-0.7552962,1.5755249,6.2600217,-3.7855475
1747672199.9043887,5.111718,-1.3443893,0.0012813006,-1.1526153,8.796414,-4.7272406
1747672199.9049726,5.111718,-1.3443893,0.0012813006,-1.1526153,8.796414,-4.7272406
1747672199.9055731,5.111718,-1.3443893,0.0012813006,-1.1526153,8.796414,-4.7272406
1747672199.9064546,5.111718,-1.3443893,0.0012813006,-1.1526153,8.796414,-4.7272406
1747672199.9070692,5.111718,-1.3443893,0.0012813006,-1.1526153,8.796414,-4.7272406
1747672199.9084456,5.111718,-1.3443893,0.0012813006,-1.1526153,8.796414,-4.7272406
1747672199.9095566,5.111718,-1.3443893,0.0012813006,-1.1526153,8.796414,-4.7272406
1747672199.9103203,5.111718,-1.3443893,0.0012813006,-1.1526153,8.796414,-4.7272406
1747672199.9109771,5.111718,-1.3443893,0.0012813006,-1.1526153,8.796414,-4.7272406
1747672199.9116323,5.111718,-1.3443893,0.0012813006,-1.1526153,8.796414,-4.7272406
1747672199.9123054,5.111718,-1.3443893,0.0012813006,-1.1526153,8.796414,-4.7272406
1747672199.9132457,3.8811812,-1.8051695,1.0087496,-2.7654245,10.591384,-5.153346
1747672199.9140089,3.8811812,-1.8051695,1.0087496,-2.7654245,10.591384,-5.153346
1747672199.9148438,3.8811812,-1.8051695,1.0087496,-2.7654245,10.591384,-5.153346
1747672199.9156077,3.8811812,-1.8051695,1.0087496,-2.7654245,10.591384,-5.153346
1747672199.9163616,3.8811812,-1.8051695,1.0087496,-2.7654245,10.591384,-5.153346
1747672199.9171212,3.8811812,-1.8051695,1.0087496,-2.7654245,10.591384,-5.153346
1747672199.9176314,3.8811812,-1.8051695,1.0087496,-2.7654245,10.591384,-5.153346
1747672199.918335,3.8811812,-1.8051695,1.0087496,-2.7654245,10.591384,-5.153346
1747672199.9190202,3.8811812,-1.8051695,1.0087496,-2.7654245,10.591384,-5.153346
1747672199.91971,3.8811812,-1.8051695,1.0087496,-2.7654245,10.591384,-5.153346
1747672199.9204097,3.8811812,-1.8051695,1.0087496,-2.7654245,10.591384,-5.153346
1747672199.9211433,3.8811812,-1.8051695,1.0087496,-2.7654245,10.591384,-5.153346
1747672199.9219036,3.8811812,-1.8051695,1.0087496,-2.7654245,10.591384,-5.153346
1747672199.9226565,2.7507083,-1.9774739,2.0757678,-2.7654245,10.591384,-5.153346
1747672199.92319,2.7507083,-1.9774739,2.0757678,-2.7654245,10.591384,-5.153346
1747672199.9239523,2.7507083,-1.9774739,2.0757678,-3.1127005,11.115494,-5.016992
1747672199.9246914,2.7507083,-1.9774739,2.0757678,-3.1127005,11.115494,-5.016992
1747672199.9274075,2.7507083,-1.9774739,2.0757678,-3.1127005,11.115494,-5.016992
1747672199.9282997,2.7507083,-1.9774739,2.0757678,-3.1127005,11.115494,-5.016992
1747672199.9291735,2.7507083,-1.9774739,2.0757678,-3.1127005,11.115494,-5.016992
1747672199.93034,2.7507083,-1.9774739,2.0757678,-3.1127005,11.115494,-5.016992
1747672199.9314513,2.7507083,-1.9774739,2.0757678,-3.1127005,11.115494,-5.016992
1747672199.9323142,2.7507083,-1.9774739,2.0757678,-3.1127005,11.115494,-5.016992
1747672199.933123,2.7507083,-1.9774739,2.0757678,-3.1127005,11.115494,-5.016992
1747672199.934415,2.7507083,-1.9774739,2.0757678,-3.1127005,11.115494,-5.016992
1747672199.9350839,2.7507083,-1.9774739,2.0757678,-3.1127005,11.115494,-5.016992
1747672199.9357123,2.7507083,-1.9774739,2.0757678,-3.1127005,11.115494,-5.016992
1747672199.9364161,2.7507083,-1.9774739,2.0757678,-3.1127005,11.115494,-5.016992
1747672199.936998,1.5104092,-1.9569731,3.393677,-2.26262,10.746912,-4.0731688
1747672199.937681,1.5104092,-1.9569731,3.393677,-2.26262,10.746912,-4.0731688
1747672199.9393635,1.5104092,-1.9569731,3.393677,-2.26262,10.746912,-4.0731688
1747672199.9436128,1.5104092,-1.9569731,3.393677,-2.26262,10.746912,-4.0731688
1747672199.9442487,1.5104092,-1.9569731,3.393677,-2.26262,10.746912,-4.0731688
1747672199.9450493,1.5104092,-1.9569731,3.393677,-2.26262,10.746912,-4.0731688
1747672199.9458551,1.5104092,-1.9569731,3.393677,-2.26262,10.746912,-4.0731688
1747672199.946651,1.5104092,-1.9569731,3.393677,-2.26262,10.746912,-4.0731688
1747672199.9476516,1.5104092,-1.9569731,3.393677,-2.26262,10.746912,-4.0731688
1747672199.9484456,1.5104092,-1.9569731,3.393677,-2.26262,10.746912,-4.0731688
1747672199.9490936,1.5104092,-1.9569731,3.393677,-2.26262,10.746912,-4.0731688
1747672199.9503853,1.1282157,-1.8715531,4.4011455,0.27909908,9.34609,-2.2451763
1747672199.9510305,1.1282157,-1.8715531,4.4011455,0.27909908,9.34609,-2.2451763
1747672199.9517367,1.1282157,-1.8715531,4.4011455,0.27909908,9.34609,-2.2451763
1747672199.955469,1.1282157,-1.8715531,4.4011455,0.27909908,9.34609,-2.2451763
1747672199.9559824,1.1282157,-1.8715531,4.4011455,2.9401276,7.7268896,-1.0062747
1747672199.9565394,1.1282157,-1.8715531,4.4011455,2.9401276,7.7268896,-1.0062747
1747672199.9570842,1.8618518,-1.9301267,4.5422106,2.9401276,7.7268896,-1.0062747
1747672199.9576116,1.8618518,-1.9301267,4.5422106,2.9401276,7.7268896,-1.0062747
1747672199.958155,1.8618518,-1.9301267,4.5422106,2.9401276,7.7268896,-1.0062747
1747672199.958705,1.8618518,-1.9301267,4.5422106,2.9401276,7.7268896,-1.0062747
1747672199.959266,1.8618518,-1.9301267,4.5422106,2.9401276,7.7268896,-1.0062747
1747672199.9598107,2.7316718,-2.12342,3.9979627,2.9401276,7.7268896,-1.0062747
1747672199.9603446,2.7316718,-2.12342,3.9979627,2.9401276,7.7268896,-1.0062747
1747672199.960875,2.7316718,-2.12342,3.9979627,5.411539,6.3345904,-0.5940176
1747672199.9614365,2.7316718,-2.12342,3.9979627,5.411539,6.3345904,-0.5940176
1747672199.9619923,2.7316718,-2.12342,3.9979627,5.411539,6.3345904,-0.5940176
1747672199.9625301,2.7316718,-2.12342,3.9979627,5.411539,6.3345904,-0.5940176
1747672199.9630623,2.7316718,-2.12342,3.9979627,5.411539,6.3345904,-0.5940176
1747672199.9635878,2.7316718,-2.12342,3.9979627,5.411539,6.3345904,-0.5940176
1747672199.9641325,2.7316718,-2.12342,3.9979627,5.411539,6.3345904,-0.5940176
1747672199.9646938,2.7316718,-2.12342,3.9979627,5.411539,6.3345904,-0.5940176
1747672199.9652245,2.7316718,-2.12342,3.9979627,5.411539,6.3345904,-0.5940176
1747672199.9657571,2.7316718,-2.12342,3.9979627,5.411539,6.3345904,-0.5940176
1747672199.96628,2.7316718,-2.12342,3.9979627,5.411539,6.3345904,-0.5940176
1747672199.966849,2.7316718,-2.12342,3.9979627,5.411539,6.3345904,-0.5940176
1747672199.967406,2.7316718,-2.12342,3.9979627,5.411539,6.3345904,-0.5940176
1747672199.9679444,2.7316718,-2.12342,3.9979627,5.411539,6.3345904,-0.5940176
1747672199.9684775,2.7316718,-2.12342,3.9979627,5.411539,6.3345904,-0.5940176
1747672199.96901,2.7316718,-2.12342,3.9979627,5.411539,6.3345904,-0.5940176
1747672199.969533,2.7316718,-2.12342,3.9979627,5.411539,6.3345904,-0.5940176
1747672199.9700842,2.7316718,-2.12342,3.9979627,5.411539,6.3345904,-0.5940176
1747672199.9706311,2.7316718,-2.12342,3.9979627,5.411539,6.3345904,-0.5940176
1747672199.971178,2.7316718,-2.12342,3.9979627,5.411539,6.3345904,-0.5940176
1747672199.9726615,2.7316718,-2.12342,3.9979627,5.411539,6.3345904,-0.5940176
1747672199.9747422,2.7316718,-2.12342,3.9979627,5.411539,6.3345904,-0.5940176
1747672199.9757402,2.7316718,-2.12342,3.9979627,5.411539,6.3345904,-0.5940176
1747672199.9769359,2.7316718,-2.12342,3.9979627,5.411539,6.3345904,-0.5940176
1747672199.9777408,3.2285724,-2.3567388,3.0832362,7.1862683,5.370527,-0.8070704
1747672199.9787395,3.2285724,-2.3567388,3.0832362,7.1862683,5.370527,-0.8070704
1747672199.9797418,3.2285724,-2.3567388,3.0832362,7.1862683,5.370527,-0.8070704
1747672199.9807389,3.2285724,-2.3567388,3.0832362,7.1862683,5.370527,-0.8070704
1747672199.9817402,3.2285724,-2.3567388,3.0832362,7.1862683,5.370527,-0.8070704
1747672199.9829557,3.2285724,-2.3567388,3.0832362,8.211052,4.6173854,-1.2736559
1747672199.9857702,3.2134407,-2.5563776,2.242215,8.211052,4.6173854,-1.2736559
1747672199.9867387,3.2134407,-2.5563776,2.242215,8.211052,4.6173854,-1.2736559
1747672199.987739,3.2134407,-2.5563776,2.242215,8.211052,4.6173854,-1.2736559
1747672199.9887404,3.2134407,-2.5563776,2.242215,8.211052,4.6173854,-1.2736559
1747672199.9897382,3.2134407,-2.5563776,2.242215,8.211052,4.6173854,-1.2736559
1747672199.9907389,3.2134407,-2.5563776,2.242215,8.211052,4.6173854,-1.2736559
1747672199.9917362,3.2134407,-2.5563776,2.242215,8.211052,4.6173854,-1.2736559
1747672199.992743,3.2134407,-2.5563776,2.242215,8.211052,4.6173854,-1.2736559
1747672199.993745,2.9742646,-2.592498,1.6418341,8.711726,4.0368166,-1.6411718
1747672199.9947488,2.9742646,-2.592498,1.6418341,8.711726,4.0368166,-1.6411718
1747672199.9957407,2.9742646,-2.592498,1.6418341,8.711726,4.0368166,-1.6411718
1747672199.9967475,2.9742646,-2.592498,1.6418341,8.711726,4.0368166,-1.6411718
1747672199.9977431,2.9742646,-2.592498,1.6418341,8.711726,4.0368166,-1.6411718
1747672199.9988081,2.9742646,-2.592498,1.6418341,8.711726,4.0368166,-1.6411718
1747672199.9998646,2.9742646,-2.592498,1.6418341,8.711726,4.0368166,-1.6411718
1747672200.0016263,2.9742646,-2.592498,1.6418341,8.711726,4.0368166,-1.6411718
1747672200.0027328,2.8663914,-2.579319,1.142493,8.849145,3.7832837,-1.8808562
1747672200.0035827,2.8663914,-2.579319,1.142493,8.849145,3.7832837,-1.8808562
1747672200.0043416,2.8663914,-2.579319,1.142493,8.849145,3.7832837,-1.8808562
1747672200.0050895,2.8663914,-2.579319,1.142493,8.849145,3.7832837,-1.8808562
1747672200.0058322,2.8663914,-2.579319,1.142493,8.849145,3.7832837,-1.8808562
1747672200.0066168,2.8663914,-2.579319,1.142493,8.849145,3.7832837,-1.8808562
1747672200.0073473,2.8663914,-2.579319,1.142493,8.849145,3.7832837,-1.8808562
1747672200.0080972,2.8663914,-2.579319,1.142493,8.849145,3.7832837,-1.8808562
1747672200.0088444,2.8663914,-2.579319,1.142493,8.849145,3.7832837,-1.8808562
1747672200.0095413,2.8663914,-2.579319,1.142493,8.849145,3.7832837,-1.8808562
1747672200.0102353,2.8663914,-2.579319,1.142493,8.849145,3.7832837,-1.8808562
1747672200.0109248,2.8663914,-2.579319,1.142493,8.849145,3.7832837,-1.8808562
1747672200.0116231,2.8663914,-2.579319,1.142493,8.849145,3.7832837,-1.8808562
1747672200.0123894,2.8663914,-2.579319,1.142493,8.680834,4.082623,-2.1663468
1747672200.01312,2.9596212,-2.6120226,0.7105116,8.680834,4.082623,-2.1663468
1747672200.0139005,2.9596212,-2.6120226,0.7105116,8.680834,4.082623,-2.1663468
1747672200.014688,2.9596212,-2.6120226,0.7105116,8.680834,4.082623,-2.1663468
1747672200.015429,2.9596212,-2.6120226,0.7105116,8.680834,4.082623,-2.1663468
1747672200.016171,2.9596212,-2.6120226,0.7105116,8.680834,4.082623,-2.1663468
1747672200.0169296,2.9596212,-2.6120226,0.7105116,8.680834,4.082623,-2.1663468
1747672200.0177355,2.9596212,-2.6120226,0.7105116,8.680834,4.082623,-2.1663468
1747672200.0184784,2.9596212,-2.6120226,0.7105116,8.680834,4.082623,-2.1663468
1747672200.0201054,2.9596212,-2.6120226,0.7105116,8.680834,4.082623,-2.1663468
1747672200.0289302,2.9596212,-2.6120226,0.7105116,8.680834,4.082623,-2.1663468
1747672200.0306983,2.9820745,-2.7008595,0.23557626,8.206791,4.8805056,-2.5327976
1747672200.0350847,2.9820745,-2.7008595,0.23557626,8.206791,4.8805056,-2.5327976
1747672200.0362353,2.8014722,-2.7779815,-0.12514035,7.620896,5.6560173,-2.765025
1747672200.0370727,2.8014722,-2.7779815,-0.12514035,7.620896,5.6560173,-2.765025
1747672200.0380075,2.8014722,-2.7779815,-0.12514035,7.620896,5.6560173,-2.765025
1747672200.039238,2.8014722,-2.7779815,-0.12514035,7.620896,5.6560173,-2.765025
1747672200.0405126,2.8014722,-2.7779815,-0.12514035,7.620896,5.6560173,-2.765025
1747672200.041386,2.8014722,-2.7779815,-0.12514035,7.620896,5.6560173,-2.765025
1747672200.0422475,2.8014722,-2.7779815,-0.12514035,7.620896,5.6560173,-2.765025
1747672200.043123,2.8014722,-2.7779815,-0.12514035,7.620896,5.6560173,-2.765025
1747672200.0439289,2.8014722,-2.7779815,-0.12514035,7.620896,5.6560173,-2.765025
1747672200.0450103,2.8014722,-2.7779815,-0.12514035,7.620896,5.6560173,-2.765025
1747672200.0458128,2.8014722,-2.7779815,-0.12514035,7.620896,5.6560173,-2.765025
1747672200.0466228,2.8014722,-2.7779815,-0.12514035,7.620896,5.6560173,-2.765025
1747672200.047439,2.8014722,-2.7779815,-0.12514035,7.620896,5.6560173,-2.765025
1747672200.0483346,2.3943846,-2.73698,-0.39994884,6.72714,6.442182,-2.857703
1747672200.0491266,2.3943846,-2.73698,-0.39994884,6.72714,6.442182,-2.857703
1747672200.0499134,2.3943846,-2.73698,-0.39994884,6.72714,6.442182,-2.857703
1747672200.0506954,2.3943846,-2.73698,-0.39994884,6.72714,6.442182,-2.857703
1747672200.051491,2.3943846,-2.73698,-0.39994884,6.72714,6.442182,-2.857703
1747672200.0522828,2.3943846,-2.73698,-0.39994884,6.72714,6.442182,-2.857703
1747672200.0530853,2.3943846,-2.73698,-0.39994884,6.72714,6.442182,-2.857703
1747672200.053845,2.3943846,-2.73698,-0.39994884,6.72714,6.442182,-2.857703
1747672200.0545983,2.3943846,-2.73698,-0.39994884,6.72714,6.442182,-2.857703
1747672200.05535,2.3943846,-2.73698,-0.39994884,6.72714,6.442182,-2.857703
1747672200.0560594,2.3943846,-2.73698,-0.39994884,5.7066174,6.8001103,-2.6116269
1747672200.0568044,2.3943846,-2.73698,-0.39994884,5.7066174,6.8001103,-2.6116269
1747672200.0575104,1.799373,-2.5285552,-0.35748285,5.7066174,6.8001103,-2.6116269
1747672200.0581987,1.799373,-2.5285552,-0.35748285,5.7066174,6.8001103,-2.6116269
1747672200.0588849,1.799373,-2.5285552,-0.35748285,5.7066174,6.8001103,-2.6116269
1747672200.0596116,1.799373,-2.5285552,-0.35748285,5.7066174,6.8001103,-2.6116269
1747672200.0603547,1.799373,-2.5285552,-0.35748285,5.7066174,6.8001103,-2.6116269
1747672200.0610857,1.799373,-2.5285552,-0.35748285,5.7066174,6.8001103,-2.6116269
1747672200.061793,1.799373,-2.5285552,-0.35748285,5.7066174,6.8001103,-2.6116269
1747672200.0625427,1.799373,-2.5285552,-0.35748285,5.7066174,6.8001103,-2.6116269
1747672200.063243,1.799373,-2.5285552,-0.35748285,5.7066174,6.8001103,-2.6116269
1747672200.0639858,1.799373,-2.5285552,-0.35748285,5.7066174,6.8001103,-2.6116269
1747672200.0647414,1.799373,-2.5285552,-0.35748285,5.7066174,6.8001103,-2.6116269
1747672200.0654774,1.799373,-2.5285552,-0.35748285,5.7066174,6.8001103,-2.6116269
1747672200.066993,1.799373,-2.5285552,-0.35748285,5.7066174,6.8001103,-2.6116269
1747672200.0680583,1.4044884,-2.357715,-0.20958416,5.079177,6.5210114,-2.167412
1747672200.0689006,1.4044884,-2.357715,-0.20958416,5.079177,6.5210114,-2.167412
1747672200.069713,1.4044884,-2.357715,-0.20958416,5.079177,6.5210114,-2.167412
1747672200.070549,1.4044884,-2.357715,-0.20958416,5.079177,6.5210114,-2.167412
1747672200.0714052,1.4044884,-2.357715,-0.20958416,5.079177,6.5210114,-2.167412
1747672200.0722067,1.4044884,-2.357715,-0.20958416,5.079177,6.5210114,-2.167412
1747672200.073187,1.4044884,-2.357715,-0.20958416,5.079177,6.5210114,-2.167412
1747672200.0741658,1.1658005,-2.2132332,-0.062173583,4.508196,5.953226,-1.5122749
1747672200.0753312,1.1658005,-2.2132332,-0.062173583,4.508196,5.953226,-1.5122749
1747672200.0764487,1.1658005,-2.2132332,-0.062173583,4.508196,5.953226,-1.5122749
1747672200.0777602,1.1658005,-2.2132332,-0.062173583,4.508196,5.953226,-1.5122749
1747672200.0787458,1.1658005,-2.2132332,-0.062173583,4.508196,5.953226,-1.5122749
1747672200.0799363,1.1658005,-2.2132332,-0.062173583,4.508196,5.953226,-1.5122749
1747672200.0811474,1.1658005,-2.2132332,-0.062173583,4.508196,5.953226,-1.5122749
1747672200.0823085,1.1658005,-2.2132332,-0.062173583,4.508196,5.953226,-1.5122749
1747672200.0834148,1.0857497,-2.122444,0.1726095,4.251467,5.5036845,-1.0851042
1747672200.0847738,1.0857497,-2.122444,0.1726095,4.251467,5.5036845,-1.0851042
1747672200.0855877,1.0857497,-2.122444,0.1726095,4.251467,5.5036845,-1.0851042
1747672200.0863771,1.0857497,-2.122444,0.1726095,4.251467,5.5036845,-1.0851042
1747672200.0873327,1.0857497,-2.122444,0.1726095,4.251467,5.5036845,-1.0851042
1747672200.0881822,1.0857497,-2.122444,0.1726095,4.251467,5.5036845,-1.0851042
1747672200.0889728,1.0857497,-2.122444,0.1726095,4.251467,5.5036845,-1.0851042
1747672200.0897706,1.0857497,-2.122444,0.1726095,4.251467,5.5036845,-1.0851042
1747672200.0906692,1.0857497,-2.122444,0.1726095,4.251467,5.5036845,-1.0851042
1747672200.0929835,1.1950873,-2.0355594,0.36248603,4.0906124,4.7952843,-0.6451503
1747672200.0948749,1.1950873,-2.0355594,0.36248603,4.0906124,4.7952843,-0.6451503
1747672200.095717,1.1950873,-2.0355594,0.36248603,4.0906124,4.7952843,-0.6451503
1747672200.096531,1.1950873,-2.0355594,0.36248603,4.0906124,4.7952843,-0.6451503
1747672200.0974526,1.1950873,-2.0355594,0.36248603,4.0906124,4.7952843,-0.6451503
1747672200.0982559,1.1950873,-2.0355594,0.36248603,4.0906124,4.7952843,-0.6451503
1747672200.0990293,1.1950873,-2.0355594,0.36248603,4.0906124,4.7952843,-0.6451503
1747672200.0998123,1.1950873,-2.0355594,0.36248603,4.0906124,4.7952843,-0.6451503
1747672200.100551,1.1950873,-2.0355594,0.36248603,4.0906124,4.7952843,-0.6451503
1747672200.101288,1.1950873,-2.0355594,0.36248603,4.0906124,4.7952843,-0.6451503
1747672200.1020224,1.5372555,-1.9574611,0.4937888,4.024566,3.989945,-0.46938178
1747672200.102742,1.5372555,-1.9574611,0.4937888,4.024566,3.989945,-0.46938178
1747672200.1034915,1.5372555,-1.9574611,0.4937888,4.024566,3.989945,-0.46938178
1747672200.1041949,1.5372555,-1.9574611,0.4937888,4.024566,3.989945,-0.46938178
1747672200.1048958,1.5372555,-1.9574611,0.4937888,4.024566,3.989945,-0.46938178
1747672200.1056464,1.5372555,-1.9574611,0.4937888,4.024566,3.989945,-0.46938178
1747672200.10636,1.5372555,-1.9574611,0.4937888,4.024566,3.989945,-0.46938178
1747672200.107082,1.5372555,-1.9574611,0.4937888,4.024566,3.989945,-0.46938178
1747672200.1078196,1.5372555,-1.9574611,0.4937888,4.024566,3.989945,-0.46938178
1747672200.1085138,1.5372555,-1.9574611,0.4937888,4.024566,3.989945,-0.46938178
1747672200.1092544,1.5372555,-1.9574611,0.4937888,4.024566,3.989945,-0.46938178
1747672200.1099875,1.5372555,-1.9574611,0.4937888,4.024566,3.989945,-0.46938178
1747672200.110696,1.5372555,-1.9574611,0.4937888,4.024566,3.989945,-0.46938178
1747672200.1114645,1.5372555,-1.9574611,0.4937888,3.9958038,3.3603742,-0.6334324
1747672200.1122358,1.8520895,-1.9330554,0.6114244,3.9958038,3.3603742,-0.6334324
1747672200.1136205,1.8520895,-1.9330554,0.6114244,3.9958038,3.3603742,-0.6334324
1747672200.1150315,1.8520895,-1.9330554,0.6114244,3.9958038,3.3603742,-0.6334324
1747672200.1158783,1.8520895,-1.9330554,0.6114244,3.9958038,3.3603742,-0.6334324
1747672200.1167336,1.8520895,-1.9330554,0.6114244,3.9958038,3.3603742,-0.6334324
1747672200.117539,1.8520895,-1.9330554,0.6114244,3.9958038,3.3603742,-0.6334324
1747672200.1183844,1.8520895,-1.9330554,0.6114244,3.9958038,3.3603742,-0.6334324
1747672200.1191926,1.8520895,-1.9330554,0.6114244,3.9958038,3.3603742,-0.6334324
1747672200.1204517,1.8520895,-1.9330554,0.6114244,3.9958038,3.3603742,-0.6334324
1747672200.1225975,1.8520895,-1.9330554,0.6114244,3.9958038,3.3603742,-0.6334324
1747672200.1234381,1.8481846,-1.8637432,0.6812248,4.0032606,3.1846056,-0.9636641
1747672200.1244884,1.8481846,-1.8637432,0.6812248,4.0032606,3.1846056,-0.9636641
1747672200.1254196,1.8481846,-1.8637432,0.6812248,4.0032606,3.1846056,-0.9636641
1747672200.1262357,1.8481846,-1.8637432,0.6812248,4.0032606,3.1846056,-0.9636641
1747672200.1270423,1.8481846,-1.8637432,0.6812248,4.0032606,3.1846056,-0.9636641
1747672200.12875,1.8481846,-1.8637432,0.6812248,4.0032606,3.1846056,-0.9636641
1747672200.1297717,1.8481846,-1.8637432,0.6812248,4.0032606,3.1846056,-0.9636641
1747672200.1309464,1.8481846,-1.8637432,0.6812248,4.0032606,3.1846056,-0.9636641
1747672200.1322181,1.8481846,-1.8637432,0.6812248,4.0032606,3.1846056,-0.9636641
1747672200.133019,1.8481846,-1.8637432,0.6812248,4.0032606,3.1846056,-0.9636641
1747672200.1338265,1.8481846,-1.8637432,0.6812248,4.0032606,3.1846056,-0.9636641
1747672200.1346958,1.8481846,-1.8637432,0.6812248,4.0032606,3.1846056,-0.9636641
1747672200.1355622,1.7720386,-1.8207891,0.6617002,3.9936733,3.2890015,-1.0584726
1747672200.136521,1.7720386,-1.8207891,0.6617002,3.9936733,3.2890015,-1.0584726
1747672200.1378744,1.7720386,-1.8207891,0.6617002,3.9936733,3.2890015,-1.0584726
1747672200.1386902,1.7720386,-1.8207891,0.6617002,3.9936733,3.2890015,-1.0584726
1747672200.1396122,1.7720386,-1.8207891,0.6617002,3.9936733,3.2890015,-1.0584726
1747672200.1404073,1.7720386,-1.8207891,0.6617002,3.9936733,3.2890015,-1.0584726
1747672200.1416159,1.7720386,-1.8207891,0.6617002,3.9936733,3.2890015,-1.0584726
1747672200.1424391,1.7720386,-1.8207891,0.6617002,3.9936733,3.2890015,-1.0584726
1747672200.1432307,1.7720386,-1.8207891,0.6617002,3.9936733,3.2890015,-1.0584726
1747672200.1440942,1.7720386,-1.8207891,0.6617002,3.9936733,3.2890015,-1.0584726
1747672200.1449184,1.7720386,-1.8207891,0.6617002,3.9936733,3.2890015,-1.0584726
1747672200.1457205,1.6465932,-1.7719775,0.6343658,3.9936733,3.2890015,-1.0584726
1747672200.146491,1.6465932,-1.7719775,0.6343658,3.9361491,3.5478606,-1.096822
1747672200.1472445,1.6465932,-1.7719775,0.6343658,3.9361491,3.5478606,-1.096822
1747672200.147978,1.6465932,-1.7719775,0.6343658,3.9361491,3.5478606,-1.096822
1747672200.1487525,1.6465932,-1.7719775,0.6343658,3.9361491,3.5478606,-1.096822
1747672200.149506,1.6465932,-1.7719775,0.6343658,3.9361491,3.5478606,-1.096822
1747672200.150238,1.6465932,-1.7719775,0.6343658,3.9361491,3.5478606,-1.096822
1747672200.1509614,1.6465932,-1.7719775,0.6343658,3.9361491,3.5478606,-1.096822
1747672200.151708,1.6465932,-1.7719775,0.6343658,3.9361491,3.5478606,-1.096822
1747672200.1524658,1.6465932,-1.7719775,0.6343658,3.9361491,3.5478606,-1.096822
1747672200.1532278,1.6465932,-1.7719775,0.6343658,3.9361491,3.5478606,-1.096822
1747672200.153968,1.6465932,-1.7719775,0.6343658,3.9361491,3.5478606,-1.096822
1747672200.1546788,1.6465932,-1.7719775,0.6343658,3.9361491,3.5478606,-1.096822
1747672200.1554193,1.6465932,-1.7719775,0.6343658,3.9361491,3.5478606,-1.096822
1747672200.1561418,1.6465932,-1.7719775,0.6343658,3.9361491,3.5478606,-1.096822
1747672200.1568413,1.5074806,-1.7461076,0.64656866,3.9361491,3.5478606,-1.096822
1747672200.1575794,1.5074806,-1.7461076,0.64656866,3.9361491,3.5478606,-1.096822
1747672200.1583176,1.5074806,-1.7461076,0.64656866,3.9361491,3.5478606,-1.096822
1747672200.159034,1.5074806,-1.7461076,0.64656866,3.9361491,3.5478606,-1.096822
1747672200.159712,1.5074806,-1.7461076,0.64656866,3.9361491,3.5478606,-1.096822
1747672200.1603925,1.5074806,-1.7461076,0.64656866,3.9361491,3.5478606,-1.096822
1747672200.1611316,1.5074806,-1.7461076,0.64656866,3.894604,3.703389,-0.99136096
1747672200.1628695,1.5074806,-1.7461076,0.64656866,3.894604,3.703389,-0.99136096
1747672200.163726,1.5074806,-1.7461076,0.64656866,3.894604,3.703389,-0.99136096
1747672200.1645381,1.5074806,-1.7461076,0.64656866,3.894604,3.703389,-0.99136096
1747672200.165373,1.5074806,-1.7461076,0.64656866,3.894604,3.703389,-0.99136096
1747672200.166192,1.5074806,-1.7461076,0.64656866,3.894604,3.703389,-0.99136096
1747672200.1679626,1.3366405,-1.7578224,0.74809647,3.9521282,3.6607785,-0.6962829
1747672200.1688027,1.3366405,-1.7578224,0.74809647,3.9521282,3.6607785,-0.6962829
1747672200.1696663,1.3366405,-1.7578224,0.74809647,3.9521282,3.6607785,-0.6962829
1747672200.1705747,1.3366405,-1.7578224,0.74809647,3.9521282,3.6607785,-0.6962829
1747672200.1716213,1.3366405,-1.7578224,0.74809647,3.9521282,3.6607785,-0.6962829
1747672200.1728046,1.3366405,-1.7578224,0.74809647,3.9521282,3.6607785,-0.6962829
1747672200.1736677,1.3366405,-1.7578224,0.74809647,3.9521282,3.6607785,-0.6962829
1747672200.1747353,1.3366405,-1.7578224,0.74809647,3.9521282,3.6607785,-0.6962829
1747672200.17566,1.3366405,-1.7578224,0.74809647,3.9521282,3.6607785,-0.6962829
1747672200.1776268,1.1452997,-1.8198129,0.724667,4.1396146,3.50525,-0.28935224
1747672200.1784372,1.1452997,-1.8198129,0.724667,4.1396146,3.50525,-0.28935224
1747672200.1792293,1.1452997,-1.8198129,0.724667,4.1396146,3.50525,-0.28935224
1747672200.1800206,1.1452997,-1.8198129,0.724667,4.1396146,3.50525,-0.28935224
1747672200.1808083,1.1452997,-1.8198129,0.724667,4.1396146,3.50525,-0.28935224
1747672200.1816332,1.1452997,-1.8198129,0.724667,4.1396146,3.50525,-0.28935224
1747672200.1832736,1.1452997,-1.8198129,0.724667,4.1396146,3.50525,-0.28935224
1747672200.1846294,1.0130206,-1.8456829,0.4967175,4.1396146,3.50525,-0.28935224
1747672200.1855035,1.0130206,-1.8456829,0.4967175,4.1396146,3.50525,-0.28935224
1747672200.186295,1.0130206,-1.8456829,0.4967175,4.1396146,3.50525,-0.28935224
1747672200.1870918,1.0130206,-1.8456829,0.4967175,4.1396146,3.50525,-0.28935224
1747672200.188054,1.0130206,-1.8456829,0.4967175,4.1396146,3.50525,-0.28935224
1747672200.1891334,1.0130206,-1.8456829,0.4967175,4.1396146,3.50525,-0.28935224
1747672200.189949,1.0130206,-1.8456829,0.4967175,4.1396146,3.50525,-0.28935224
1747672200.1910298,1.0130206,-1.8456829,0.4967175,4.1396146,3.50525,-0.28935224
1747672200.1918314,1.0130206,-1.8456829,0.4967175,4.1396146,3.50525,-0.28935224
1747672200.1926377,1.0130206,-1.8456829,0.4967175,4.1396146,3.50525,-0.28935224
1747672200.1934454,1.0130206,-1.8456829,0.4967175,4.1396146,3.50525,-0.28935224
1747672200.1942322,1.1780033,-1.8085862,0.26925614,4.2120523,3.3891363,0.7066693
1747672200.1951325,1.1780033,-1.8085862,0.26925614,4.2120523,3.3891363,0.7066693
1747672200.1959004,1.1780033,-1.8085862,0.26925614,4.2120523,3.3891363,0.7066693
1747672200.19669,1.1780033,-1.8085862,0.26925614,4.2120523,3.3891363,0.7066693
1747672200.1974616,1.1780033,-1.8085862,0.26925614,4.2120523,3.3891363,0.7066693
1747672200.1981976,1.1780033,-1.8085862,0.26925614,4.2120523,3.3891363,0.7066693
1747672200.1989894,1.1780033,-1.8085862,0.26925614,4.2120523,3.3891363,0.7066693
1747672200.1996987,1.1780033,-1.8085862,0.26925614,4.2120523,3.3891363,0.7066693
1747672200.2003996,1.5875314,-1.803217,0.004209988,4.2120523,3.3891363,0.7066693
1747672200.2011032,1.5875314,-1.803217,0.004209988,4.1651807,3.056774,0.8291746
1747672200.2018104,1.5875314,-1.803217,0.004209988,4.1651807,3.056774,0.8291746
