timestamp,acc_x,acc_y,acc_z,gyro_x,gyro_y,gyro_z
1747679542.294862,-0.14771566,0.70959646,0.6617002,0.10026794,-0.4275702,-0.29907277
1747679542.2954006,-0.14771566,0.70959646,0.6617002,0.10026794,-0.4275702,-0.29907277
1747679542.295925,-0.14771566,0.70959646,0.6617002,0.10026794,-0.4275702,-0.29907277
1747679542.2964432,-0.14771566,0.70959646,0.6617002,0.10026794,-0.4275702,-0.29907277
1747679542.2969618,-0.14771566,0.70959646,0.6617002,0.10026794,-0.4275702,-0.29907277
1747679542.2974854,-0.14771566,0.70959646,0.6617002,0.10026794,-0.4275702,-0.29907277
1747679542.2980406,-0.14771566,0.70959646,0.6617002,0.10026794,-0.4275702,-0.29907277
1747679542.298593,-0.14771566,0.70959646,0.6617002,0.10026794,-0.4275702,-0.29907277
1747679542.2991257,-0.14771566,0.70959646,0.6617002,0.10026794,-0.4275702,-0.29907277
1747679542.2996461,-0.14771566,0.70959646,0.6617002,0.10026794,-0.4275702,-0.29907277
1747679542.3001647,-0.14771566,0.70959646,0.6617002,0.10026794,-0.4275702,-0.29907277
1747679542.300683,-0.14771566,0.70959646,0.6617002,0.10026794,-0.4275702,-0.29907277
1747679542.3012009,-0.14771566,0.70959646,0.6617002,0.10026794,-0.4275702,-0.29907277
1747679542.301745,-0.14771566,0.70959646,0.6617002,0.10026794,-0.4275702,-0.29907277
1747679542.3024602,-0.3824987,0.70227474,0.7051424,0.10879005,-0.7854988,-0.22237378
1747679542.303468,-0.3824987,0.70227474,0.7051424,0.10879005,-0.7854988,-0.22237378
1747679542.3040304,-0.3824987,0.70227474,0.7051424,0.10879005,-0.7854988,-0.22237378
1747679542.3045819,-0.3824987,0.70227474,0.7051424,0.10879005,-0.7854988,-0.22237378
1747679542.3051229,-0.3824987,0.70227474,0.7051424,0.10879005,-0.7854988,-0.22237378
1747679542.3056633,-0.3824987,0.70227474,0.7051424,0.10879005,-0.7854988,-0.22237378
1747679542.3062046,-0.3824987,0.70227474,0.7051424,0.10879005,-0.7854988,-0.22237378
1747679542.306745,-0.3824987,0.70227474,0.7051424,0.10879005,-0.7854988,-0.22237378
1747679542.3072865,-0.3824987,0.70227474,0.7051424,0.10879005,-0.7854988,-0.22237378
1747679542.3078265,-0.3824987,0.70227474,0.7051424,0.10879005,-0.7854988,-0.22237378
1747679542.3086958,-0.3824987,0.70227474,0.7051424,0.10879005,-0.7854988,-0.22237378
1747679542.309258,-0.3824987,0.70227474,0.7051424,0.10879005,-0.7854988,-0.22237378
1747679542.3098283,-0.3824987,0.70227474,0.7051424,0.10879005,-0.7854988,-0.22237378
1747679542.3103786,-0.3824987,0.70227474,0.7051424,0.10879005,-0.7854988,-0.22237378
1747679542.310915,-0.3824987,0.70227474,0.7051424,0.10879005,-0.7854988,-0.22237378
1747679542.311451,-0.41032124,0.682262,0.7749428,0.1514006,-0.8984167,0.042876862
1747679542.311984,-0.41032124,0.682262,0.7749428,0.1514006,-0.8984167,0.042876862
1747679542.312515,-0.41032124,0.682262,0.7749428,0.1514006,-0.8984167,0.042876862
1747679542.3130457,-0.41032124,0.682262,0.7749428,0.1514006,-0.8984167,0.042876862
1747679542.3141959,-0.41032124,0.682262,0.7749428,0.1514006,-0.8984167,0.042876862
1747679542.3147428,-0.41032124,0.682262,0.7749428,0.1514006,-0.8984167,0.042876862
1747679542.3152907,-0.41032124,0.682262,0.7749428,0.1514006,-0.8984167,0.042876862
1747679542.3158429,-0.41032124,0.682262,0.7749428,0.1514006,-0.8984167,0.042876862
1747679542.3165615,-0.41032124,0.682262,0.7749428,0.1514006,-0.8984167,0.042876862
1747679542.3188536,-0.2975668,0.6729879,0.85060054,0.21531641,-0.9165262,0.2761696
1747679542.3221426,-0.2975668,0.6729879,0.85060054,0.21531641,-0.9165262,0.2761696
1747679542.3459954,0.19786942,0.71935874,0.7876338,0.22383852,0.0017310535,0.22397168
1747679542.347318,0.19786942,0.71935874,0.7876338,0.22383852,0.0017310535,0.22397168
1747679542.3503094,0.28231323,0.7730513,0.7466321,0.124769,0.50560075,-0.05086634
1747679542.3508694,0.28231323,0.7730513,0.7466321,0.124769,0.50560075,-0.05086634
1747679542.3514178,0.28231323,0.7730513,0.7466321,0.124769,0.50560075,-0.05086634
1747679542.3519657,0.28231323,0.7730513,0.7466321,0.124769,0.50560075,-0.05086634
1747679542.352518,0.28231323,0.7730513,0.7466321,0.124769,0.50560075,-0.05086634
1747679542.3530626,0.28231323,0.7730513,0.7466321,0.124769,0.50560075,-0.05086634
1747679542.3536007,0.28231323,0.7730513,0.7466321,0.124769,0.50560075,-0.05086634
1747679542.3541336,0.28231323,0.7730513,0.7466321,0.124769,0.50560075,-0.05086634
1747679542.3546674,0.28231323,0.7730513,0.7466321,0.124769,0.50560075,-0.05086634
1747679542.3551993,0.28231323,0.7730513,0.7466321,0.124769,0.50560075,-0.05086634
1747679542.3557305,0.28231323,0.7730513,0.7466321,0.124769,0.50560075,-0.05086634
1747679542.3562596,0.28231323,0.7730513,0.7466321,0.124769,0.50560075,-0.05086634
1747679542.3567805,0.28231323,0.7730513,0.7466321,0.124769,0.50560075,-0.05086634
1747679542.357301,0.28231323,0.7730513,0.7466321,0.124769,0.50560075,-0.05086634
1747679542.3578258,0.19689319,0.805755,0.6929395,0.015046849,0.7676556,-0.3683149
1747679542.3583472,0.19689319,0.805755,0.6929395,0.015046849,0.7676556,-0.3683149
1747679542.358866,0.19689319,0.805755,0.6929395,0.015046849,0.7676556,-0.3683149
1747679542.3593843,0.19689319,0.805755,0.6929395,0.015046849,0.7676556,-0.3683149
1747679542.3599076,0.19689319,0.805755,0.6929395,0.015046849,0.7676556,-0.3683149
1747679542.362293,0.19689319,0.805755,0.6929395,0.015046849,0.7676556,-0.3683149
1747679542.3632174,0.19689319,0.805755,0.6929395,0.015046849,0.7676556,-0.3683149
1747679542.3637762,0.19689319,0.805755,0.6929395,0.015046849,0.7676556,-0.3683149
1747679542.3643205,0.19689319,0.805755,0.6929395,0.015046849,0.7676556,-0.3683149
1747679542.3648732,0.19689319,0.805755,0.6929395,0.015046849,0.7676556,-0.3683149
1747679542.3654134,0.19689319,0.805755,0.6929395,0.015046849,0.7676556,-0.3683149
1747679542.365953,0.19689319,0.805755,0.6929395,0.015046849,0.7676556,-0.3683149
1747679542.3664916,0.19689319,0.805755,0.6929395,0.015046849,0.7676556,-0.3683149
1747679542.3670356,0.19689319,0.805755,0.6929395,0.015046849,0.7676556,-0.3683149
1747679542.3675742,0.19689319,0.805755,0.6929395,0.015046849,0.7676556,-0.3683149
1747679542.3681111,0.19689319,0.805755,0.6929395,0.015046849,0.7676556,-0.3683149
1747679542.3686502,0.19689319,0.805755,0.6929395,0.015046849,0.7676556,-0.3683149
1747679542.3691974,0.19689319,0.805755,0.6929395,0.015046849,0.7676556,-0.3683149
1747679542.3697512,-0.021293996,0.78720665,0.68952274,-0.08721846,0.69308716,-0.5611276
1747679542.3704677,-0.021293996,0.78720665,0.68952274,-0.08721846,0.69308716,-0.5611276
1747679542.371011,-0.021293996,0.78720665,0.68952274,-0.08721846,0.69308716,-0.5611276
1747679542.37154,-0.021293996,0.78720665,0.68952274,-0.08721846,0.69308716,-0.5611276
1747679542.3720646,-0.021293996,0.78720665,0.68952274,-0.08721846,0.69308716,-0.5611276
1747679542.3725865,-0.021293996,0.78720665,0.68952274,-0.08721846,0.69308716,-0.5611276
1747679542.3731074,-0.021293996,0.78720665,0.68952274,-0.08721846,0.69308716,-0.5611276
1747679542.3736439,-0.021293996,0.78720665,0.68952274,-0.08721846,0.69308716,-0.5611276
1747679542.3741925,-0.021293996,0.78720665,0.68952274,-0.08721846,0.69308716,-0.5611276
1747679542.3747187,-0.021293996,0.78720665,0.68952274,-0.08721846,0.69308716,-0.5611276
1747679542.3752398,-0.021293996,0.78720665,0.68952274,-0.08721846,0.69308716,-0.5611276
1747679542.3757668,-0.021293996,0.78720665,0.68952274,-0.08721846,0.69308716,-0.5611276
1747679542.3769233,-0.021293996,0.78720665,0.68952274,-0.08721846,0.69308716,-0.5611276
1747679542.3774886,-0.021293996,0.78720665,0.68952274,-0.08721846,0.69308716,-0.5611276
1747679542.379855,-0.021293996,0.78720665,0.68952274,-0.08721846,0.69308716,-0.5611276
1747679542.380464,-0.021293996,0.78720665,0.68952274,-0.09254478,0.17430377,-0.5728455
1747679542.3817344,-0.27755412,0.79745704,0.76615673,-0.09254478,0.17430377,-0.5728455
1747679542.3823142,-0.27755412,0.79745704,0.76615673,-0.09254478,0.17430377,-0.5728455
1747679542.3828576,-0.27755412,0.79745704,0.76615673,-0.09254478,0.17430377,-0.5728455
1747679542.383388,-0.27755412,0.79745704,0.76615673,-0.09254478,0.17430377,-0.5728455
1747679542.3839242,-0.27755412,0.79745704,0.76615673,-0.09254478,0.17430377,-0.5728455
1747679542.384469,-0.27755412,0.79745704,0.76615673,-0.09254478,0.17430377,-0.5728455
1747679542.3849933,-0.27755412,0.79745704,0.76615673,-0.09254478,0.17430377,-0.5728455
1747679542.3855116,-0.27755412,0.79745704,0.76615673,-0.09254478,0.17430377,-0.5728455
1747679542.3860295,-0.27755412,0.79745704,0.76615673,-0.09254478,0.17430377,-0.5728455
1747679542.3865478,-0.27755412,0.79745704,0.76615673,-0.09254478,0.17430377,-0.5728455
1747679542.3870654,-0.27755412,0.79745704,0.76615673,-0.09254478,0.17430377,-0.5728455
1747679542.3875833,-0.27755412,0.79745704,0.76615673,-0.09254478,0.17430377,-0.5728455
1747679542.388101,-0.27755412,0.79745704,0.76615673,-0.09254478,0.17430377,-0.5728455
1747679542.3886201,-0.27755412,0.79745704,0.76615673,-0.09254478,0.17430377,-0.5728455
1747679542.389138,-0.27755412,0.79745704,0.76615673,-0.09254478,0.17430377,-0.5728455
1747679542.3896556,-0.27755412,0.79745704,0.76615673,-0.09254478,0.17430377,-0.5728455
1747679542.3901734,-0.27755412,0.79745704,0.76615673,-0.09254478,0.17430377,-0.5728455
1747679542.3906913,-0.27755412,0.79745704,0.76615673,-0.09254478,0.17430377,-0.5728455
1747679542.3912134,-0.27755412,0.79745704,0.76615673,-0.09254478,0.17430377,-0.5728455
1747679542.3922756,-0.27755412,0.79745704,0.76615673,-0.09254478,0.17430377,-0.5728455
1747679542.3928256,-0.27755412,0.79745704,0.76615673,-0.09254478,0.17430377,-0.5728455
1747679542.3933716,-0.27755412,0.79745704,0.76615673,-0.09254478,0.17430377,-0.5728455
1747679542.393912,-0.27755412,0.79745704,0.76615673,-0.09254478,0.17430377,-0.5728455
1747679542.3944488,-0.27755412,0.79745704,0.76615673,-0.09254478,0.17430377,-0.5728455
1747679542.3949876,-0.27755412,0.79745704,0.76615673,-0.09254478,0.17430377,-0.5728455
1747679542.3955154,-0.48841956,0.7906234,0.9467591,0.062983714,-0.59055555,-0.42051283
1747679542.3960369,-0.48841956,0.7906234,0.9467591,0.062983714,-0.59055555,-0.42051283
1747679542.3965552,-0.48841956,0.7906234,0.9467591,0.062983714,-0.59055555,-0.42051283
1747679542.397074,-0.48841956,0.7906234,0.9467591,0.062983714,-0.59055555,-0.42051283
1747679542.3975923,-0.48841956,0.7906234,0.9467591,0.062983714,-0.59055555,-0.42051283
1747679542.3981106,-0.48841956,0.7906234,0.9467591,0.062983714,-0.59055555,-0.42051283
1747679542.39863,-0.48841956,0.7906234,0.9467591,0.062983714,-0.59055555,-0.42051283
1747679542.3991482,-0.48841956,0.7906234,0.9467591,0.062983714,-0.59055555,-0.42051283
1747679542.3996668,-0.48841956,0.7906234,0.9467591,0.062983714,-0.59055555,-0.42051283
1747679542.400185,-0.48841956,0.7906234,0.9467591,0.062983714,-0.59055555,-0.42051283
1747679542.4007032,-0.48841956,0.7906234,0.9467591,0.062983714,-0.59055555,-0.42051283
1747679542.4012215,-0.48841956,0.7906234,0.9467591,0.062983714,-0.59055555,-0.42051283
1747679542.4017398,-0.48841956,0.7906234,0.9467591,0.062983714,-0.59055555,-0.42051283
1747679542.402262,-0.5601724,0.7911115,1.0795262,0.062983714,-0.59055555,-0.42051283
1747679542.4027953,-0.5601724,0.7911115,1.0795262,0.062983714,-0.59055555,-0.42051283
1747679542.4033172,-0.5601724,0.7911115,1.0795262,0.3857586,-1.1934948,-0.14674006
1747679542.4038522,-0.5601724,0.7911115,1.0795262,0.3857586,-1.1934948,-0.14674006
1747679542.4043899,-0.5601724,0.7911115,1.0795262,0.3857586,-1.1934948,-0.14674006
1747679542.4049125,-0.5601724,0.7911115,1.0795262,0.3857586,-1.1934948,-0.14674006
1747679542.4054334,-0.5601724,0.7911115,1.0795262,0.3857586,-1.1934948,-0.14674006
1747679542.4059541,-0.5601724,0.7911115,1.0795262,0.3857586,-1.1934948,-0.14674006
1747679542.4064767,-0.5601724,0.7911115,1.0795262,0.3857586,-1.1934948,-0.14674006
1747679542.4073615,-0.5601724,0.7911115,1.0795262,0.3857586,-1.1934948,-0.14674006
1747679542.4079075,-0.5601724,0.7911115,1.0795262,0.3857586,-1.1934948,-0.14674006
1747679542.4085152,-0.5601724,0.7911115,1.0795262,0.3857586,-1.1934948,-0.14674006
1747679542.4090774,-0.5601724,0.7911115,1.0795262,0.3857586,-1.1934948,-0.14674006
1747679542.409632,-0.5411359,0.80233824,1.1327306,0.3857586,-1.1934948,-0.14674006
1747679542.4101758,-0.5411359,0.80233824,1.1327306,0.3857586,-1.1934948,-0.14674006
1747679542.412861,-0.5411359,0.80233824,1.1327306,0.3857586,-1.1934948,-0.14674006
1747679542.4134052,-0.5411359,0.80233824,1.1327306,0.67764086,-1.4523538,0.10359689
1747679542.4139416,-0.5411359,0.80233824,1.1327306,0.67764086,-1.4523538,0.10359689
1747679542.4144778,-0.5411359,0.80233824,1.1327306,0.67764086,-1.4523538,0.10359689
1747679542.415001,-0.5411359,0.80233824,1.1327306,0.67764086,-1.4523538,0.10359689
1747679542.4155207,-0.5411359,0.80233824,1.1327306,0.67764086,-1.4523538,0.10359689
1747679542.4160511,-0.5411359,0.80233824,1.1327306,0.67764086,-1.4523538,0.10359689
1747679542.41657,-0.5411359,0.80233824,1.1327306,0.67764086,-1.4523538,0.10359689
1747679542.4170885,-0.5411359,0.80233824,1.1327306,0.67764086,-1.4523538,0.10359689
1747679542.4176068,-0.5411359,0.80233824,1.1327306,0.67764086,-1.4523538,0.10359689
1747679542.418125,-0.5411359,0.80233824,1.1327306,0.67764086,-1.4523538,0.10359689
1747679542.418644,-0.5411359,0.80233824,1.1327306,0.67764086,-1.4523538,0.10359689
1747679542.419162,-0.5411359,0.80233824,1.1327306,0.67764086,-1.4523538,0.10359689
1747679542.41968,-0.5411359,0.80233824,1.1327306,0.67764086,-1.4523538,0.10359689
1747679542.4201984,-0.5411359,0.80233824,1.1327306,0.67764086,-1.4523538,0.10359689
1747679542.420716,-0.5411359,0.80233824,1.1327306,0.67764086,-1.4523538,0.10359689
1747679542.4212341,-0.5411359,0.80233824,1.1327306,0.67764086,-1.4523538,0.10359689
1747679542.4217517,-0.5411359,0.80233824,1.1327306,0.67764086,-1.4523538,0.10359689
1747679542.4222696,-0.5411359,0.80233824,1.1327306,0.67764086,-1.4523538,0.10359689
1747679542.4227924,-0.5411359,0.80233824,1.1327306,0.67764086,-1.4523538,0.10359689
1747679542.4233406,-0.5411359,0.80233824,1.1327306,0.67764086,-1.4523538,0.10359689
1747679542.424188,-0.41666675,0.8457804,1.1024675,1.1048115,-1.485377,0.41465387
1747679542.4247534,-0.41666675,0.8457804,1.1024675,1.1048115,-1.485377,0.41465387
1747679542.425299,-0.41666675,0.8457804,1.1024675,1.1048115,-1.485377,0.41465387
1747679542.425832,-0.41666675,0.8457804,1.1024675,1.1048115,-1.485377,0.41465387
1747679542.4263515,-0.41666675,0.8457804,1.1024675,1.1048115,-1.485377,0.41465387
1747679542.4268706,-0.41666675,0.8457804,1.1024675,1.1048115,-1.485377,0.41465387
1747679542.4273913,-0.41666675,0.8457804,1.1024675,1.1048115,-1.485377,0.41465387
1747679542.4279158,-0.41666675,0.8457804,1.1024675,1.1048115,-1.485377,0.41465387
1747679542.4284365,-0.41666675,0.8457804,1.1024675,1.1048115,-1.485377,0.41465387
1747679542.4289591,-0.41666675,0.8457804,1.1024675,1.1048115,-1.485377,0.41465387
1747679542.4294775,-0.41666675,0.8457804,1.1024675,1.1048115,-1.485377,0.41465387
1747679542.4299958,-0.41666675,0.8457804,1.1024675,1.1048115,-1.485377,0.41465387
1747679542.430514,-0.41666675,0.8457804,1.1024675,1.1048115,-1.485377,0.41465387
1747679542.4310372,-0.28536394,0.9097234,0.9775103,1.3721927,-1.2414316,0.55526865
1747679542.4315581,-0.28536394,0.9097234,0.9775103,1.3721927,-1.2414316,0.55526865
1747679542.4320762,-0.28536394,0.9097234,0.9775103,1.3721927,-1.2414316,0.55526865
1747679542.4325948,-0.28536394,0.9097234,0.9775103,1.3721927,-1.2414316,0.55526865
1747679542.4331129,-0.28536394,0.9097234,0.9775103,1.3721927,-1.2414316,0.55526865
1747679542.433631,-0.28536394,0.9097234,0.9775103,1.3721927,-1.2414316,0.55526865
1747679542.4341664,-0.28536394,0.9097234,0.9775103,1.3721927,-1.2414316,0.55526865
1747679542.4347115,-0.28536394,0.9097234,0.9775103,1.3721927,-1.2414316,0.55526865
1747679542.435236,-0.28536394,0.9097234,0.9775103,1.3721927,-1.2414316,0.55526865
1747679542.4357543,-0.28536394,0.9097234,0.9775103,1.3721927,-1.2414316,0.55526865
1747679542.4362726,-0.28536394,0.9097234,0.9775103,1.3721927,-1.2414316,0.55526865
1747679542.436791,-0.28536394,0.9097234,0.9775103,1.3721927,-1.2414316,0.55526865
1747679542.4373474,-0.28536394,0.9097234,0.9775103,1.3721927,-1.2414316,0.55526865
1747679542.4378996,-0.28536394,0.9097234,0.9775103,1.3721927,-1.2414316,0.55526865
1747679542.4384851,-0.28536394,0.9097234,0.9775103,1.3721927,-1.2414316,0.55526865
1747679542.4391432,-0.28536394,0.9097234,0.9775103,1.3721927,-1.2414316,0.55526865
1747679542.4397066,-0.28536394,0.9097234,0.9775103,1.3721927,-1.2414316,0.55526865
1747679542.4402568,-0.28536394,0.9097234,0.9775103,1.3721927,-1.2414316,0.55526865
1747679542.4408133,-0.13502468,0.9687852,0.8218017,1.4797844,-0.8941557,0.58296555
1747679542.4413428,-0.13502468,0.9687852,0.8218017,1.4797844,-0.8941557,0.58296555
1747679542.4418657,-0.13502468,0.9687852,0.8218017,1.4797844,-0.8941557,0.58296555
1747679542.4424007,-0.13502468,0.9687852,0.8218017,1.4797844,-0.8941557,0.58296555
1747679542.4429371,-0.13502468,0.9687852,0.8218017,1.4797844,-0.8941557,0.58296555
1747679542.4434803,-0.13502468,0.9687852,0.8218017,1.4797844,-0.8941557,0.58296555
1747679542.4440808,-0.13502468,0.9687852,0.8218017,1.4797844,-0.8941557,0.58296555
1747679542.4446394,-0.13502468,0.9687852,0.8218017,1.4797844,-0.8941557,0.58296555
1747679542.4451954,-0.13502468,0.9687852,0.8218017,1.4797844,-0.8941557,0.58296555
1747679542.4457517,-0.13502468,0.9687852,0.8218017,1.4797844,-0.8941557,0.58296555
1747679542.4463077,-0.13502468,0.9687852,0.8218017,1.4797844,-0.8941557,0.58296555
1747679542.446864,-0.13502468,0.9687852,0.8218017,1.4797844,-0.8941557,0.58296555
1747679542.4474223,-0.13502468,0.9687852,0.8218017,1.4797844,-0.8941557,0.58296555
1747679542.4479818,-0.13502468,0.9687852,0.8218017,1.4797844,-0.8941557,0.58296555
1747679542.4485395,-0.042771034,1.0468836,0.6773199,1.4552833,-0.5426187,0.48283073
1747679542.449096,-0.042771034,1.0468836,0.6773199,1.4552833,-0.5426187,0.48283073
1747679542.4496558,-0.042771034,1.0468836,0.6773199,1.4552833,-0.5426187,0.48283073
1747679542.4502115,-0.042771034,1.0468836,0.6773199,1.4552833,-0.5426187,0.48283073
1747679542.450767,-0.042771034,1.0468836,0.6773199,1.4552833,-0.5426187,0.48283073
1747679542.4513228,-0.042771034,1.0468836,0.6773199,1.4552833,-0.5426187,0.48283073
1747679542.451879,-0.042771034,1.0468836,0.6773199,1.4552833,-0.5426187,0.48283073
1747679542.452435,-0.042771034,1.0468836,0.6773199,1.4552833,-0.5426187,0.48283073
1747679542.452991,-0.042771034,1.0468836,0.6773199,1.4552833,-0.5426187,0.48283073
1747679542.4535494,-0.042771034,1.0468836,0.6773199,1.4552833,-0.5426187,0.48283073
1747679542.4541554,-0.042771034,1.0468836,0.6773199,1.4552833,-0.5426187,0.48283073
1747679542.4547331,-0.042771034,1.0468836,0.6773199,1.4552833,-0.5426187,0.48283073
1747679542.4552968,-0.042771034,1.0468836,0.6773199,1.4552833,-0.5426187,0.48283073
1747679542.455857,-0.042771034,1.0468836,0.6773199,1.4552833,-0.5426187,0.48283073
1747679542.4564173,-0.042771034,1.0468836,0.6773199,1.4552833,-0.5426187,0.48283073
1747679542.4569774,-0.042771034,1.0468836,0.6773199,1.4552833,-0.5426187,0.48283073
1747679542.4575377,-0.042771034,1.0468836,0.6773199,1.4552833,-0.5426187,0.48283073
1747679542.4580803,-0.037889887,1.1249819,0.5596843,1.4552833,-0.5426187,0.48283073
1747679542.458626,-0.037889887,1.1249819,0.5596843,1.4552833,-0.5426187,0.48283073
1747679542.459194,-0.037889887,1.1249819,0.5596843,1.3253211,-0.24967116,0.31345382
1747679542.4597535,-0.037889887,1.1249819,0.5596843,1.3253211,-0.24967116,0.31345382
1747679542.460315,-0.037889887,1.1249819,0.5596843,1.3253211,-0.24967116,0.31345382
1747679542.460871,-0.037889887,1.1249819,0.5596843,1.3253211,-0.24967116,0.31345382
1747679542.4614272,-0.037889887,1.1249819,0.5596843,1.3253211,-0.24967116,0.31345382
1747679542.4620245,-0.037889887,1.1249819,0.5596843,1.3253211,-0.24967116,0.31345382
1747679542.4625857,-0.037889887,1.1249819,0.5596843,1.3253211,-0.24967116,0.31345382
1747679542.4631448,-0.037889887,1.1249819,0.5596843,1.3253211,-0.24967116,0.31345382
1747679542.4637058,-0.037889887,1.1249819,0.5596843,1.3253211,-0.24967116,0.31345382
1747679542.4642682,-0.037889887,1.1249819,0.5596843,1.3253211,-0.24967116,0.31345382
1747679542.4648275,-0.037889887,1.1249819,0.5596843,1.3253211,-0.24967116,0.31345382
1747679542.465387,-0.037889887,1.1249819,0.5596843,1.3253211,-0.24967116,0.31345382
1747679542.4659464,-0.037889887,1.1249819,0.5596843,1.3253211,-0.24967116,0.31345382
1747679542.4665055,-0.037889887,1.1249819,0.5596843,1.3253211,-0.24967116,0.31345382
1747679542.4670649,-0.037889887,1.1249819,0.5596843,1.3253211,-0.24967116,0.31345382
1747679542.467624,-0.037889887,1.1249819,0.5596843,1.3253211,-0.24967116,0.31345382
1747679542.4681833,-0.037889887,1.1249819,0.5596843,1.3253211,-0.24967116,0.31345382
1747679542.4687426,-0.037889887,1.1249819,0.5596843,1.3253211,-0.24967116,0.31345382
1747679542.4693916,-0.037889887,1.1249819,0.5596843,1.3253211,-0.24967116,0.31345382
1747679542.4699597,-0.0920706,1.1913655,0.5035511,1.3253211,-0.24967116,0.31345382
1747679542.4705265,-0.0920706,1.1913655,0.5035511,1.3253211,-0.24967116,0.31345382
1747679542.4711142,-0.0920706,1.1913655,0.5035511,1.1250516,-0.06538056,0.14620744
1747679542.4717731,-0.0920706,1.1913655,0.5035511,1.1250516,-0.06538056,0.14620744
1747679542.4723427,-0.0920706,1.1913655,0.5035511,1.1250516,-0.06538056,0.14620744
1747679542.4728935,-0.0920706,1.1913655,0.5035511,1.1250516,-0.06538056,0.14620744
1747679542.4734535,-0.0920706,1.1913655,0.5035511,1.1250516,-0.06538056,0.14620744
1747679542.4739964,-0.0920706,1.1913655,0.5035511,1.1250516,-0.06538056,0.14620744
1747679542.4745336,-0.0920706,1.1913655,0.5035511,1.1250516,-0.06538056,0.14620744
1747679542.4750614,-0.0920706,1.1913655,0.5035511,1.1250516,-0.06538056,0.14620744
1747679542.4755836,-0.0920706,1.1913655,0.5035511,1.1250516,-0.06538056,0.14620744
1747679542.476105,-0.0920706,1.1913655,0.5035511,1.1250516,-0.06538056,0.14620744
1747679542.4766262,-0.0920706,1.1913655,0.5035511,1.1250516,-0.06538056,0.14620744
1747679542.4771469,-0.0920706,1.1913655,0.5035511,1.1250516,-0.06538056,0.14620744
1747679542.4776707,-0.0920706,1.1913655,0.5035511,1.1250516,-0.06538056,0.14620744
1747679542.4782097,-0.0920706,1.1913655,0.5035511,1.1250516,-0.06538056,0.14620744
1747679542.478765,-0.0920706,1.1913655,0.5035511,1.1250516,-0.06538056,0.14620744
1747679542.4792864,-0.0920706,1.1913655,0.5035511,1.1250516,-0.06538056,0.14620744
1747679542.4798052,-0.0920706,1.1913655,0.5035511,1.1250516,-0.06538056,0.14620744
1747679542.480324,-0.0920706,1.1913655,0.5035511,1.1250516,-0.06538056,0.14620744
1747679542.4808426,-0.0920706,1.1913655,0.5035511,1.1250516,-0.06538056,0.14620744
1747679542.4813612,-0.0920706,1.1913655,0.5035511,1.1250516,-0.06538056,0.14620744
1747679542.4818878,-0.0920706,1.1913655,0.5035511,1.1250516,-0.06538056,0.14620744
1747679542.4824066,-0.13795336,1.2221167,0.49769372,1.1250516,-0.06538056,0.14620744
1747679542.482926,-0.13795336,1.2221167,0.49769372,1.1250516,-0.06538056,0.14620744
1747679542.483445,-0.13795336,1.2221167,0.49769372,1.0068073,-0.00785632,0.05779055
1747679542.4839637,-0.13795336,1.2221167,0.49769372,1.0068073,-0.00785632,0.05779055
1747679542.4845006,-0.13795336,1.2221167,0.49769372,1.0068073,-0.00785632,0.05779055
1747679542.485042,-0.13795336,1.2221167,0.49769372,1.0068073,-0.00785632,0.05779055
1747679542.48557,-0.13795336,1.2221167,0.49769372,1.0068073,-0.00785632,0.05779055
1747679542.4861257,-0.13795336,1.2221167,0.49769372,1.0068073,-0.00785632,0.05779055
1747679542.486681,-0.13795336,1.2221167,0.49769372,1.0068073,-0.00785632,0.05779055
1747679542.487214,-0.13795336,1.2221167,0.49769372,1.0068073,-0.00785632,0.05779055
1747679542.487734,-0.13795336,1.2221167,0.49769372,1.0068073,-0.00785632,0.05779055
1747679542.4882526,-0.13795336,1.2221167,0.49769372,1.0068073,-0.00785632,0.05779055
1747679542.488771,-0.13795336,1.2221167,0.49769372,1.0068073,-0.00785632,0.05779055
1747679542.4892895,-0.13795336,1.2221167,0.49769372,1.0068073,-0.00785632,0.05779055
1747679542.4898078,-0.13795336,1.2221167,0.49769372,1.0068073,-0.00785632,0.05779055
1747679542.490326,-0.13795336,1.2221167,0.49769372,1.0068073,-0.00785632,0.05779055
1747679542.4908466,-0.13795336,1.2221167,0.49769372,1.0068073,-0.00785632,0.05779055
1747679542.4913695,-0.24192174,1.2562846,0.5421122,0.87364936,-0.06857634,-0.03382212
1747679542.4918907,-0.24192174,1.2562846,0.5421122,0.87364936,-0.06857634,-0.03382212
1747679542.4924097,-0.24192174,1.2562846,0.5421122,0.87364936,-0.06857634,-0.03382212
1747679542.492928,-0.24192174,1.2562846,0.5421122,0.87364936,-0.06857634,-0.03382212
1747679542.493446,-0.24192174,1.2562846,0.5421122,0.87364936,-0.06857634,-0.03382212
1747679542.4939737,-0.24192174,1.2562846,0.5421122,0.87364936,-0.06857634,-0.03382212
1747679542.494514,-0.24192174,1.2562846,0.5421122,0.87364936,-0.06857634,-0.03382212
1747679542.4950397,-0.24192174,1.2562846,0.5421122,0.87364936,-0.06857634,-0.03382212
1747679542.4955587,-0.24192174,1.2562846,0.5421122,0.87364936,-0.06857634,-0.03382212
1747679542.4960768,-0.24192174,1.2562846,0.5421122,0.87364936,-0.06857634,-0.03382212
1747679542.4965951,-0.24192174,1.2562846,0.5421122,0.87364936,-0.06857634,-0.03382212
1747679542.4971132,-0.24192174,1.2562846,0.5421122,0.87364936,-0.06857634,-0.03382212
1747679542.4976318,-0.24192174,1.2562846,0.5421122,0.87364936,-0.06857634,-0.03382212
1747679542.4981499,-0.24192174,1.2562846,0.5421122,0.87364936,-0.06857634,-0.03382212
1747679542.4986682,-0.24192174,1.2562846,0.5421122,0.87364936,-0.06857634,-0.03382212
1747679542.4991865,-0.24192174,1.2562846,0.5421122,0.87364936,-0.06857634,-0.03382212
1747679542.4998527,-0.24192174,1.2562846,0.5421122,0.87364936,-0.06857634,-0.03382212
1747679542.500415,-0.24192174,1.2562846,0.5421122,0.87364936,-0.06857634,-0.03382212
1747679542.5009778,-0.3312467,1.2645826,0.6304609,0.807603,-0.25606275,-0.0061252657
1747679542.501528,-0.3312467,1.2645826,0.6304609,0.807603,-0.25606275,-0.0061252657
1747679542.5020688,-0.3312467,1.2645826,0.6304609,0.807603,-0.25606275,-0.0061252657
1747679542.502602,-0.3312467,1.2645826,0.6304609,0.807603,-0.25606275,-0.0061252657
1747679542.5031288,-0.3312467,1.2645826,0.6304609,0.807603,-0.25606275,-0.0061252657
1747679542.503648,-0.3312467,1.2645826,0.6304609,0.807603,-0.25606275,-0.0061252657
1747679542.504181,-0.3312467,1.2645826,0.6304609,0.807603,-0.25606275,-0.0061252657
1747679542.5047228,-0.3312467,1.2645826,0.6304609,0.807603,-0.25606275,-0.0061252657
1747679542.505249,-0.3312467,1.2645826,0.6304609,0.807603,-0.25606275,-0.0061252657
1747679542.5057678,-0.3312467,1.2645826,0.6304609,0.807603,-0.25606275,-0.0061252657
1747679542.5062866,-0.3312467,1.2645826,0.6304609,0.807603,-0.25606275,-0.0061252657
1747679542.506805,-0.3312467,1.2645826,0.6304609,0.807603,-0.25606275,-0.0061252657
1747679542.507324,-0.3312467,1.2645826,0.6304609,0.807603,-0.25606275,-0.0061252657
1747679542.507842,-0.3312467,1.2645826,0.6304609,0.807603,-0.25606275,-0.0061252657
1747679542.5083601,-0.3312467,1.2645826,0.6304609,0.807603,-0.25606275,-0.0061252657
1747679542.5088787,-0.3312467,1.2645826,0.6304609,0.807603,-0.25606275,-0.0061252657
1747679542.509397,-0.3312467,1.2645826,0.6304609,0.807603,-0.25606275,-0.0061252657
1747679542.509916,-0.3009836,1.2509154,0.7212502,0.807603,-0.25606275,-0.0061252657
1747679542.510437,-0.3009836,1.2509154,0.7212502,0.807603,-0.25606275,-0.0061252657
1747679542.5109582,-0.3009836,1.2509154,0.7212502,0.86406195,-0.42330915,0.076965295
1747679542.5114765,-0.3009836,1.2509154,0.7212502,0.86406195,-0.42330915,0.076965295
1747679542.5119948,-0.3009836,1.2509154,0.7212502,0.86406195,-0.42330915,0.076965295
1747679542.5125134,-0.3009836,1.2509154,0.7212502,0.86406195,-0.42330915,0.076965295
1747679542.5130317,-0.3009836,1.2509154,0.7212502,0.86406195,-0.42330915,0.076965295
1747679542.5135589,-0.3009836,1.2509154,0.7212502,0.86406195,-0.42330915,0.076965295
1747679542.5140884,-0.3009836,1.2509154,0.7212502,0.86406195,-0.42330915,0.076965295
1747679542.5146124,-0.3009836,1.2509154,0.7212502,0.86406195,-0.42330915,0.076965295
1747679542.5151625,-0.3009836,1.2509154,0.7212502,0.86406195,-0.42330915,0.076965295
1747679542.5157018,-0.3009836,1.2509154,0.7212502,0.86406195,-0.42330915,0.076965295
1747679542.5162268,-0.3009836,1.2509154,0.7212502,0.86406195,-0.42330915,0.076965295
1747679542.5167668,-0.3009836,1.2509154,0.7212502,0.86406195,-0.42330915,0.076965295
1747679542.5173254,-0.3009836,1.2509154,0.7212502,0.86406195,-0.42330915,0.076965295
1747679542.5178735,-0.3009836,1.2509154,0.7212502,0.86406195,-0.42330915,0.076965295
1747679542.5184064,-0.3009836,1.2509154,0.7212502,0.86406195,-0.42330915,0.076965295
1747679542.5189261,-0.3009836,1.2509154,0.7212502,0.86406195,-0.42330915,0.076965295
1747679542.5194447,-0.3009836,1.2509154,0.7212502,0.86406195,-0.42330915,0.076965295
1747679542.519963,-0.3009836,1.2509154,0.7212502,0.86406195,-0.42330915,0.076965295
1747679542.5204818,-0.3009836,1.2509154,0.7212502,0.86406195,-0.42330915,0.076965295
1747679542.5210001,-0.3009836,1.2509154,0.7212502,0.86406195,-0.42330915,0.076965295
1747679542.5215182,-0.3009836,1.2509154,0.7212502,0.86406195,-0.42330915,0.076965295
1747679542.5220366,-0.3009836,1.2509154,0.7212502,0.86406195,-0.42330915,0.076965295
1747679542.5225546,-0.3009836,1.2509154,0.7212502,0.86406195,-0.42330915,0.076965295
1747679542.523099,-0.18139556,1.231879,0.79056245,1.041961,-0.56605446,0.12703268
1747679542.5236306,-0.18139556,1.231879,0.79056245,1.041961,-0.56605446,0.12703268
1747679542.524171,-0.18139556,1.231879,0.79056245,1.041961,-0.56605446,0.12703268
1747679542.5246959,-0.18139556,1.231879,0.79056245,1.041961,-0.56605446,0.12703268
1747679542.5252147,-0.18139556,1.231879,0.79056245,1.041961,-0.56605446,0.12703268
1747679542.5257332,-0.18139556,1.231879,0.79056245,1.041961,-0.56605446,0.12703268
1747679542.5262585,-0.18139556,1.231879,0.79056245,1.041961,-0.56605446,0.12703268
1747679542.5267768,-0.18139556,1.231879,0.79056245,1.041961,-0.56605446,0.12703268
1747679542.5272949,-0.18139556,1.231879,0.79056245,1.041961,-0.56605446,0.12703268
1747679542.5278134,-0.18139556,1.231879,0.79056245,1.041961,-0.56605446,0.12703268
1747679542.5283315,-0.18139556,1.231879,0.79056245,1.041961,-0.56605446,0.12703268
1747679542.5288494,-0.18139556,1.231879,0.79056245,1.041961,-0.56605446,0.12703268
1747679542.5293674,-0.18139556,1.231879,0.79056245,1.041961,-0.56605446,0.12703268
1747679542.5298858,-0.18139556,1.231879,0.79056245,1.041961,-0.56605446,0.12703268
1747679542.5304565,-0.18139556,1.231879,0.79056245,1.041961,-0.56605446,0.12703268
1747679542.5310214,-0.18139556,1.231879,0.79056245,1.041961,-0.56605446,0.12703268
1747679542.5315666,-0.18139556,1.231879,0.79056245,1.041961,-0.56605446,0.12703268
1747679542.5321321,-0.18139556,1.231879,0.79056245,1.041961,-0.56605446,0.12703268
1747679542.5326998,-0.18139556,1.231879,0.79056245,1.041961,-0.56605446,0.12703268
1747679542.5332515,-0.09353494,1.1884367,0.8203374,1.041961,-0.56605446,0.12703268
1747679542.5337965,-0.09353494,1.1884367,0.8203374,1.041961,-0.56605446,0.12703268
1747679542.5343268,-0.09353494,1.1884367,0.8203374,1.235839,-0.6587324,0.07057372
1747679542.5348482,-0.09353494,1.1884367,0.8203374,1.235839,-0.6587324,0.07057372
1747679542.535367,-0.09353494,1.1884367,0.8203374,1.235839,-0.6587324,0.07057372
1747679542.5358858,-0.09353494,1.1884367,0.8203374,1.235839,-0.6587324,0.07057372
1747679542.5364044,-0.09353494,1.1884367,0.8203374,1.235839,-0.6587324,0.07057372
1747679542.5369234,-0.09353494,1.1884367,0.8203374,1.235839,-0.6587324,0.07057372
1747679542.5374436,-0.09353494,1.1884367,0.8203374,1.235839,-0.6587324,0.07057372
1747679542.5379643,-0.08816568,1.1122909,0.80764645,1.454218,-0.71093035,-0.027430538
1747679542.538483,-0.08816568,1.1122909,0.80764645,1.454218,-0.71093035,-0.027430538
1747679542.5390012,-0.08816568,1.1122909,0.80764645,1.454218,-0.71093035,-0.027430538
1747679542.5395195,-0.08816568,1.1122909,0.80764645,1.454218,-0.71093035,-0.027430538
1747679542.5400374,-0.08816568,1.1122909,0.80764645,1.454218,-0.71093035,-0.027430538
1747679542.5405555,-0.08816568,1.1122909,0.80764645,1.454218,-0.71093035,-0.027430538
1747679542.5410736,-0.08816568,1.1122909,0.80764645,1.454218,-0.71093035,-0.027430538
1747679542.541592,-0.08816568,1.1122909,0.80764645,1.454218,-0.71093035,-0.027430538
1747679542.54211,-0.08816568,1.1122909,0.80764645,1.454218,-0.71093035,-0.027430538
1747679542.542628,-0.08816568,1.1122909,0.80764645,1.454218,-0.71093035,-0.027430538
1747679542.5431461,-0.08816568,1.1122909,0.80764645,1.454218,-0.71093035,-0.027430538
1747679542.5436645,-0.08816568,1.1122909,0.80764645,1.454218,-0.71093035,-0.027430538
1747679542.5441926,-0.08816568,1.1122909,0.80764645,1.454218,-0.71093035,-0.027430538
1747679542.5447428,-0.08816568,1.1122909,0.80764645,1.454218,-0.71093035,-0.027430538
1747679542.5452678,-0.08816568,1.1122909,0.80764645,1.454218,-0.71093035,-0.027430538
1747679542.545803,-0.08816568,1.1122909,0.80764645,1.454218,-0.71093035,-0.027430538
1747679542.546348,-0.08816568,1.1122909,0.80764645,1.454218,-0.71093035,-0.027430538
1747679542.5468745,-0.08816568,1.1122909,0.80764645,1.454218,-0.71093035,-0.027430538
1747679542.5473938,-0.08816568,1.1122909,0.80764645,1.454218,-0.71093035,-0.027430538
1747679542.5479176,-0.08816568,1.1122909,0.80764645,1.454218,-0.71093035,-0.027430538
1747679542.54847,-0.08816568,1.1122909,0.80764645,1.454218,-0.71093035,-0.027430538
1747679542.5490148,-0.08816568,1.1122909,0.80764645,1.6566181,-0.7269093,-0.095607415
1747679542.5495465,-0.11940502,1.0468836,0.754442,1.6566181,-0.7269093,-0.095607415
1747679542.5500662,-0.11940502,1.0468836,0.754442,1.6566181,-0.7269093,-0.095607415
1747679542.5505848,-0.11940502,1.0468836,0.754442,1.6566181,-0.7269093,-0.095607415
1747679542.551103,-0.11940502,1.0468836,0.754442,1.6566181,-0.7269093,-0.095607415
1747679542.5516326,-0.11940502,1.0468836,0.754442,1.6566181,-0.7269093,-0.095607415
1747679542.552151,-0.11940502,1.0468836,0.754442,1.6566181,-0.7269093,-0.095607415
1747679542.5526695,-0.11940502,1.0468836,0.754442,1.6566181,-0.7269093,-0.095607415
1747679542.5531876,-0.11940502,1.0468836,0.754442,1.6566181,-0.7269093,-0.095607415
1747679542.553716,-0.11940502,1.0468836,0.754442,1.6566181,-0.7269093,-0.095607415
1747679542.5542564,-0.11940502,1.0468836,0.754442,1.6566181,-0.7269093,-0.095607415
1747679542.5547826,-0.11940502,1.0468836,0.754442,1.6566181,-0.7269093,-0.095607415
1747679542.5553014,-0.11940502,1.0468836,0.754442,1.6566181,-0.7269093,-0.095607415
1747679542.55582,-0.11940502,1.0468836,0.754442,1.6566181,-0.7269093,-0.095607415
1747679542.556338,-0.11940502,1.0468836,0.754442,1.6566181,-0.7269093,-0.095607415
1747679542.5568566,-0.11940502,1.0468836,0.754442,1.6566181,-0.7269093,-0.095607415
1747679542.5573747,-0.11940502,1.0468836,0.754442,1.6566181,-0.7269093,-0.095607415
1747679542.5578933,-0.11940502,1.0468836,0.754442,1.6566181,-0.7269093,-0.095607415
1747679542.5584116,-0.11940502,1.0468836,0.754442,1.6566181,-0.7269093,-0.095607415
1747679542.5589297,-0.16040663,0.9946554,0.72320265,1.8355824,-0.782303,-0.13715269
1747679542.559448,-0.16040663,0.9946554,0.72320265,1.8355824,-0.782303,-0.13715269
1747679542.5599663,-0.16040663,0.9946554,0.72320265,1.8355824,-0.782303,-0.13715269
1747679542.5604844,-0.16040663,0.9946554,0.72320265,1.8355824,-0.782303,-0.13715269
1747679542.5610359,-0.16040663,0.9946554,0.72320265,1.8355824,-0.782303,-0.13715269
1747679542.561592,-0.16040663,0.9946554,0.72320265,1.8355824,-0.782303,-0.13715269
1747679542.5621288,-0.16040663,0.9946554,0.72320265,1.8355824,-0.782303,-0.13715269
1747679542.5627859,-0.16040663,0.9946554,0.72320265,1.8355824,-0.782303,-0.13715269
1747679542.5633323,-0.16040663,0.9946554,0.72320265,1.8355824,-0.782303,-0.13715269
1747679542.5638795,-0.16040663,0.9946554,0.72320265,1.8355824,-0.782303,-0.13715269
1747679542.5644574,-0.16040663,0.9946554,0.72320265,1.8355824,-0.782303,-0.13715269
1747679542.5650046,-0.16040663,0.9946554,0.72320265,1.8355824,-0.782303,-0.13715269
1747679542.56554,-0.16040663,0.9946554,0.72320265,1.8355824,-0.782303,-0.13715269
1747679542.5660627,-0.16040663,0.9946554,0.72320265,1.8355824,-0.782303,-0.13715269
1747679542.5665839,-0.16040663,0.9946554,0.72320265,1.8355824,-0.782303,-0.13715269
1747679542.5671053,-0.16040663,0.9946554,0.72320265,1.8355824,-0.782303,-0.13715269
1747679542.5676265,-0.16040663,0.9946554,0.72320265,1.8355824,-0.782303,-0.13715269
1747679542.568147,-0.16040663,0.9946554,0.72320265,1.8355824,-0.782303,-0.13715269
1747679542.5686681,-0.16040663,0.9946554,0.72320265,1.8355824,-0.782303,-0.13715269
1747679542.5691917,-0.2336238,0.94145083,0.6612121,2.0337214,-1.0464884,-0.12969585
1747679542.5697126,-0.2336238,0.94145083,0.6612121,2.0337214,-1.0464884,-0.12969585
1747679542.5702336,-0.2336238,0.94145083,0.6612121,2.0337214,-1.0464884,-0.12969585
1747679542.5707545,-0.2336238,0.94145083,0.6612121,2.0337214,-1.0464884,-0.12969585
1747679542.5712752,-0.2336238,0.94145083,0.6612121,2.0337214,-1.0464884,-0.12969585
1747679542.5717962,-0.2336238,0.94145083,0.6612121,2.0337214,-1.0464884,-0.12969585
1747679542.5723171,-0.2336238,0.94145083,0.6612121,2.0337214,-1.0464884,-0.12969585
1747679542.572838,-0.2336238,0.94145083,0.6612121,2.0337214,-1.0464884,-0.12969585
1747679542.5733588,-0.2336238,0.94145083,0.6612121,2.0337214,-1.0464884,-0.12969585
1747679542.5738797,-0.2336238,0.94145083,0.6612121,2.0337214,-1.0464884,-0.12969585
1747679542.574411,-0.2336238,0.94145083,0.6612121,2.0337214,-1.0464884,-0.12969585
1747679542.5749552,-0.2336238,0.94145083,0.6612121,2.0337214,-1.0464884,-0.12969585
1747679542.5754821,-0.2336238,0.94145083,0.6612121,2.0337214,-1.0464884,-0.12969585
1747679542.5760033,-0.2336238,0.94145083,0.6612121,2.0337214,-1.0464884,-0.12969585
1747679542.5765448,-0.2336238,0.94145083,0.6612121,2.0337214,-1.0464884,-0.12969585
1747679542.5770857,-0.2336238,0.94145083,0.6612121,2.0337214,-1.0464884,-0.12969585
1747679542.5776155,-0.2336238,0.94145083,0.6612121,2.0337214,-1.0464884,-0.12969585
1747679542.5781305,-0.2336238,0.94145083,0.6612121,2.0337214,-1.0464884,-0.12969585
1747679542.578661,-0.2336238,0.94145083,0.6612121,2.0337214,-1.0464884,-0.12969585
1747679542.5792007,-0.2336238,0.94145083,0.6612121,2.0337214,-1.0464884,-0.12969585
1747679542.579736,-0.2336238,0.94145083,0.6612121,2.0337214,-1.0464884,-0.12969585
1747679542.5802586,-0.35516432,0.87653166,0.57823265,2.2233384,-1.6185349,-0.031691592
1747679542.580778,-0.35516432,0.87653166,0.57823265,2.2233384,-1.6185349,-0.031691592
1747679542.5813046,-0.35516432,0.87653166,0.57823265,2.2233384,-1.6185349,-0.031691592
1747679542.5818236,-0.35516432,0.87653166,0.57823265,2.2233384,-1.6185349,-0.031691592
1747679542.582342,-0.35516432,0.87653166,0.57823265,2.2233384,-1.6185349,-0.031691592
1747679542.5828607,-0.35516432,0.87653166,0.57823265,2.2233384,-1.6185349,-0.031691592
1747679542.583379,-0.35516432,0.87653166,0.57823265,2.2233384,-1.6185349,-0.031691592
1747679542.583908,-0.35516432,0.87653166,0.57823265,2.2233384,-1.6185349,-0.031691592
1747679542.5844488,-0.35516432,0.87653166,0.57823265,2.2233384,-1.6185349,-0.031691592
1747679542.584974,-0.35516432,0.87653166,0.57823265,2.2233384,-1.6185349,-0.031691592
1747679542.585494,-0.35516432,0.87653166,0.57823265,2.2233384,-1.6185349,-0.031691592
1747679542.5860124,-0.35516432,0.87653166,0.57823265,2.2233384,-1.6185349,-0.031691592
1747679542.5865304,-0.35516432,0.87653166,0.57823265,2.2233384,-1.6185349,-0.031691592
1747679542.587049,-0.35516432,0.87653166,0.57823265,2.2233384,-1.6185349,-0.031691592
1747679542.587567,-0.35516432,0.87653166,0.57823265,2.2233384,-1.6185349,-0.031691592
1747679542.5880852,-0.35516432,0.87653166,0.57823265,2.2233384,-1.6185349,-0.031691592
1747679542.5886035,-0.35516432,0.87653166,0.57823265,2.2233384,-1.6185349,-0.031691592
1747679542.5891213,-0.35516432,0.87653166,0.57823265,2.2233384,-1.6185349,-0.031691592
1747679542.5896394,-0.35516432,0.87653166,0.57823265,2.2233384,-1.6185349,-0.031691592
1747679542.5901577,-0.35516432,0.87653166,0.57823265,2.2233384,-1.6185349,-0.031691592
1747679542.5906816,-0.35516432,0.87653166,0.57823265,2.2233384,-1.6185349,-0.031691592
1747679542.5912027,-0.35516432,0.87653166,0.57823265,2.2233384,-1.6185349,-0.031691592
1747679542.5918167,-0.35516432,0.87653166,0.57823265,2.2233384,-1.6185349,-0.031691592
1747679542.5923834,-0.31709138,0.79892135,0.37908193,2.2797973,-2.147971,0.04607265
1747679542.5929313,-0.31709138,0.79892135,0.37908193,2.2797973,-2.147971,0.04607265
1747679542.5934725,-0.31709138,0.79892135,0.37908193,2.2797973,-2.147971,0.04607265
1747679542.594018,-0.31709138,0.79892135,0.37908193,2.2797973,-2.147971,0.04607265
1747679542.5945647,-0.31709138,0.79892135,0.37908193,2.2797973,-2.147971,0.04607265
1747679542.59514,-0.31709138,0.79892135,0.37908193,2.2797973,-2.147971,0.04607265
1747679542.5956893,-0.31709138,0.79892135,0.37908193,2.2797973,-2.147971,0.04607265
1747679542.596222,-0.31709138,0.79892135,0.37908193,2.2797973,-2.147971,0.04607265
1747679542.596742,-0.31709138,0.79892135,0.37908193,2.2797973,-2.147971,0.04607265
1747679542.5972602,-0.31709138,0.79892135,0.37908193,2.2797973,-2.147971,0.04607265
1747679542.5977788,-0.31709138,0.79892135,0.37908193,2.2797973,-2.147971,0.04607265
1747679542.598297,-0.31709138,0.79892135,0.37908193,2.2797973,-2.147971,0.04607265
1747679542.5988154,-0.31709138,0.79892135,0.37908193,2.2797973,-2.147971,0.04607265
1747679542.599334,-0.31709138,0.79892135,0.37908193,2.2797973,-2.147971,0.04607265
1747679542.5998523,-0.31709138,0.79892135,0.37908193,2.2797973,-2.147971,0.04607265
1747679542.6003706,-0.31709138,0.79892135,0.37908193,2.2797973,-2.147971,0.04607265
1747679542.6008897,-0.2765779,0.7052034,0.17700252,2.1189425,-2.5474448,0.02157159
1747679542.601408,-0.2765779,0.7052034,0.17700252,2.1189425,-2.5474448,0.02157159
1747679542.6019258,-0.2765779,0.7052034,0.17700252,2.1189425,-2.5474448,0.02157159
1747679542.6024442,-0.2765779,0.7052034,0.17700252,2.1189425,-2.5474448,0.02157159
1747679542.6029627,-0.2765779,0.7052034,0.17700252,2.1189425,-2.5474448,0.02157159
1747679542.6034813,-0.2765779,0.7052034,0.17700252,2.1189425,-2.5474448,0.02157159
1747679542.6039994,-0.2765779,0.7052034,0.17700252,2.1189425,-2.5474448,0.02157159
1747679542.604531,-0.2765779,0.7052034,0.17700252,2.1189425,-2.5474448,0.02157159
1747679542.6050787,-0.2765779,0.7052034,0.17700252,2.1189425,-2.5474448,0.02157159
1747679542.6056037,-0.2765779,0.7052034,0.17700252,2.1189425,-2.5474448,0.02157159
1747679542.6061225,-0.2765779,0.7052034,0.17700252,2.1189425,-2.5474448,0.02157159
1747679542.6066408,-0.2765779,0.7052034,0.17700252,2.1189425,-2.5474448,0.02157159
1747679542.6071754,-0.2765779,0.7052034,0.17700252,2.1189425,-2.5474448,0.02157159
1747679542.6077046,-0.2765779,0.7052034,0.17700252,2.1189425,-2.5474448,0.02157159
1747679542.6082249,-0.2765779,0.7052034,0.17700252,2.1189425,-2.5474448,0.02157159
1747679542.6087434,-0.2765779,0.7052034,0.17700252,2.1189425,-2.5474448,0.02157159
1747679542.6092641,-0.2677918,0.61880714,0.091582485,1.7833844,-2.6837986,0.04607265
1747679542.609785,-0.2677918,0.61880714,0.091582485,1.7833844,-2.6837986,0.04607265
1747679542.6103058,-0.2677918,0.61880714,0.091582485,1.7833844,-2.6837986,0.04607265
1747679542.6108508,-0.2677918,0.61880714,0.091582485,1.7833844,-2.6837986,0.04607265
1747679542.6113956,-0.2677918,0.61880714,0.091582485,1.7833844,-2.6837986,0.04607265
1747679542.6119282,-0.2677918,0.61880714,0.091582485,1.7833844,-2.6837986,0.04607265
1747679542.6124482,-0.2677918,0.61880714,0.091582485,1.7833844,-2.6837986,0.04607265
1747679542.612967,-0.2677918,0.61880714,0.091582485,1.7833844,-2.6837986,0.04607265
1747679542.6134853,-0.2677918,0.61880714,0.091582485,1.7833844,-2.6837986,0.04607265
1747679542.6140192,-0.2677918,0.61880714,0.091582485,1.7833844,-2.6837986,0.04607265
1747679542.6145713,-0.2677918,0.61880714,0.091582485,1.7833844,-2.6837986,0.04607265
1747679542.6151094,-0.2677918,0.61880714,0.091582485,1.7833844,-2.6837986,0.04607265
1747679542.6156282,-0.2677918,0.61880714,0.091582485,1.7833844,-2.6837986,0.04607265
1747679542.6161468,-0.2677918,0.61880714,0.091582485,1.7833844,-2.6837986,0.04607265
1747679542.6166651,-0.2677918,0.61880714,0.091582485,1.7833844,-2.6837986,0.04607265
1747679542.617183,-0.2677918,0.61880714,0.091582485,1.7833844,-2.6837986,0.04607265
1747679542.6177013,-0.2677918,0.61880714,0.091582485,1.7833844,-2.6837986,0.04607265
1747679542.6182196,-0.2677918,0.61880714,0.091582485,1.7833844,-2.6837986,0.04607265
1747679542.6187375,-0.2677918,0.61880714,0.091582485,1.7833844,-2.6837986,0.04607265
1747679542.6192548,-0.2677918,0.61880714,0.091582485,1.7833844,-2.6837986,0.04607265
1747679542.619773,-0.2677918,0.61880714,0.091582485,1.7833844,-2.6837986,0.04607265
1747679542.6203134,-0.2677918,0.61880714,0.091582485,1.7833844,-2.6837986,0.04607265
1747679542.6208375,-0.2677918,0.61880714,0.091582485,1.5458307,-2.6497102,0.1355548
1747679542.6213582,-0.27950656,0.5519355,0.06473618,1.5458307,-2.6497102,0.1355548
1747679542.6218882,-0.27950656,0.5519355,0.06473618,1.5458307,-2.6497102,0.1355548
1747679542.6224458,-0.27950656,0.5519355,0.06473618,1.5458307,-2.6497102,0.1355548
1747679542.6230028,-0.27950656,0.5519355,0.06473618,1.5458307,-2.6497102,0.1355548
1747679542.62354,-0.27950656,0.5519355,0.06473618,1.5458307,-2.6497102,0.1355548
1747679542.6240773,-0.27950656,0.5519355,0.06473618,1.5458307,-2.6497102,0.1355548
1747679542.6246176,-0.27950656,0.5519355,0.06473618,1.5458307,-2.6497102,0.1355548
1747679542.6251392,-0.27950656,0.5519355,0.06473618,1.5458307,-2.6497102,0.1355548
1747679542.6256578,-0.27950656,0.5519355,0.06473618,1.5458307,-2.6497102,0.1355548
1747679542.626179,-0.27950656,0.5519355,0.06473618,1.5458307,-2.6497102,0.1355548
1747679542.6267395,-0.27950656,0.5519355,0.06473618,1.5458307,-2.6497102,0.1355548
1747679542.6272864,-0.27950656,0.5519355,0.06473618,1.5458307,-2.6497102,0.1355548
1747679542.6278195,-0.27950656,0.5519355,0.06473618,1.5458307,-2.6497102,0.1355548
1747679542.6283395,-0.27950656,0.5519355,0.06473618,1.5458307,-2.6497102,0.1355548
1747679542.6288583,-0.27950656,0.5519355,0.06473618,1.5458307,-2.6497102,0.1355548
1747679542.6293766,-0.27950656,0.5519355,0.06473618,1.5458307,-2.6497102,0.1355548
1747679542.6298954,-0.27950656,0.5519355,0.06473618,1.5458307,-2.6497102,0.1355548
1747679542.6304138,-0.27950656,0.5519355,0.06473618,1.5458307,-2.6497102,0.1355548
1747679542.6309323,-0.27950656,0.5519355,0.06473618,1.5458307,-2.6497102,0.1355548
1747679542.6314507,-0.27950656,0.5519355,0.06473618,1.5458307,-2.6497102,0.1355548
1747679542.631969,-0.27950656,0.5519355,0.06473618,1.5458307,-2.6497102,0.1355548
1747679542.632487,-0.27950656,0.5519355,0.06473618,1.5458307,-2.6497102,0.1355548
1747679542.6330056,-0.27950656,0.5519355,0.06473618,1.5458307,-2.6497102,0.1355548
1747679542.6335237,-0.27950656,0.5519355,0.06473618,1.5458307,-2.6497102,0.1355548
1747679542.634042,-0.27950656,0.5519355,0.06473618,1.5458307,-2.6497102,0.1355548
1747679542.6345756,-0.27950656,0.5519355,0.06473618,1.5458307,-2.6497102,0.1355548
1747679542.635128,-0.27950656,0.5519355,0.06473618,1.5458307,-2.6497102,0.1355548
1747679542.6356525,-0.27950656,0.5519355,0.06473618,1.5458307,-2.6497102,0.1355548
1747679542.6361718,-0.27950656,0.5519355,0.06473618,1.5458307,-2.6497102,0.1355548
1747679542.6366901,-0.27950656,0.5519355,0.06473618,1.5458307,-2.6497102,0.1355548
1747679542.6372561,-0.23069511,0.47432527,0.02080588,1.1815106,-2.2960427,0.3198454
1747679542.6377995,-0.23069511,0.47432527,0.02080588,1.1815106,-2.2960427,0.3198454
1747679542.6383383,-0.23069511,0.47432527,0.02080588,1.1815106,-2.2960427,0.3198454
1747679542.638864,-0.23069511,0.47432527,0.02080588,1.1815106,-2.2960427,0.3198454
1747679542.6393857,-0.23069511,0.47432527,0.02080588,1.1815106,-2.2960427,0.3198454
1747679542.6399043,-0.23069511,0.47432527,0.02080588,1.1815106,-2.2960427,0.3198454
1747679542.640423,-0.068641104,0.3986675,-0.008969104,1.1815106,-2.2960427,0.3198454
1747679542.6409442,-0.068641104,0.3986675,-0.008969104,0.8502135,-1.8624803,0.44235072
1747679542.641497,-0.068641104,0.3986675,-0.008969104,0.8502135,-1.8624803,0.44235072
1747679542.6420503,-0.068641104,0.3986675,-0.008969104,0.8502135,-1.8624803,0.44235072
1747679542.6425748,-0.068641104,0.3986675,-0.008969104,0.8502135,-1.8624803,0.44235072
1747679542.6430938,-0.068641104,0.3986675,-0.008969104,0.8502135,-1.8624803,0.44235072
1747679542.6436257,-0.068641104,0.3986675,-0.008969104,0.8502135,-1.8624803,0.44235072
1747679542.6441734,-0.068641104,0.3986675,-0.008969104,0.8502135,-1.8624803,0.44235072
1747679542.6446986,-0.068641104,0.3986675,-0.008969104,0.8502135,-1.8624803,0.44235072
1747679542.6452181,-0.068641104,0.3986675,-0.008969104,0.8502135,-1.8624803,0.44235072
1747679542.6457367,-0.068641104,0.3986675,-0.008969104,0.8502135,-1.8624803,0.44235072
1747679542.6462557,-0.068641104,0.3986675,-0.008969104,0.8502135,-1.8624803,0.44235072
1747679542.6467738,-0.068641104,0.3986675,-0.008969104,0.8502135,-1.8624803,0.44235072
1747679542.6472921,-0.068641104,0.3986675,-0.008969104,0.8502135,-1.8624803,0.44235072
1747679542.6478102,-0.068641104,0.3986675,-0.008969104,0.8502135,-1.8624803,0.44235072
1747679542.6483293,0.10268708,0.32886714,-0.05241129,0.8502135,-1.8624803,0.44235072
1747679542.6488545,0.10268708,0.32886714,-0.05241129,0.8502135,-1.8624803,0.44235072
1747679542.6493754,0.10268708,0.32886714,-0.05241129,0.48163232,-1.4182653,0.44448125
1747679542.6498945,0.10268708,0.32886714,-0.05241129,0.48163232,-1.4182653,0.44448125
1747679542.6504128,0.10268708,0.32886714,-0.05241129,0.48163232,-1.4182653,0.44448125
1747679542.6509311,0.10268708,0.32886714,-0.05241129,0.48163232,-1.4182653,0.44448125
1747679542.6514494,0.10268708,0.32886714,-0.05241129,0.48163232,-1.4182653,0.44448125
1747679542.6519675,0.10268708,0.32886714,-0.05241129,0.48163232,-1.4182653,0.44448125
1747679542.6524858,0.10268708,0.32886714,-0.05241129,0.48163232,-1.4182653,0.44448125
1747679542.6530454,0.10268708,0.32886714,-0.05241129,0.48163232,-1.4182653,0.44448125
1747679542.653598,0.10268708,0.32886714,-0.05241129,0.48163232,-1.4182653,0.44448125
1747679542.6541455,0.10268708,0.32886714,-0.05241129,0.48163232,-1.4182653,0.44448125
1747679542.6546974,0.10268708,0.32886714,-0.05241129,0.48163232,-1.4182653,0.44448125
1747679542.6552305,0.10268708,0.32886714,-0.05241129,0.48163232,-1.4182653,0.44448125
1747679542.6557505,0.10268708,0.32886714,-0.05241129,0.48163232,-1.4182653,0.44448125
1747679542.6562693,0.10268708,0.32886714,-0.05241129,0.48163232,-1.4182653,0.44448125
1747679542.656791,0.10268708,0.32886714,-0.05241129,0.48163232,-1.4182653,0.44448125
1747679542.6573572,0.10268708,0.32886714,-0.05241129,0.48163232,-1.4182653,0.44448125
1747679542.65791,0.18469033,0.2097672,-0.005064188,0.48163232,-1.4182653,0.44448125
1747679542.6584358,0.18469033,0.2097672,-0.005064188,0.13009532,-1.0337052,0.3347591
1747679542.658955,0.18469033,0.2097672,-0.005064188,0.13009532,-1.0337052,0.3347591
1747679542.6594734,0.18469033,0.2097672,-0.005064188,0.13009532,-1.0337052,0.3347591
1747679542.6599917,0.18469033,0.2097672,-0.005064188,0.13009532,-1.0337052,0.3347591
1747679542.6605103,0.18469033,0.2097672,-0.005064188,0.13009532,-1.0337052,0.3347591
1747679542.6610289,0.18469033,0.2097672,-0.005064188,0.13009532,-1.0337052,0.3347591
1747679542.661547,0.18469033,0.2097672,-0.005064188,0.13009532,-1.0337052,0.3347591
1747679542.6620655,0.18469033,0.2097672,-0.005064188,0.13009532,-1.0337052,0.3347591
1747679542.6625865,0.18469033,0.2097672,-0.005064188,0.13009532,-1.0337052,0.3347591
1747679542.6631076,0.18469033,0.2097672,-0.005064188,0.13009532,-1.0337052,0.3347591
1747679542.6636283,0.18469033,0.2097672,-0.005064188,0.13009532,-1.0337052,0.3347591
1747679542.664149,0.18469033,0.2097672,-0.005064188,0.13009532,-1.0337052,0.3347591
1747679542.6646805,0.18469033,0.2097672,-0.005064188,0.13009532,-1.0337052,0.3347591
1747679542.6652255,0.18469033,0.2097672,-0.005064188,0.13009532,-1.0337052,0.3347591
1747679542.6657526,0.18469033,0.2097672,-0.005064188,0.13009532,-1.0337052,0.3347591
1747679542.6662738,0.18469033,0.2097672,-0.005064188,0.13009532,-1.0337052,0.3347591
1747679542.666795,0.18469033,0.2097672,-0.005064188,0.13009532,-1.0337052,0.3347591
1747679542.6673162,0.18469033,0.2097672,-0.005064188,0.13009532,-1.0337052,0.3347591
1747679542.6678371,0.18469033,0.2097672,-0.005064188,0.13009532,-1.0337052,0.3347591
1747679542.668377,0.18469033,0.2097672,-0.005064188,0.13009532,-1.0337052,0.3347591
1747679542.668927,0.18469033,0.2097672,-0.005064188,0.13009532,-1.0337052,0.3347591
1747679542.6694539,0.18469033,0.2097672,-0.005064188,0.13009532,-1.0337052,0.3347591
1747679542.66998,0.18469033,0.2097672,-0.005064188,0.13009532,-1.0337052,0.3347591
1747679542.670504,0.18469033,0.2097672,-0.005064188,0.13009532,-1.0337052,0.3347591
1747679542.671026,0.15589157,0.07797629,0.058390696,-0.077631086,-0.7269093,0.23142852
1747679542.6715472,0.15589157,0.07797629,0.058390696,-0.077631086,-0.7269093,0.23142852
1747679542.672068,0.15589157,0.07797629,0.058390696,-0.077631086,-0.7269093,0.23142852
1747679542.6725922,0.15589157,0.07797629,0.058390696,-0.077631086,-0.7269093,0.23142852
1747679542.6731403,0.15589157,0.07797629,0.058390696,-0.077631086,-0.7269093,0.23142852
1747679542.6736765,0.15589157,0.07797629,0.058390696,-0.077631086,-0.7269093,0.23142852
1747679542.674211,0.15589157,0.07797629,0.058390696,-0.077631086,-0.7269093,0.23142852
1747679542.6747656,0.15589157,0.07797629,0.058390696,-0.077631086,-0.7269093,0.23142852
1747679542.6752925,0.15589157,0.07797629,0.058390696,-0.077631086,-0.7269093,0.23142852
1747679542.675814,0.15589157,0.07797629,0.058390696,-0.077631086,-0.7269093,0.23142852
1747679542.676335,0.15589157,0.07797629,0.058390696,-0.077631086,-0.7269093,0.23142852
1747679542.6768563,0.15589157,0.07797629,0.058390696,-0.077631086,-0.7269093,0.23142852
1747679542.6773772,0.15589157,0.07797629,0.058390696,-0.077631086,-0.7269093,0.23142852
1747679542.678665,0.15589157,0.07797629,0.058390696,-0.15006901,-0.6139913,0.23355906
1747679542.6792116,0.15589157,0.07797629,0.058390696,-0.15006901,-0.6139913,0.23355906
1747679542.6797323,0.0860912,-0.057719536,0.015924735,-0.15006901,-0.6139913,0.23355906
1747679542.6802511,0.0860912,-0.057719536,0.015924735,-0.15006901,-0.6139913,0.23355906
1747679542.6807692,0.0860912,-0.057719536,0.015924735,-0.15006901,-0.6139913,0.23355906
1747679542.6812878,0.0860912,-0.057719536,0.015924735,-0.15006901,-0.6139913,0.23355906
1747679542.6818058,0.0860912,-0.057719536,0.015924735,-0.15006901,-0.6139913,0.23355906
1747679542.6823237,0.0860912,-0.057719536,0.015924735,-0.15006901,-0.6139913,0.23355906
1747679542.682842,0.0860912,-0.057719536,0.015924735,-0.15006901,-0.6139913,0.23355906
1747679542.6833782,0.0860912,-0.057719536,0.015924735,-0.15006901,-0.6139913,0.23355906
1747679542.6839824,0.0860912,-0.057719536,0.015924735,-0.15006901,-0.6139913,0.23355906
1747679542.6845324,0.0860912,-0.057719536,0.015924735,-0.15006901,-0.6139913,0.23355906
1747679542.6850789,0.0860912,-0.057719536,0.015924735,-0.15006901,-0.6139913,0.23355906
1747679542.685615,0.0860912,-0.057719536,0.015924735,-0.15006901,-0.6139913,0.23355906
1747679542.6861389,0.0860912,-0.057719536,0.015924735,-0.15006901,-0.6139913,0.23355906
1747679542.6866615,0.0860912,-0.057719536,0.015924735,-0.15006901,-0.6139913,0.23355906
1747679542.6871836,0.0860912,-0.057719536,0.015924735,-0.15006901,-0.6139913,0.23355906
1747679542.687708,0.0860912,-0.057719536,0.015924735,-0.15006901,-0.6139913,0.23355906
1747679542.6882505,0.0860912,-0.057719536,0.015924735,-0.15006901,-0.6139913,0.23355906
1747679542.6888251,0.0860912,-0.057719536,0.015924735,-0.15006901,-0.6139913,0.23355906
1747679542.6893818,0.020683851,-0.21001126,-0.15979649,-0.15006901,-0.6139913,0.23355906
1747679542.6899276,0.020683851,-0.21001126,-0.15979649,-0.15006901,-0.6139913,0.23355906
1747679542.6904674,0.020683851,-0.21001126,-0.15979649,-0.15006901,-0.6139913,0.23355906
1747679542.6910074,0.020683851,-0.21001126,-0.15979649,-0.24061643,-0.6981472,0.31878015
1747679542.6915479,0.020683851,-0.21001126,-0.15979649,-0.24061643,-0.6981472,0.31878015
1747679542.69209,0.020683851,-0.21001126,-0.15979649,-0.24061643,-0.6981472,0.31878015
1747679542.6926305,0.020683851,-0.21001126,-0.15979649,-0.24061643,-0.6981472,0.31878015
1747679542.6931698,0.020683851,-0.21001126,-0.15979649,-0.24061643,-0.6981472,0.31878015
1747679542.6937234,0.020683851,-0.21001126,-0.15979649,-0.24061643,-0.6981472,0.31878015
1747679542.6942852,0.020683851,-0.21001126,-0.15979649,-0.24061643,-0.6981472,0.31878015
1747679542.694838,0.020683851,-0.21001126,-0.15979649,-0.24061643,-0.6981472,0.31878015
1747679542.6953824,0.020683851,-0.21001126,-0.15979649,-0.24061643,-0.6981472,0.31878015
1747679542.6959274,0.020683851,-0.21001126,-0.15979649,-0.24061643,-0.6981472,0.31878015
1747679542.6965408,0.020683851,-0.21001126,-0.15979649,-0.24061643,-0.6981472,0.31878015
1747679542.6970673,0.020683851,-0.21001126,-0.15979649,-0.24061643,-0.6981472,0.31878015
1747679542.6975868,0.020683851,-0.21001126,-0.15979649,-0.24061643,-0.6981472,0.31878015
1747679542.6981056,0.020683851,-0.21001126,-0.15979649,-0.24061643,-0.6981472,0.31878015
1747679542.6986492,0.020683851,-0.21001126,-0.15979649,-0.24061643,-0.6981472,0.31878015
1747679542.6991842,0.020683851,-0.21001126,-0.15979649,-0.24061643,-0.6981472,0.31878015
1747679542.6997046,0.020683851,-0.21001126,-0.15979649,-0.24061643,-0.6981472,0.31878015
1747679542.7002237,0.020683851,-0.21001126,-0.15979649,-0.24061643,-0.6981472,0.31878015
1747679542.700743,0.020683851,-0.21001126,-0.15979649,-0.24061643,-0.6981472,0.31878015
1747679542.7012618,0.020683851,-0.21001126,-0.15979649,-0.24061643,-0.6981472,0.31878015
1747679542.7017803,0.020683851,-0.21001126,-0.15979649,-0.24061643,-0.6981472,0.31878015
1747679542.7022986,0.020683851,-0.21001126,-0.15979649,-0.24061643,-0.6981472,0.31878015
1747679542.7028167,0.020683851,-0.21001126,-0.15979649,-0.24061643,-0.6981472,0.31878015
1747679542.7033355,-0.009579247,-0.31593212,-0.2891468,-0.35673016,-0.84515357,0.3997402
1747679542.7038674,-0.009579247,-0.31593212,-0.2891468,-0.35673016,-0.84515357,0.3997402
1747679542.7044177,-0.009579247,-0.31593212,-0.2891468,-0.35673016,-0.84515357,0.3997402
1747679542.7049727,-0.009579247,-0.31593212,-0.2891468,-0.35673016,-0.84515357,0.3997402
1747679542.7055204,-0.009579247,-0.31593212,-0.2891468,-0.35673016,-0.84515357,0.3997402
1747679542.7060537,-0.009579247,-0.31593212,-0.2891468,-0.35673016,-0.84515357,0.3997402
1747679542.7065732,-0.009579247,-0.31593212,-0.2891468,-0.35673016,-0.84515357,0.3997402
1747679542.707092,-0.009579247,-0.31593212,-0.2891468,-0.35673016,-0.84515357,0.3997402
1747679542.7076104,-0.009579247,-0.31593212,-0.2891468,-0.35673016,-0.84515357,0.3997402
1747679542.7081287,-0.009579247,-0.31593212,-0.2891468,-0.35673016,-0.84515357,0.3997402
1747679542.7086473,-0.009579247,-0.31593212,-0.2891468,-0.35673016,-0.84515357,0.3997402
1747679542.7091656,-0.009579247,-0.31593212,-0.2891468,-0.35673016,-0.84515357,0.3997402
1747679542.7096837,-0.009579247,-0.31593212,-0.2891468,-0.35673016,-0.84515357,0.3997402
1747679542.7102015,-0.009579247,-0.31593212,-0.2891468,-0.35673016,-0.84515357,0.3997402
1747679542.7107203,-0.009579247,-0.31593212,-0.2891468,-0.70187557,-1.3330443,0.6309024
1747679542.711239,-0.053509556,-0.49604633,-0.44534346,-0.70187557,-1.3330443,0.6309024
1747679542.7117577,-0.053509556,-0.49604633,-0.44534346,-0.70187557,-1.3330443,0.6309024
1747679542.7122755,-0.053509556,-0.49604633,-0.44534346,-0.70187557,-1.3330443,0.6309024
1747679542.7127936,-0.053509556,-0.49604633,-0.44534346,-0.70187557,-1.3330443,0.6309024
1747679542.7133117,-0.053509556,-0.49604633,-0.44534346,-0.70187557,-1.3330443,0.6309024
1747679542.713927,-0.053509556,-0.49604633,-0.44534346,-0.70187557,-1.3330443,0.6309024
1747679542.7144868,-0.053509556,-0.49604633,-0.44534346,-0.70187557,-1.3330443,0.6309024
1747679542.7150338,-0.053509556,-0.49604633,-0.44534346,-0.70187557,-1.3330443,0.6309024
1747679542.7155616,-0.053509556,-0.49604633,-0.44534346,-0.70187557,-1.3330443,0.6309024
1747679542.7160938,-0.053509556,-0.49604633,-0.44534346,-0.70187557,-1.3330443,0.6309024
1747679542.7166264,-0.053509556,-0.49604633,-0.44534346,-0.70187557,-1.3330443,0.6309024
1747679542.7171462,-0.053509556,-0.49604633,-0.44534346,-0.70187557,-1.3330443,0.6309024
1747679542.717665,-0.053509556,-0.49604633,-0.44534346,-0.70187557,-1.3330443,0.6309024
1747679542.7181828,-0.053509556,-0.49604633,-0.44534346,-0.70187557,-1.3330443,0.6309024
1747679542.7187014,-0.053509556,-0.49604633,-0.44534346,-0.70187557,-1.3330443,0.6309024
1747679542.7192228,-0.053509556,-0.49604633,-0.44534346,-0.70187557,-1.3330443,0.6309024
1747679542.7197785,-0.053509556,-0.49604633,-0.44534346,-0.70187557,-1.3330443,0.6309024
1747679542.7203445,-0.13844147,-0.6717676,-0.42874756,-1.0331726,-1.897634,0.91213197
1747679542.7208757,-0.13844147,-0.6717676,-0.42874756,-1.0331726,-1.897634,0.91213197
1747679542.7213957,-0.13844147,-0.6717676,-0.42874756,-1.0331726,-1.897634,0.91213197
1747679542.7219155,-0.13844147,-0.6717676,-0.42874756,-1.0331726,-1.897634,0.91213197
1747679542.7224338,-0.13844147,-0.6717676,-0.42874756,-1.0331726,-1.897634,0.91213197
1747679542.7229526,-0.13844147,-0.6717676,-0.42874756,-1.0331726,-1.897634,0.91213197
1747679542.7234757,-0.13844147,-0.6717676,-0.42874756,-1.0331726,-1.897634,0.91213197
1747679542.724004,-0.13844147,-0.6717676,-0.42874756,-1.0331726,-1.897634,0.91213197
1747679542.7245436,-0.13844147,-0.6717676,-0.42874756,-1.0331726,-1.897634,0.91213197
1747679542.7250698,-0.13844147,-0.6717676,-0.42874756,-1.0331726,-1.897634,0.91213197
1747679542.725589,-0.13844147,-0.6717676,-0.42874756,-1.0331726,-1.897634,0.91213197
1747679542.7261071,-0.13844147,-0.6717676,-0.42874756,-1.0331726,-1.897634,0.91213197
1747679542.7266254,-0.13844147,-0.6717676,-0.42874756,-1.0331726,-1.897634,0.91213197
1747679542.7271438,-0.13844147,-0.6717676,-0.42874756,-1.0331726,-1.897634,0.91213197
1747679542.7276623,-0.13844147,-0.6717676,-0.42874756,-1.0331726,-1.897634,0.91213197
1747679542.7281802,-0.13844147,-0.6717676,-0.42874756,-1.0331726,-1.897634,0.91213197
1747679542.7286987,-0.13844147,-0.6717676,-0.42874756,-1.0331726,-1.897634,0.91213197
1747679542.7292206,-0.13844147,-0.6717676,-0.42874756,-1.0331726,-1.897634,0.91213197
1747679542.7297418,-0.13844147,-0.6717676,-0.42874756,-1.0331726,-1.897634,0.91213197
1747679542.7302604,-0.13844147,-0.6717676,-0.42874756,-1.0331726,-1.897634,0.91213197
1747679542.7307792,-0.13844147,-0.6717676,-0.42874756,-1.0331726,-1.897634,0.91213197
1747679542.7312975,-0.13844147,-0.6717676,-0.42874756,-1.0331726,-1.897634,0.91213197
1747679542.7318156,-0.13844147,-0.6717676,-0.42874756,-1.0331726,-1.897634,0.91213197
1747679542.732334,-0.13844147,-0.6717676,-0.42874756,-1.0331726,-1.897634,0.91213197
1747679542.7328522,-0.13844147,-0.6717676,-0.42874756,-1.0331726,-1.897634,0.91213197
1747679542.7333703,-0.13844147,-0.6717676,-0.42874756,-1.0331726,-1.897634,0.91213197
1747679542.7338886,-0.13844147,-0.6717676,-0.42874756,-1.0331726,-1.897634,0.91213197
1747679542.7344167,-0.13844147,-0.6717676,-0.42874756,-1.0331726,-1.897634,0.91213197
1747679542.7349486,-0.20677751,-0.7527946,-0.23203744,-1.2558126,-2.511226,1.3680649
1747679542.7354946,-0.20677751,-0.7527946,-0.23203744,-1.2558126,-2.511226,1.3680649
1747679542.7360282,-0.20677751,-0.7527946,-0.23203744,-1.2558126,-2.511226,1.3680649
1747679542.7365487,-0.20677751,-0.7527946,-0.23203744,-1.2558126,-2.511226,1.3680649
1747679542.737067,-0.20677751,-0.7527946,-0.23203744,-1.2558126,-2.511226,1.3680649
1747679542.7375853,-0.20677751,-0.7527946,-0.23203744,-1.2558126,-2.511226,1.3680649
1747679542.7381198,-0.20677751,-0.7527946,-0.23203744,-1.2558126,-2.511226,1.3680649
1747679542.738652,-0.20677751,-0.7527946,-0.23203744,-1.2558126,-2.511226,1.3680649
1747679542.7391715,-0.20677751,-0.7527946,-0.23203744,-1.2558126,-2.511226,1.3680649
1747679542.73969,-0.20677751,-0.7527946,-0.23203744,-1.2558126,-2.511226,1.3680649
1747679542.7402084,-0.20677751,-0.7527946,-0.23203744,-1.2558126,-2.511226,1.3680649
1747679542.7407267,-0.20677751,-0.7527946,-0.23203744,-1.2558126,-2.511226,1.3680649
1747679542.7412453,-0.20677751,-0.7527946,-0.23203744,-1.22492,-3.1610367,2.0871177
1747679542.7417638,-0.20677751,-0.7527946,-0.23203744,-1.22492,-3.1610367,2.0871177
1747679542.7422822,-0.20677751,-0.7527946,-0.23203744,-1.22492,-3.1610367,2.0871177
1747679542.7428546,-0.20677751,-0.7527946,-0.23203744,-1.22492,-3.1610367,2.0871177
1747679542.7433734,-0.20677751,-0.7527946,-0.23203744,-1.22492,-3.1610367,2.0871177
1747679542.7438993,-0.20677751,-0.7527946,-0.23203744,-1.22492,-3.1610367,2.0871177
1747679542.7444592,-0.20677751,-0.7527946,-0.23203744,-1.22492,-3.1610367,2.0871177
1747679542.7450244,-0.20677751,-0.7527946,-0.23203744,-1.22492,-3.1610367,2.0871177
1747679542.7455742,-0.20677751,-0.7527946,-0.23203744,-1.22492,-3.1610367,2.0871177
1747679542.7461412,-0.20677751,-0.7527946,-0.23203744,-1.22492,-3.1610367,2.0871177
1747679542.746696,-0.20677751,-0.7527946,-0.23203744,-1.22492,-3.1610367,2.0871177
1747679542.747257,-0.20677751,-0.7527946,-0.23203744,-1.22492,-3.1610367,2.0871177
1747679542.7478178,-0.20677751,-0.7527946,-0.23203744,-1.22492,-3.1610367,2.0871177
1747679542.7483542,-0.20677751,-0.7527946,-0.23203744,-1.22492,-3.1610367,2.0871177
1747679542.7488823,-0.20677751,-0.7527946,-0.23203744,-1.22492,-3.1610367,2.0871177
1747679542.749424,-0.20677751,-0.7527946,-0.23203744,-1.22492,-3.1610367,2.0871177
1747679542.7499526,-0.20677751,-0.7527946,-0.23203744,-1.22492,-3.1610367,2.0871177
1747679542.750501,-0.20677751,-0.7527946,-0.23203744,-1.22492,-3.1610367,2.0871177
1747679542.7510607,-0.20677751,-0.7527946,-0.23203744,-1.22492,-3.1610367,2.0871177
1747679542.7516263,-0.20677751,-0.7527946,-0.23203744,-1.22492,-3.1610367,2.0871177
1747679542.7521858,-0.20677751,-0.7527946,-0.23203744,-1.22492,-3.1610367,2.0871177
1747679542.7527347,-0.20677751,-0.7527946,-0.23203744,-1.22492,-3.1610367,2.0871177
1747679542.7532742,-0.20677751,-0.7527946,-0.23203744,-1.22492,-3.1610367,2.0871177
1747679542.7538154,-0.20677751,-0.7527946,-0.23203744,-0.98736626,-3.5839465,2.6304023
1747679542.7543705,-0.20677751,-0.7527946,-0.23203744,-0.98736626,-3.5839465,2.6304023
1747679542.7549329,-0.20677751,-0.7527946,-0.23203744,-0.98736626,-3.5839465,2.6304023
1747679542.75548,-0.20677751,-0.7527946,-0.23203744,-0.98736626,-3.5839465,2.6304023
1747679542.7560272,-0.20677751,-0.7527946,-0.23203744,-0.98736626,-3.5839465,2.6304023
1747679542.7565866,-0.20677751,-0.7527946,-0.23203744,-0.98736626,-3.5839465,2.6304023
1747679542.757139,-0.20677751,-0.7527946,-0.23203744,-0.98736626,-3.5839465,2.6304023
1747679542.7576842,-0.20677751,-0.7527946,-0.23203744,-0.98736626,-3.5839465,2.6304023
1747679542.7582314,-0.20677751,-0.7527946,-0.23203744,-0.98736626,-3.5839465,2.6304023
1747679542.758778,0.1773686,-0.9138723,0.16235909,-0.98736626,-3.5839465,2.6304023
1747679542.7593203,0.1773686,-0.9138723,0.16235909,-0.98736626,-3.5839465,2.6304023
1747679542.7598794,0.1773686,-0.9138723,0.16235909,-0.98736626,-3.5839465,2.6304023
1747679542.7604296,0.1773686,-0.9138723,0.16235909,-0.6720482,-3.8076518,3.0405288
1747679542.7609801,0.1773686,-0.9138723,0.16235909,-0.6720482,-3.8076518,3.0405288
1747679542.761524,0.1773686,-0.9138723,0.16235909,-0.6720482,-3.8076518,3.0405288
1747679542.7620656,0.1773686,-0.9138723,0.16235909,-0.6720482,-3.8076518,3.0405288
1747679542.7626097,0.1773686,-0.9138723,0.16235909,-0.6720482,-3.8076518,3.0405288
1747679542.7631533,0.1773686,-0.9138723,0.16235909,-0.6720482,-3.8076518,3.0405288
1747679542.7637107,0.1773686,-0.9138723,0.16235909,-0.6720482,-3.8076518,3.0405288
1747679542.764271,0.1773686,-0.9138723,0.16235909,-0.6720482,-3.8076518,3.0405288
1747679542.7648187,0.1773686,-0.9138723,0.16235909,-0.6720482,-3.8076518,3.0405288
1747679542.7653677,0.1773686,-0.9138723,0.16235909,-0.6720482,-3.8076518,3.0405288
1747679542.7659209,0.1773686,-0.9138723,0.16235909,-0.6720482,-3.8076518,3.0405288
1747679542.7664826,0.1773686,-0.9138723,0.16235909,-0.6720482,-3.8076518,3.0405288
1747679542.7670414,0.1773686,-0.9138723,0.16235909,-0.6720482,-3.8076518,3.0405288
1747679542.7675982,0.1773686,-0.9138723,0.16235909,-0.6720482,-3.8076518,3.0405288
1747679542.7681448,0.1773686,-0.9138723,0.16235909,-0.6720482,-3.8076518,3.0405288
1747679542.76869,0.1773686,-0.9138723,0.16235909,-0.6720482,-3.8076518,3.0405288
1747679542.7692313,0.1773686,-0.9138723,0.16235909,-0.6720482,-3.8076518,3.0405288
1747679542.7697654,0.1773686,-0.9138723,0.16235909,-0.6720482,-3.8076518,3.0405288
1747679542.7703037,0.33698204,-0.9509691,0.11013083,-0.4025365,-3.8321528,3.3238888
1747679542.7708354,0.33698204,-0.9509691,0.11013083,-0.4025365,-3.8321528,3.3238888
1747679542.7713642,0.33698204,-0.9509691,0.11013083,-0.4025365,-3.8321528,3.3238888
1747679542.7718863,0.33698204,-0.9509691,0.11013083,-0.4025365,-3.8321528,3.3238888
1747679542.772408,0.33698204,-0.9509691,0.11013083,-0.4025365,-3.8321528,3.3238888
1747679542.7729292,0.33698204,-0.9509691,0.11013083,-0.4025365,-3.8321528,3.3238888
1747679542.77345,0.33698204,-0.9509691,0.11013083,-0.4025365,-3.8321528,3.3238888
1747679542.773978,0.33698204,-0.9509691,0.11013083,-0.4025365,-3.8321528,3.3238888
1747679542.7745104,0.33698204,-0.9509691,0.11013083,-0.4025365,-3.8321528,3.3238888
1747679542.775127,0.33698204,-0.9509691,0.11013083,-0.4025365,-3.8321528,3.3238888
1747679542.7756913,0.33698204,-0.9509691,0.11013083,-0.4025365,-3.8321528,3.3238888
1747679542.7762551,0.33698204,-0.9509691,0.11013083,-0.4025365,-3.8321528,3.3238888
1747679542.7768285,0.33698204,-0.9509691,0.11013083,-0.4025365,-3.8321528,3.3238888
1747679542.7774441,0.33698204,-0.9509691,0.11013083,-0.4025365,-3.8321528,3.3238888
1747679542.7780015,0.33698204,-0.9509691,0.11013083,-0.4025365,-3.8321528,3.3238888
1747679542.778513,0.33698204,-0.9509691,0.11013083,-0.4025365,-3.8321528,3.3238888
1747679542.779045,0.33698204,-0.9509691,0.11013083,-0.4025365,-3.8321528,3.3238888
1747679542.7795725,0.33698204,-0.9509691,0.11013083,-0.4025365,-3.8321528,3.3238888
1747679542.7801018,0.33698204,-0.9509691,0.11013083,-0.4025365,-3.8321528,3.3238888
1747679542.7806323,0.5234418,-0.9265634,0.022270223,-0.4025365,-3.8321528,3.3238888
1747679542.7811604,0.5234418,-0.9265634,0.022270223,-0.4025365,-3.8321528,3.3238888
1747679542.7816932,0.5234418,-0.9265634,0.022270223,-0.25339958,-3.6617105,3.4708953
1747679542.7822528,0.5234418,-0.9265634,0.022270223,-0.25339958,-3.6617105,3.4708953
1747679542.782806,0.5234418,-0.9265634,0.022270223,-0.25339958,-3.6617105,3.4708953
1747679542.7833464,0.5234418,-0.9265634,0.022270223,-0.25339958,-3.6617105,3.4708953
1747679542.7838917,0.5234418,-0.9265634,0.022270223,-0.25339958,-3.6617105,3.4708953
1747679542.784446,0.5234418,-0.9265634,0.022270223,-0.25339958,-3.6617105,3.4708953
1747679542.7849972,0.5234418,-0.9265634,0.022270223,-0.25339958,-3.6617105,3.4708953
1747679542.7855477,0.5234418,-0.9265634,0.022270223,-0.25339958,-3.6617105,3.4708953
1747679542.7860935,0.5234418,-0.9265634,0.022270223,-0.25339958,-3.6617105,3.4708953
1747679542.7866395,0.5234418,-0.9265634,0.022270223,-0.25339958,-3.6617105,3.4708953
1747679542.7871883,0.5234418,-0.9265634,0.022270223,-0.25339958,-3.6617105,3.4708953
1747679542.7877421,0.5234418,-0.9265634,0.022270223,-0.25339958,-3.6617105,3.4708953
1747679542.7883012,0.5234418,-0.9265634,0.022270223,-0.25339958,-3.6617105,3.4708953
1747679542.7888591,0.5234418,-0.9265634,0.022270223,-0.25339958,-3.6617105,3.4708953
1747679542.789422,0.5234418,-0.9265634,0.022270223,-0.25339958,-3.6617105,3.4708953
1747679542.789983,0.5234418,-0.9265634,0.022270223,-0.25339958,-3.6617105,3.4708953
1747679542.790564,0.5234418,-0.9265634,0.022270223,-0.24594274,-3.3144348,3.486874
1747679542.7911143,0.5234418,-0.9265634,0.022270223,-0.24594274,-3.3144348,3.486874
1747679542.7916527,0.68110275,-0.89678836,-0.08999611,-0.24594274,-3.3144348,3.486874
1747679542.7921896,0.68110275,-0.89678836,-0.08999611,-0.24594274,-3.3144348,3.486874
1747679542.7927468,0.68110275,-0.89678836,-0.08999611,-0.24594274,-3.3144348,3.486874
1747679542.7933152,0.68110275,-0.89678836,-0.08999611,-0.24594274,-3.3144348,3.486874
1747679542.793889,0.68110275,-0.89678836,-0.08999611,-0.24594274,-3.3144348,3.486874
1747679542.7944467,0.68110275,-0.89678836,-0.08999611,-0.24594274,-3.3144348,3.486874
1747679542.7950003,0.68110275,-0.89678836,-0.08999611,-0.24594274,-3.3144348,3.486874
1747679542.7955613,0.68110275,-0.89678836,-0.08999611,-0.24594274,-3.3144348,3.486874
1747679542.796107,0.68110275,-0.89678836,-0.08999611,-0.24594274,-3.3144348,3.486874
1747679542.7966666,0.68110275,-0.89678836,-0.08999611,-0.24594274,-3.3144348,3.486874
1747679542.7972333,0.68110275,-0.89678836,-0.08999611,-0.24594274,-3.3144348,3.486874
1747679542.7978122,0.68110275,-0.89678836,-0.08999611,-0.34288174,-2.9213524,3.458112
1747679542.7984512,0.68110275,-0.89678836,-0.08999611,-0.34288174,-2.9213524,3.458112
1747679542.7990222,0.7499269,-0.90899116,-0.19933376,-0.34288174,-2.9213524,3.458112
1747679542.799577,0.7499269,-0.90899116,-0.19933376,-0.34288174,-2.9213524,3.458112
1747679542.8001134,0.7499269,-0.90899116,-0.19933376,-0.34288174,-2.9213524,3.458112
1747679542.800648,0.7499269,-0.90899116,-0.19933376,-0.34288174,-2.9213524,3.458112
1747679542.8011818,0.7499269,-0.90899116,-0.19933376,-0.34288174,-2.9213524,3.458112
1747679542.8017018,0.7499269,-0.90899116,-0.19933376,-0.34288174,-2.9213524,3.458112
1747679542.8022203,0.7499269,-0.90899116,-0.19933376,-0.34288174,-2.9213524,3.458112
1747679542.8027387,0.7499269,-0.90899116,-0.19933376,-0.34288174,-2.9213524,3.458112
1747679542.803257,0.7499269,-0.90899116,-0.19933376,-0.34288174,-2.9213524,3.458112
1747679542.8037753,0.7499269,-0.90899116,-0.19933376,-0.34288174,-2.9213524,3.458112
1747679542.8043003,0.7499269,-0.90899116,-0.19933376,-0.34288174,-2.9213524,3.458112
1747679542.8048258,0.7499269,-0.90899116,-0.19933376,-0.34288174,-2.9213524,3.458112
1747679542.805461,0.7499269,-0.90899116,-0.19933376,-0.34288174,-2.9213524,3.458112
1747679542.806017,0.7499269,-0.90899116,-0.19933376,-0.34288174,-2.9213524,3.458112
1747679542.8065453,0.7499269,-0.90899116,-0.19933376,-0.34288174,-2.9213524,3.458112
1747679542.8070672,0.7499269,-0.90899116,-0.19933376,-0.34288174,-2.9213524,3.458112
1747679542.807599,0.7499269,-0.90899116,-0.19933376,-0.34288174,-2.9213524,3.458112
1747679542.8081322,0.7499269,-0.90899116,-0.19933376,-0.34288174,-2.9213524,3.458112
1747679542.8086514,0.7499269,-0.90899116,-0.19933376,-0.34288174,-2.9213524,3.458112
1747679542.8091705,0.7499269,-0.90899116,-0.19933376,-0.34288174,-2.9213524,3.458112
1747679542.809689,0.7499269,-0.90899116,-0.19933376,-0.34288174,-2.9213524,3.458112
1747679542.810208,0.75773674,-0.9822084,-0.328196,-0.66139555,-2.378068,3.4602425
1747679542.810727,0.75773674,-0.9822084,-0.328196,-0.66139555,-2.378068,3.4602425
1747679542.8112452,0.75773674,-0.9822084,-0.328196,-0.66139555,-2.378068,3.4602425
1747679542.8117638,0.75773674,-0.9822084,-0.328196,-0.66139555,-2.378068,3.4602425
1747679542.812282,0.75773674,-0.9822084,-0.328196,-0.66139555,-2.378068,3.4602425
1747679542.8128035,0.75773674,-0.9822084,-0.328196,-0.66139555,-2.378068,3.4602425
1747679542.8133535,0.75773674,-0.9822084,-0.328196,-0.66139555,-2.378068,3.4602425
1747679542.8139014,0.75773674,-0.9822084,-0.328196,-0.66139555,-2.378068,3.4602425
1747679542.8144317,0.75773674,-0.9822084,-0.328196,-0.66139555,-2.378068,3.4602425
1747679542.814955,0.75773674,-0.9822084,-0.328196,-0.66139555,-2.378068,3.4602425
1747679542.8154771,0.75773674,-0.9822084,-0.328196,-0.66139555,-2.378068,3.4602425
1747679542.815999,0.75773674,-0.9822084,-0.328196,-0.66139555,-2.378068,3.4602425
1747679542.8165207,0.75773674,-0.9822084,-0.328196,-0.66139555,-2.378068,3.4602425
1747679542.8170693,0.75773674,-0.9822084,-0.328196,-0.66139555,-2.378068,3.4602425
1747679542.8176186,0.75773674,-0.9822084,-0.328196,-0.66139555,-2.378068,3.4602425
1747679542.8181598,0.75773674,-0.9822084,-0.328196,-0.66139555,-2.378068,3.4602425
1747679542.8186924,0.75773674,-0.9822084,-0.328196,-0.66139555,-2.378068,3.4602425
1747679542.8192146,0.75773674,-0.9822084,-0.328196,-0.66139555,-2.378068,3.4602425
1747679542.8197353,0.70453227,-1.0300436,-0.39018652,-0.9543431,-2.1490362,3.5294847
1747679542.8202543,0.70453227,-1.0300436,-0.39018652,-0.9543431,-2.1490362,3.5294847
1747679542.820801,0.70453227,-1.0300436,-0.39018652,-0.9543431,-2.1490362,3.5294847
1747679542.8213484,0.70453227,-1.0300436,-0.39018652,-0.9543431,-2.1490362,3.5294847
1747679542.8218815,0.70453227,-1.0300436,-0.39018652,-0.9543431,-2.1490362,3.5294847
1747679542.8224013,0.70453227,-1.0300436,-0.39018652,-0.9543431,-2.1490362,3.5294847
1747679542.8229196,0.70453227,-1.0300436,-0.39018652,-0.9543431,-2.1490362,3.5294847
1747679542.8234553,0.70453227,-1.0300436,-0.39018652,-0.9543431,-2.1490362,3.5294847
1747679542.8240163,0.70453227,-1.0300436,-0.39018652,-0.9543431,-2.1490362,3.5294847
1747679542.8245716,0.70453227,-1.0300436,-0.39018652,-0.9543431,-2.1490362,3.5294847
1747679542.825138,0.70453227,-1.0300436,-0.39018652,-0.9543431,-2.1490362,3.5294847
1747679542.8256805,0.70453227,-1.0300436,-0.39018652,-0.9543431,-2.1490362,3.5294847
1747679542.8262134,0.70453227,-1.0300436,-0.39018652,-0.9543431,-2.1490362,3.5294847
1747679542.8267329,0.70453227,-1.0300436,-0.39018652,-0.9543431,-2.1490362,3.5294847
1747679542.8272514,0.70453227,-1.0300436,-0.39018652,-0.9543431,-2.1490362,3.5294847
1747679542.8277705,0.70453227,-1.0300436,-0.39018652,-0.9543431,-2.1490362,3.5294847
1747679542.8282888,0.70453227,-1.0300436,-0.39018652,-0.9543431,-2.1490362,3.5294847
1747679542.8288102,0.70453227,-1.0300436,-0.39018652,-0.9543431,-2.1490362,3.5294847
1747679542.8293455,0.70453227,-1.0300436,-0.39018652,-0.9543431,-2.1490362,3.5294847
1747679542.8299043,0.70453227,-1.0300436,-0.39018652,-0.9543431,-2.1490362,3.5294847
1747679542.830459,0.70453227,-1.0300436,-0.39018652,-0.9543431,-2.1490362,3.5294847
1747679542.830997,0.605445,-1.0339485,-0.38530537,-0.9543431,-2.1490362,3.5294847
1747679542.8315213,0.605445,-1.0339485,-0.38530537,-0.9543431,-2.1490362,3.5294847
1747679542.8320477,0.605445,-1.0339485,-0.38530537,-1.3314464,-2.0734024,3.7457333
1747679542.832571,0.605445,-1.0339485,-0.38530537,-1.3314464,-2.0734024,3.7457333
1747679542.8330932,0.605445,-1.0339485,-0.38530537,-1.3314464,-2.0734024,3.7457333
1747679542.8336368,0.605445,-1.0339485,-0.38530537,-1.3314464,-2.0734024,3.7457333
1747679542.8341873,0.605445,-1.0339485,-0.38530537,-1.3314464,-2.0734024,3.7457333
1747679542.8347158,0.605445,-1.0339485,-0.38530537,-1.3314464,-2.0734024,3.7457333
1747679542.8352382,0.605445,-1.0339485,-0.38530537,-1.3314464,-2.0734024,3.7457333
1747679542.835787,0.605445,-1.0339485,-0.38530537,-1.3314464,-2.0734024,3.7457333
1747679542.836329,0.605445,-1.0339485,-0.38530537,-1.3314464,-2.0734024,3.7457333
1747679542.836858,0.605445,-1.0339485,-0.38530537,-1.3314464,-2.0734024,3.7457333
1747679542.8374043,0.605445,-1.0339485,-0.38530537,-1.3314464,-2.0734024,3.7457333
1747679542.8379273,0.605445,-1.0339485,-0.38530537,-1.3314464,-2.0734024,3.7457333
1747679542.838477,0.605445,-1.0339485,-0.38530537,-1.3314464,-2.0734024,3.7457333
1747679542.8390398,0.605445,-1.0339485,-0.38530537,-1.3314464,-2.0734024,3.7457333
1747679542.8395813,0.605445,-1.0339485,-0.38530537,-1.3314464,-2.0734024,3.7457333
1747679542.840103,0.605445,-1.0339485,-0.38530537,-1.3314464,-2.0734024,3.7457333
1747679542.8406222,0.605445,-1.0339485,-0.38530537,-1.3314464,-2.0734024,3.7457333
1747679542.8411407,0.605445,-1.0339485,-0.38530537,-1.3314464,-2.0734024,3.7457333
1747679542.841659,0.605445,-1.0339485,-0.38530537,-1.3314464,-2.0734024,3.7457333
1747679542.8421774,0.605445,-1.0339485,-0.38530537,-1.3314464,-2.0734024,3.7457333
1747679542.8426957,0.605445,-1.0339485,-0.38530537,-1.3314464,-2.0734024,3.7457333
1747679542.843214,0.605445,-1.0339485,-0.38530537,-1.3314464,-2.0734024,3.7457333
1747679542.8437452,0.605445,-1.0339485,-0.38530537,-1.3314464,-2.0734024,3.7457333
1747679542.8442776,0.605445,-1.0339485,-0.38530537,-1.3314464,-2.0734024,3.7457333
1747679542.8448348,0.605445,-1.0339485,-0.38530537,-1.6659392,-2.2502363,4.120706
1747679542.8453825,0.5346684,-1.0529851,-0.3657808,-1.6659392,-2.2502363,4.120706
1747679542.8459077,0.5346684,-1.0529851,-0.3657808,-1.6659392,-2.2502363,4.120706
1747679542.8464453,0.5346684,-1.0529851,-0.3657808,-1.6659392,-2.2502363,4.120706
1747679542.8469725,0.5346684,-1.0529851,-0.3657808,-1.6659392,-2.2502363,4.120706
1747679542.8474915,0.5346684,-1.0529851,-0.3657808,-1.6659392,-2.2502363,4.120706
1747679542.84801,0.5346684,-1.0529851,-0.3657808,-1.6659392,-2.2502363,4.120706
1747679542.848529,0.5346684,-1.0529851,-0.3657808,-1.6659392,-2.2502363,4.120706
1747679542.8490484,0.5346684,-1.0529851,-0.3657808,-2.008954,-2.6273396,4.715123
1747679542.849567,0.5346684,-1.0529851,-0.3657808,-2.008954,-2.6273396,4.715123
1747679542.8500853,0.5346684,-1.0529851,-0.3657808,-2.008954,-2.6273396,4.715123
1747679542.8506327,0.5395496,-1.1354764,-0.35699475,-2.008954,-2.6273396,4.715123
1747679542.851181,0.5395496,-1.1354764,-0.35699475,-2.008954,-2.6273396,4.715123
1747679542.851714,0.5395496,-1.1354764,-0.35699475,-2.008954,-2.6273396,4.715123
1747679542.852233,0.5395496,-1.1354764,-0.35699475,-2.008954,-2.6273396,4.715123
1747679542.8527517,0.5395496,-1.1354764,-0.35699475,-2.008954,-2.6273396,4.715123
1747679542.85327,0.5395496,-1.1354764,-0.35699475,-2.008954,-2.6273396,4.715123
1747679542.8538013,0.5395496,-1.1354764,-0.35699475,-2.008954,-2.6273396,4.715123
1747679542.8543432,0.5395496,-1.1354764,-0.35699475,-2.008954,-2.6273396,4.715123
1747679542.854868,0.5395496,-1.1354764,-0.35699475,-2.008954,-2.6273396,4.715123
1747679542.8553867,0.5395496,-1.1354764,-0.35699475,-2.008954,-2.6273396,4.715123
1747679542.855905,0.5395496,-1.1354764,-0.35699475,-2.008954,-2.6273396,4.715123
1747679542.8564234,0.5395496,-1.1354764,-0.35699475,-2.008954,-2.6273396,4.715123
1747679542.8569412,0.5395496,-1.1354764,-0.35699475,-2.008954,-2.6273396,4.715123
1747679542.857485,0.5395496,-1.1354764,-0.35699475,-2.008954,-2.6273396,4.715123
1747679542.8580265,0.5395496,-1.1354764,-0.35699475,-2.008954,-2.6273396,4.715123
1747679542.858547,0.68940073,-1.2140627,-0.32575542,-2.008954,-2.6273396,4.715123
1747679542.8590655,0.68940073,-1.2140627,-0.32575542,-2.2582257,-2.8659587,5.24669
1747679542.859587,0.68940073,-1.2140627,-0.32575542,-2.2582257,-2.8659587,5.24669
1747679542.8601098,0.68940073,-1.2140627,-0.32575542,-2.2582257,-2.8659587,5.24669
1747679542.8606567,0.68940073,-1.2140627,-0.32575542,-2.2582257,-2.8659587,5.24669
1747679542.8611977,0.68940073,-1.2140627,-0.32575542,-2.2582257,-2.8659587,5.24669
1747679542.8617306,0.68940073,-1.2140627,-0.32575542,-2.2582257,-2.8659587,5.24669
1747679542.8622506,0.68940073,-1.2140627,-0.32575542,-2.2582257,-2.8659587,5.24669
1747679542.862789,0.68940073,-1.2140627,-0.32575542,-2.2582257,-2.8659587,5.24669
1747679542.8633292,0.68940073,-1.2140627,-0.32575542,-2.2582257,-2.8659587,5.24669
1747679542.8638594,0.68940073,-1.2140627,-0.32575542,-2.2582257,-2.8659587,5.24669
1747679542.8643897,0.68940073,-1.2140627,-0.32575542,-2.2582257,-2.8659587,5.24669
1747679542.864913,0.68940073,-1.2140627,-0.32575542,-2.2582257,-2.8659587,5.24669
1747679542.8654344,0.68940073,-1.2140627,-0.32575542,-2.2582257,-2.8659587,5.24669
1747679542.8659916,0.68940073,-1.2140627,-0.32575542,-2.2582257,-2.8659587,5.24669
1747679542.8665457,0.68940073,-1.2140627,-0.32575542,-2.2582257,-2.8659587,5.24669
1747679542.867078,0.68940073,-1.2140627,-0.32575542,-2.2582257,-2.8659587,5.24669
1747679542.8676054,0.68940073,-1.2140627,-0.32575542,-2.2582257,-2.8659587,5.24669
1747679542.8689377,0.68940073,-1.2140627,-0.32575542,-2.2582257,-2.8659587,5.24669
1747679542.8694901,0.68940073,-1.2140627,-0.32575542,-2.2582257,-2.8659587,5.24669
1747679542.8700247,0.68940073,-1.2140627,-0.32575542,-2.2582257,-2.8659587,5.24669
1747679542.8705509,0.68940073,-1.2140627,-0.32575542,-2.2582257,-2.8659587,5.24669
1747679542.8710747,1.0056989,-1.2589693,-0.24228783,-2.2582257,-2.8659587,5.24669
1747679542.8716085,1.0056989,-1.2589693,-0.24228783,-2.4361248,-3.0385313,5.6472287
1747679542.872161,1.0056989,-1.2589693,-0.24228783,-2.4361248,-3.0385313,5.6472287
1747679542.872688,1.0056989,-1.2589693,-0.24228783,-2.4361248,-3.0385313,5.6472287
1747679542.8732097,1.0056989,-1.2589693,-0.24228783,-2.4361248,-3.0385313,5.6472287
1747679542.8737323,1.0056989,-1.2589693,-0.24228783,-2.4361248,-3.0385313,5.6472287
1747679542.8742578,1.0056989,-1.2589693,-0.24228783,-2.4361248,-3.0385313,5.6472287
1747679542.8747864,1.0056989,-1.2589693,-0.24228783,-2.4361248,-3.0385313,5.6472287
1747679542.8753088,1.0056989,-1.2589693,-0.24228783,-2.4361248,-3.0385313,5.6472287
1747679542.8758326,1.0056989,-1.2589693,-0.24228783,-2.4361248,-3.0385313,5.6472287
1747679542.876385,1.0056989,-1.2589693,-0.24228783,-2.4361248,-3.0385313,5.6472287
1747679542.8769436,1.0056989,-1.2589693,-0.24228783,-2.4361248,-3.0385313,5.6472287
1747679542.87748,1.0056989,-1.2589693,-0.24228783,-2.4361248,-3.0385313,5.6472287
1747679542.8780053,1.0056989,-1.2589693,-0.24228783,-2.4361248,-3.0385313,5.6472287
1747679542.8785455,1.0056989,-1.2589693,-0.24228783,-2.4361248,-3.0385313,5.6472287
1747679542.8791006,1.0056989,-1.2589693,-0.24228783,-2.4361248,-3.0385313,5.6472287
1747679542.8796222,1.3786184,-1.3097332,-0.13441454,-2.4766047,-3.2089736,5.825128
1747679542.8801417,1.3786184,-1.3097332,-0.13441454,-2.4766047,-3.2089736,5.825128
1747679542.8806608,1.3786184,-1.3097332,-0.13441454,-2.4766047,-3.2089736,5.825128
1747679542.8812072,1.3786184,-1.3097332,-0.13441454,-2.4766047,-3.2089736,5.825128
1747679542.8817558,1.3786184,-1.3097332,-0.13441454,-2.4766047,-3.2089736,5.825128
1747679542.8822806,1.3786184,-1.3097332,-0.13441454,-2.4766047,-3.2089736,5.825128
1747679542.8827996,1.3786184,-1.3097332,-0.13441454,-2.4766047,-3.2089736,5.825128
1747679542.883332,1.3786184,-1.3097332,-0.13441454,-2.4766047,-3.2089736,5.825128
1747679542.8838685,1.3786184,-1.3097332,-0.13441454,-2.4766047,-3.2089736,5.825128
1747679542.8843896,1.3786184,-1.3097332,-0.13441454,-2.4766047,-3.2089736,5.825128
1747679542.8849084,1.3786184,-1.3097332,-0.13441454,-2.4766047,-3.2089736,5.825128
1747679542.885427,1.3786184,-1.3097332,-0.13441454,-2.4766047,-3.2089736,5.825128
1747679542.8859453,1.3786184,-1.3097332,-0.13441454,-2.4766047,-3.2089736,5.825128
1747679542.886464,1.3786184,-1.3097332,-0.13441454,-2.4766047,-3.2089736,5.825128
1747679542.8869822,1.3786184,-1.3097332,-0.13441454,-2.4766047,-3.2089736,5.825128
1747679542.8875005,1.3786184,-1.3097332,-0.13441454,-2.4766047,-3.2089736,5.825128
1747679542.8880196,1.3786184,-1.3097332,-0.13441454,-2.4766047,-3.2089736,5.825128
1747679542.8885381,1.3786184,-1.3097332,-0.13441454,-2.4766047,-3.2089736,5.825128
1747679542.8890564,1.3786184,-1.3097332,-0.13441454,-2.4766047,-3.2089736,5.825128
1747679542.889575,1.3786184,-1.3097332,-0.13441454,-2.4766047,-3.2089736,5.825128
1747679542.8900933,1.3786184,-1.3097332,-0.13441454,-2.4766047,-3.2089736,5.825128
1747679542.8906114,1.3786184,-1.3097332,-0.13441454,-2.4766047,-3.2089736,5.825128
1747679542.8911347,1.3786184,-1.3097332,-0.13441454,-2.4766047,-3.2089736,5.825128
1747679542.8917003,1.8179215,-1.3521992,-0.01189779,-2.4766047,-3.2089736,5.825128
1747679542.8922393,1.8179215,-1.3521992,-0.01189779,-2.3679478,-3.3921988,5.780387
1747679542.892761,1.8179215,-1.3521992,-0.01189779,-2.3679478,-3.3921988,5.780387
1747679542.8932798,1.8179215,-1.3521992,-0.01189779,-2.3679478,-3.3921988,5.780387
1747679542.8938155,1.8179215,-1.3521992,-0.01189779,-2.3679478,-3.3921988,5.780387
1747679542.894367,1.8179215,-1.3521992,-0.01189779,-2.3679478,-3.3921988,5.780387
1747679542.8948917,1.8179215,-1.3521992,-0.01189779,-2.3679478,-3.3921988,5.780387
1747679542.895411,1.8179215,-1.3521992,-0.01189779,-2.3679478,-3.3921988,5.780387
1747679542.8959298,1.8179215,-1.3521992,-0.01189779,-2.3679478,-3.3921988,5.780387
1747679542.8965228,1.8179215,-1.3521992,-0.01189779,-2.3679478,-3.3921988,5.780387
1747679542.897078,1.8179215,-1.3521992,-0.01189779,-2.3679478,-3.3921988,5.780387
1747679542.8976407,1.8179215,-1.3521992,-0.01189779,-2.3679478,-3.3921988,5.780387
1747679542.8981876,1.8179215,-1.3521992,-0.01189779,-2.3679478,-3.3921988,5.780387
1747679542.898724,1.8179215,-1.3521992,-0.01189779,-2.3679478,-3.3921988,5.780387
1747679542.8992472,1.8179215,-1.3521992,-0.01189779,-2.3679478,-3.3921988,5.780387
1747679542.8997858,1.8179215,-1.3521992,-0.01189779,-2.3679478,-3.3921988,5.780387
1747679542.9003713,1.8179215,-1.3521992,-0.01189779,-2.3679478,-3.3921988,5.780387
1747679542.900913,1.8179215,-1.3521992,-0.01189779,-2.3679478,-3.3921988,5.780387
1747679542.9014497,1.8179215,-1.3521992,-0.01189779,-2.1144152,-3.570098,5.580117
1747679542.9019828,1.8179215,-1.3521992,-0.01189779,-2.1144152,-3.570098,5.580117
1747679542.9025028,2.1469107,-1.4083323,0.09060626,-2.1144152,-3.570098,5.580117
1747679542.9030216,2.1469107,-1.4083323,0.09060626,-2.1144152,-3.570098,5.580117
1747679542.9035397,2.1469107,-1.4083323,0.09060626,-2.1144152,-3.570098,5.580117
1747679542.904071,2.1469107,-1.4083323,0.09060626,-2.1144152,-3.570098,5.580117
1747679542.9046004,2.1469107,-1.4083323,0.09060626,-2.1144152,-3.570098,5.580117
1747679542.90512,2.1469107,-1.4083323,0.09060626,-2.1144152,-3.570098,5.580117
1747679542.9056387,2.1469107,-1.4083323,0.09060626,-2.1144152,-3.570098,5.580117
1747679542.9061565,2.1469107,-1.4083323,0.09060626,-2.1144152,-3.570098,5.580117
1747679542.9066746,2.1469107,-1.4083323,0.09060626,-2.1144152,-3.570098,5.580117
1747679542.9071956,2.1469107,-1.4083323,0.09060626,-2.1144152,-3.570098,5.580117
1747679542.9077504,2.1469107,-1.4083323,0.09060626,-2.1144152,-3.570098,5.580117
1747679542.9083035,2.1469107,-1.4083323,0.09060626,-2.1144152,-3.570098,5.580117
1747679542.9088366,2.1469107,-1.4083323,0.09060626,-2.1144152,-3.570098,5.580117
1747679542.9093564,2.1469107,-1.4083323,0.09060626,-2.1144152,-3.570098,5.580117
1747679542.9098747,2.1469107,-1.4083323,0.09060626,-2.1144152,-3.570098,5.580117
1747679542.910394,2.1469107,-1.4083323,0.09060626,-2.1144152,-3.570098,5.580117
1747679542.9109137,2.1469107,-1.4083323,0.09060626,-2.1144152,-3.570098,5.580117
1747679542.9114325,2.1469107,-1.4083323,0.09060626,-2.1144152,-3.570098,5.580117
1747679542.91198,2.1469107,-1.4083323,0.09060626,-1.8097497,-3.7533233,5.4395022
1747679542.912529,2.1469107,-1.4083323,0.09060626,-1.8097497,-3.7533233,5.4395022
1747679542.9130664,2.1469107,-1.4083323,0.09060626,-1.8097497,-3.7533233,5.4395022
1747679542.9136055,2.1469107,-1.4083323,0.09060626,-1.8097497,-3.7533233,5.4395022
1747679542.9141626,2.1469107,-1.4083323,0.09060626,-1.8097497,-3.7533233,5.4395022
1747679542.9147098,2.1469107,-1.4083323,0.09060626,-1.8097497,-3.7533233,5.4395022
1747679542.915246,2.1469107,-1.4083323,0.09060626,-1.8097497,-3.7533233,5.4395022
1747679542.9157813,2.1469107,-1.4083323,0.09060626,-1.8097497,-3.7533233,5.4395022
1747679542.9163268,2.1469107,-1.4083323,0.09060626,-1.8097497,-3.7533233,5.4395022
1747679542.9168742,2.1469107,-1.4083323,0.09060626,-1.8097497,-3.7533233,5.4395022
1747679542.9174185,2.1469107,-1.4083323,0.09060626,-1.8097497,-3.7533233,5.4395022
1747679542.9179797,2.1469107,-1.4083323,0.09060626,-1.8097497,-3.7533233,5.4395022
1747679542.9185216,2.1469107,-1.4083323,0.09060626,-1.8097497,-3.7533233,5.4395022
1747679542.9190717,2.1469107,-1.4083323,0.09060626,-1.8097497,-3.7533233,5.4395022
1747679542.9196136,2.1469107,-1.4083323,0.09060626,-1.8097497,-3.7533233,5.4395022
1747679542.9201589,2.1469107,-1.4083323,0.09060626,-1.8097497,-3.7533233,5.4395022
1747679542.9207015,2.5505815,-1.355616,0.20092013,-1.5796528,-3.877959,5.3553467
1747679542.9212396,2.5505815,-1.355616,0.20092013,-1.5796528,-3.877959,5.3553467
1747679542.921774,2.5505815,-1.355616,0.20092013,-1.5796528,-3.877959,5.3553467
1747679542.9223256,2.5505815,-1.355616,0.20092013,-1.5796528,-3.877959,5.3553467
1747679542.923725,2.5505815,-1.355616,0.20092013,-1.5796528,-3.877959,5.3553467
1747679542.9242826,2.5505815,-1.355616,0.20092013,-1.5796528,-3.877959,5.3553467
1747679542.9248376,2.5505815,-1.355616,0.20092013,-1.5796528,-3.877959,5.3553467
1747679542.9254413,2.5505815,-1.355616,0.20092013,-1.5796528,-3.877959,5.3553467
1747679542.9259858,2.5505815,-1.355616,0.20092013,-1.5796528,-3.877959,5.3553467
1747679542.9265454,2.5505815,-1.355616,0.20092013,-1.5796528,-3.877959,5.3553467
1747679542.927128,2.5505815,-1.355616,0.20092013,-1.5796528,-3.877959,5.3553467
1747679542.9277055,2.5505815,-1.355616,0.20092013,-1.5796528,-3.877959,5.3553467
1747679542.9282763,2.5505815,-1.355616,0.20092013,-1.5796528,-3.877959,5.3553467
1747679542.9288342,2.5505815,-1.355616,0.20092013,-1.5796528,-3.877959,5.3553467
1747679542.9293833,2.5505815,-1.355616,0.20092013,-1.5796528,-3.877959,5.3553467
1747679542.9299405,2.5505815,-1.355616,0.20092013,-1.5796528,-3.877959,5.3553467
1747679542.9304945,2.5505815,-1.355616,0.20092013,-1.5796528,-3.877959,5.3553467
1747679542.9310915,2.5505815,-1.355616,0.20092013,-1.5796528,-3.877959,5.3553467
1747679542.9316447,2.5505815,-1.355616,0.20092013,-1.5796528,-3.877959,5.3553467
1747679542.9322035,2.5505815,-1.355616,0.20092013,-1.5796528,-3.877959,5.3553467
1747679542.9328802,2.5505815,-1.355616,0.20092013,-1.5796528,-3.877959,5.3553467
1747679542.9334695,2.5505815,-1.355616,0.20092013,-1.5796528,-3.877959,5.3553467
1747679542.9340365,2.5505815,-1.355616,0.20092013,-1.5796528,-3.877959,5.3553467
1747679542.934588,2.5505815,-1.355616,0.20092013,-1.5796528,-3.877959,5.3553467
1747679542.9351172,2.5505815,-1.355616,0.20092013,-1.5796528,-3.877959,5.3553467
1747679542.93564,2.5505815,-1.355616,0.20092013,-1.5796528,-3.877959,5.3553467
1747679542.9361882,2.5505815,-1.355616,0.20092013,-1.5796528,-3.877959,5.3553467
1747679542.9367552,2.5505815,-1.355616,0.20092013,-1.5796528,-3.877959,5.3553467
1747679542.9373207,2.5505815,-1.355616,0.20092013,-1.5796528,-3.877959,5.3553467
1747679542.9378915,2.5505815,-1.355616,0.20092013,-1.5796528,-3.877959,5.3553467
1747679542.9384632,2.5505815,-1.355616,0.20092013,-1.5796528,-3.877959,5.3553467
1747679542.9390204,2.5505815,-1.355616,0.20092013,-1.5796528,-3.877959,5.3553467
1747679542.9395728,2.5505815,-1.355616,0.20092013,-1.5796528,-3.877959,5.3553467
1747679542.9401112,2.5505815,-1.355616,0.20092013,-1.5796528,-3.877959,5.3553467
1747679542.9406729,2.5505815,-1.355616,0.20092013,-1.5796528,-3.877959,5.3553467
1747679542.941236,2.5505815,-1.355616,0.20092013,-1.5796528,-3.877959,5.3553467
1747679542.9417884,2.5505815,-1.355616,0.20092013,-1.5796528,-3.877959,5.3553467
1747679542.9423456,2.5505815,-1.355616,0.20092013,-1.5796528,-3.877959,5.3553467
1747679542.9428883,2.5505815,-1.355616,0.20092013,-1.5796528,-3.877959,5.3553467
1747679542.943441,2.5505815,-1.355616,0.20092013,-1.5796528,-3.877959,5.3553467
1747679542.9439974,2.5505815,-1.355616,0.20092013,-1.5796528,-3.877959,5.3553467
1747679542.9445436,2.5505815,-1.355616,0.20092013,-1.5796528,-3.877959,5.3553467
1747679542.9450827,2.5505815,-1.355616,0.20092013,-1.5796528,-3.877959,5.3553467
1747679542.9456217,2.5505815,-1.355616,0.20092013,-1.5796528,-3.877959,5.3553467
1747679542.94616,2.5505815,-1.355616,0.20092013,-1.5796528,-3.877959,5.3553467
1747679542.946699,2.5505815,-1.355616,0.20092013,-1.5796528,-3.877959,5.3553467
1747679542.9472375,2.5505815,-1.355616,0.20092013,-1.5796528,-3.877959,5.3553467
1747679542.9477758,2.5505815,-1.355616,0.20092013,-1.5796528,-3.877959,5.3553467
1747679542.9483216,2.5505815,-1.355616,0.20092013,-1.5796528,-3.877959,5.3553467
1747679542.94887,2.8800585,-1.3370677,0.23704061,-1.2430295,-3.4561148,5.457612
1747679542.9494133,2.8800585,-1.3370677,0.23704061,-1.2430295,-3.4561148,5.457612
1747679542.949952,2.8800585,-1.3370677,0.23704061,-1.2430295,-3.4561148,5.457612
1747679542.9504914,2.8800585,-1.3370677,0.23704061,-1.2430295,-3.4561148,5.457612
1747679542.9510326,2.8800585,-1.3370677,0.23704061,-1.2430295,-3.4561148,5.457612
1747679542.9515612,2.8800585,-1.3370677,0.23704061,-1.2430295,-3.4561148,5.457612
1747679542.9520986,2.8800585,-1.3370677,0.23704061,-1.2430295,-3.4561148,5.457612
1747679542.9526267,2.8800585,-1.3370677,0.23704061,-1.2430295,-3.4561148,5.457612
1747679542.9531748,2.8800585,-1.3370677,0.23704061,-1.2430295,-3.4561148,5.457612
1747679542.9537332,2.8800585,-1.3370677,0.23704061,-1.2430295,-3.4561148,5.457612
1747679542.9543726,2.8800585,-1.3370677,0.23704061,-1.2430295,-3.4561148,5.457612
1747679542.9554782,3.111913,-1.411261,0.16919269,-1.2430295,-3.4561148,5.457612
1747679542.9560432,3.111913,-1.411261,0.16919269,-1.2430295,-3.4561148,5.457612
1747679542.9565868,3.111913,-1.411261,0.16919269,-1.2632695,-2.9064386,5.609945
1747679542.9571185,3.111913,-1.411261,0.16919269,-1.2632695,-2.9064386,5.609945
1747679542.9576845,3.111913,-1.411261,0.16919269,-1.2632695,-2.9064386,5.609945
1747679542.9582844,3.111913,-1.411261,0.16919269,-1.2632695,-2.9064386,5.609945
1747679542.9588616,3.111913,-1.411261,0.16919269,-1.2632695,-2.9064386,5.609945
1747679542.9594264,3.111913,-1.411261,0.16919269,-1.2632695,-2.9064386,5.609945
1747679542.9600031,3.111913,-1.411261,0.16919269,-1.362339,-2.5698154,5.667469
1747679542.9606807,3.2666452,-1.5752676,0.07791527,-1.362339,-2.5698154,5.667469
1747679542.9612453,3.2666452,-1.5752676,0.07791527,-1.362339,-2.5698154,5.667469
1747679542.961761,3.2666452,-1.5752676,0.07791527,-1.362339,-2.5698154,5.667469
1747679542.9622903,3.2666452,-1.5752676,0.07791527,-1.362339,-2.5698154,5.667469
1747679542.9628377,3.2666452,-1.5752676,0.07791527,-1.362339,-2.5698154,5.667469
1747679542.963368,3.2666452,-1.5752676,0.07791527,-1.362339,-2.5698154,5.667469
1747679542.963903,3.2666452,-1.5752676,0.07791527,-1.362339,-2.5698154,5.667469
1747679542.9644415,3.2666452,-1.5752676,0.07791527,-1.362339,-2.5698154,5.667469
1747679542.9649742,3.2666452,-1.5752676,0.07791527,-1.362339,-2.5698154,5.667469
1747679542.9655006,3.2666452,-1.5752676,0.07791527,-1.362339,-2.5698154,5.667469
1747679542.9660294,3.2666452,-1.5752676,0.07791527,-1.362339,-2.5698154,5.667469
1747679542.96656,3.2666452,-1.5752676,0.07791527,-1.362339,-2.5698154,5.667469
1747679542.96709,3.2666452,-1.5752676,0.07791527,-1.362339,-2.5698154,5.667469
1747679542.9676104,3.2666452,-1.5752676,0.07791527,-1.362339,-2.5698154,5.667469
1747679542.9681537,3.2666452,-1.5752676,0.07791527,-1.362339,-2.5698154,5.667469
1747679542.9686842,3.2666452,-1.5752676,0.07791527,-1.362339,-2.5698154,5.667469
1747679542.9692206,3.2666452,-1.5752676,0.07791527,-1.362339,-2.5698154,5.667469
1747679542.9697785,3.2666452,-1.5752676,0.07791527,-1.362339,-2.5698154,5.667469
1747679542.9703355,3.3193617,-1.7622153,-0.024100652,-1.362339,-2.5698154,5.667469
1747679542.970911,3.3193617,-1.7622153,-0.024100652,-1.362339,-2.5698154,5.667469
1747679542.9714665,3.3193617,-1.7622153,-0.024100652,-1.5253243,-2.3940468,5.697296
1747679542.971995,3.3193617,-1.7622153,-0.024100652,-1.5253243,-2.3940468,5.697296
1747679542.9725304,3.3193617,-1.7622153,-0.024100652,-1.5253243,-2.3940468,5.697296
1747679542.9731002,3.3193617,-1.7622153,-0.024100652,-1.5253243,-2.3940468,5.697296
1747679542.9736705,3.3193617,-1.7622153,-0.024100652,-1.5253243,-2.3940468,5.697296
1747679542.9742262,3.3193617,-1.7622153,-0.024100652,-1.5253243,-2.3940468,5.697296
1747679542.9747987,3.3193617,-1.7622153,-0.024100652,-1.5253243,-2.3940468,5.697296
1747679542.975321,3.3193617,-1.7622153,-0.024100652,-1.5253243,-2.3940468,5.697296
1747679542.9760208,3.3193617,-1.7622153,-0.024100652,-1.5253243,-2.3940468,5.697296
1747679542.9765482,3.3193617,-1.7622153,-0.024100652,-1.5253243,-2.3940468,5.697296
1747679542.9770846,3.3193617,-1.7622153,-0.024100652,-1.5253243,-2.3940468,5.697296
1747679542.9776177,3.3193617,-1.7622153,-0.024100652,-1.5253243,-2.3940468,5.697296
1747679542.9781494,3.3193617,-1.7622153,-0.024100652,-1.5253243,-2.3940468,5.697296
1747679542.9787147,3.3193617,-1.7622153,-0.024100652,-1.5253243,-2.3940468,5.697296
1747679542.979203,3.3193617,-1.7622153,-0.024100652,-1.5253243,-2.3940468,5.697296
1747679542.9797292,3.3193617,-1.7622153,-0.024100652,-1.5253243,-2.3940468,5.697296
1747679542.9802666,3.34572,-1.8510522,-0.092924796,-1.7106802,-2.3887205,5.758016
1747679542.9808064,3.34572,-1.8510522,-0.092924796,-1.7106802,-2.3887205,5.758016
1747679542.9813411,3.34572,-1.8510522,-0.092924796,-1.7106802,-2.3887205,5.758016
1747679542.981877,3.34572,-1.8510522,-0.092924796,-1.7106802,-2.3887205,5.758016
1747679542.9824126,3.34572,-1.8510522,-0.092924796,-1.7106802,-2.3887205,5.758016
1747679542.98296,3.34572,-1.8510522,-0.092924796,-1.7106802,-2.3887205,5.758016
1747679542.9834895,3.34572,-1.8510522,-0.092924796,-1.7106802,-2.3887205,5.758016
1747679542.9840374,3.34572,-1.8510522,-0.092924796,-1.7106802,-2.3887205,5.758016
1747679542.984566,3.34572,-1.8510522,-0.092924796,-1.7106802,-2.3887205,5.758016
1747679542.9851077,3.34572,-1.8510522,-0.092924796,-1.7106802,-2.3887205,5.758016
1747679542.9856725,3.34572,-1.8510522,-0.092924796,-1.7106802,-2.3887205,5.758016
1747679542.9862318,3.34572,-1.8510522,-0.092924796,-1.7106802,-2.3887205,5.758016
1747679542.9867718,3.34572,-1.8510522,-0.092924796,-1.7106802,-2.3887205,5.758016
1747679542.9873078,3.34572,-1.8510522,-0.092924796,-1.7106802,-2.3887205,5.758016
1747679542.987842,3.34572,-1.8510522,-0.092924796,-1.7106802,-2.3887205,5.758016
1747679542.9884045,3.34572,-1.8510522,-0.092924796,-1.7106802,-2.3887205,5.758016
1747679542.9890049,3.34572,-1.8510522,-0.092924796,-1.7106802,-2.3887205,5.758016
1747679542.9895456,3.7132702,-1.9447701,-0.09487725,-2.0068235,-2.6497102,5.825128
1747679542.9900918,3.7132702,-1.9447701,-0.09487725,-2.0068235,-2.6497102,5.825128
1747679542.9906497,3.7132702,-1.9447701,-0.09487725,-2.0068235,-2.6497102,5.825128
1747679542.9911828,3.7132702,-1.9447701,-0.09487725,-2.0068235,-2.6497102,5.825128
1747679542.991756,3.7132702,-1.9447701,-0.09487725,-2.0068235,-2.6497102,5.825128
1747679542.99232,3.7132702,-1.9447701,-0.09487725,-2.0068235,-2.6497102,5.825128
1747679542.9928546,3.7132702,-1.9447701,-0.09487725,-2.0068235,-2.6497102,5.825128
1747679542.9934185,3.7132702,-1.9447701,-0.09487725,-2.0068235,-2.6497102,5.825128
1747679542.9939728,3.7132702,-1.9447701,-0.09487725,-2.0068235,-2.6497102,5.825128
1747679542.9945335,3.7132702,-1.9447701,-0.09487725,-2.0068235,-2.6497102,5.825128
1747679542.995094,3.7132702,-1.9447701,-0.09487725,-2.0068235,-2.6497102,5.825128
1747679542.995617,3.7132702,-1.9447701,-0.09487725,-2.0068235,-2.6497102,5.825128
1747679542.9961767,3.7132702,-1.9447701,-0.09487725,-2.0068235,-2.6497102,5.825128
1747679542.9967296,3.7132702,-1.9447701,-0.09487725,-2.0068235,-2.6497102,5.825128
1747679542.9972823,3.7132702,-1.9447701,-0.09487725,-2.0068235,-2.6497102,5.825128
1747679542.997834,3.7132702,-1.9447701,-0.09487725,-2.0068235,-2.6497102,5.825128
1747679542.9983864,3.7132702,-1.9447701,-0.09487725,-2.0068235,-2.6497102,5.825128
1747679542.998942,3.9748993,-2.0018795,-0.056316208,-2.0068235,-2.6497102,5.825128
1747679542.999495,3.9748993,-2.0018795,-0.056316208,-2.0068235,-2.6497102,5.825128
1747679543.00005,3.9748993,-2.0018795,-0.056316208,-2.1453078,-2.8659587,5.75269
1747679543.000611,3.9748993,-2.0018795,-0.056316208,-2.1453078,-2.8659587,5.75269
1747679543.00115,3.9748993,-2.0018795,-0.056316208,-2.1453078,-2.8659587,5.75269
1747679543.0017183,3.9748993,-2.0018795,-0.056316208,-2.1453078,-2.8659587,5.75269
1747679543.0022845,3.9748993,-2.0018795,-0.056316208,-2.1453078,-2.8659587,5.75269
1747679543.0028393,3.9748993,-2.0018795,-0.056316208,-2.1453078,-2.8659587,5.75269
1747679543.0033891,3.9748993,-2.0018795,-0.056316208,-2.1453078,-2.8659587,5.75269
1747679543.003959,3.9748993,-2.0018795,-0.056316208,-2.1453078,-2.8659587,5.75269
1747679543.004535,3.9748993,-2.0018795,-0.056316208,-2.1453078,-2.8659587,5.75269
1747679543.0050907,3.9748993,-2.0018795,-0.056316208,-2.1453078,-2.8659587,5.75269
1747679543.0056422,3.9748993,-2.0018795,-0.056316208,-2.1453078,-2.8659587,5.75269
1747679543.0061944,3.9748993,-2.0018795,-0.056316208,-2.1453078,-2.8659587,5.75269
1747679543.006746,3.9748993,-2.0018795,-0.056316208,-2.1453078,-2.8659587,5.75269
1747679543.0072973,3.9748993,-2.0018795,-0.056316208,-2.1453078,-2.8659587,5.75269
1747679543.00793,3.9748993,-2.0018795,-0.056316208,-2.1453078,-2.8659587,5.75269
1747679543.0084805,3.9748993,-2.0018795,-0.056316208,-2.1453078,-2.8659587,5.75269
1747679543.0090325,3.9748993,-2.0018795,-0.056316208,-2.1453078,-2.8659587,5.75269
1747679543.0095844,3.9748993,-2.0018795,-0.056316208,-2.1453078,-2.8659587,5.75269
1747679543.0101392,3.9748993,-2.0018795,-0.056316208,-2.1453078,-2.8659587,5.75269
1747679543.0106933,4.2008963,-2.067775,0.022758339,-2.3242722,-2.9937904,5.6557508
1747679543.0112262,4.2008963,-2.067775,0.022758339,-2.3242722,-2.9937904,5.6557508
1747679543.0117784,4.2008963,-2.067775,0.022758339,-2.3242722,-2.9937904,5.6557508
1747679543.01233,4.2008963,-2.067775,0.022758339,-2.3242722,-2.9937904,5.6557508
1747679543.0128818,4.2008963,-2.067775,0.022758339,-2.3242722,-2.9937904,5.6557508
1747679543.013433,4.2008963,-2.067775,0.022758339,-2.3242722,-2.9937904,5.6557508
1747679543.0139847,4.2008963,-2.067775,0.022758339,-2.3242722,-2.9937904,5.6557508
1747679543.0145516,4.2008963,-2.067775,0.022758339,-2.3242722,-2.9937904,5.6557508
1747679543.0150814,4.2008963,-2.067775,0.022758339,-2.3242722,-2.9937904,5.6557508
1747679543.0156178,4.2008963,-2.067775,0.022758339,-2.3242722,-2.9937904,5.6557508
1747679543.0161731,4.2008963,-2.067775,0.022758339,-2.3242722,-2.9937904,5.6557508
1747679543.0167253,4.2008963,-2.067775,0.022758339,-2.3242722,-2.9937904,5.6557508
1747679543.0172982,4.2008963,-2.067775,0.022758339,-2.3242722,-2.9937904,5.6557508
1747679543.0178294,4.2008963,-2.067775,0.022758339,-2.3242722,-2.9937904,5.6557508
1747679543.0183656,4.2008963,-2.067775,0.022758339,-2.3242722,-2.9937904,5.6557508
1747679543.018942,4.2008963,-2.067775,0.022758339,-2.3242722,-2.9937904,5.6557508
1747679543.0195236,4.2008963,-2.067775,0.022758339,-2.3242722,-2.9937904,5.6557508
1747679543.0200508,4.2008963,-2.067775,0.022758339,-2.3242722,-2.9937904,5.6557508
1747679543.0206113,4.2008963,-2.067775,0.022758339,-2.3242722,-2.9937904,5.6557508
1747679543.0211647,4.2008963,-2.067775,0.022758339,-2.3242722,-2.9937904,5.6557508
1747679543.021721,4.2008963,-2.067775,0.022758339,-2.3242722,-2.9937904,5.6557508
1747679543.0222733,4.2008963,-2.067775,0.022758339,-2.3242722,-2.9937904,5.6557508
1747679543.0228043,4.2008963,-2.067775,0.022758339,-2.3242722,-2.9937904,5.6557508
1747679543.0233593,4.2121234,-2.0170112,0.08963002,-2.4318638,-2.8041735,5.7100797
1747679543.023898,4.2121234,-2.0170112,0.08963002,-2.4318638,-2.8041735,5.7100797
1747679543.0244365,4.2121234,-2.0170112,0.08963002,-2.4318638,-2.8041735,5.7100797
1747679543.0249743,4.2121234,-2.0170112,0.08963002,-2.4318638,-2.8041735,5.7100797
1747679543.0255113,4.2121234,-2.0170112,0.08963002,-2.4318638,-2.8041735,5.7100797
1747679543.0260506,4.2121234,-2.0170112,0.08963002,-2.4318638,-2.8041735,5.7100797
1747679543.0265892,4.2121234,-2.0170112,0.08963002,-2.4318638,-2.8041735,5.7100797
1747679543.0271375,4.2121234,-2.0170112,0.08963002,-2.4318638,-2.8041735,5.7100797
1747679543.0276644,4.2121234,-2.0170112,0.08963002,-2.4318638,-2.8041735,5.7100797
1747679543.0282025,4.2121234,-2.0170112,0.08963002,-2.4318638,-2.8041735,5.7100797
1747679543.0287519,4.2121234,-2.0170112,0.08963002,-2.4318638,-2.8041735,5.7100797
1747679543.0292792,4.2121234,-2.0170112,0.08963002,-2.4318638,-2.8041735,5.7100797
1747679543.0298238,4.2121234,-2.0170112,0.08963002,-2.4318638,-2.8041735,5.7100797
1747679543.0303674,4.238481,-1.7080348,0.41617864,-2.4318638,-2.8041735,5.7100797
1747679543.030911,4.238481,-1.7080348,0.41617864,-2.5032363,-2.4515712,5.8719997
1747679543.0314581,4.238481,-1.7080348,0.41617864,-2.5032363,-2.4515712,5.8719997
1747679543.0320091,4.238481,-1.7080348,0.41617864,-2.5032363,-2.4515712,5.8719997
1747679543.0325725,4.238481,-1.7080348,0.41617864,-2.5032363,-2.4515712,5.8719997
1747679543.0331295,4.238481,-1.7080348,0.41617864,-2.5032363,-2.4515712,5.8719997
1747679543.0336885,4.238481,-1.7080348,0.41617864,-2.5032363,-2.4515712,5.8719997
1747679543.034255,4.238481,-1.7080348,0.41617864,-2.5032363,-2.4515712,5.8719997
1747679543.0348125,4.238481,-1.7080348,0.41617864,-2.5032363,-2.4515712,5.8719997
1747679543.0353565,4.238481,-1.7080348,0.41617864,-2.5032363,-2.4515712,5.8719997
1747679543.0359101,4.238481,-1.7080348,0.41617864,-2.5032363,-2.4515712,5.8719997
1747679543.0364716,4.238481,-1.7080348,0.41617864,-2.5032363,-2.4515712,5.8719997
1747679543.037031,4.238481,-1.7080348,0.41617864,-2.5032363,-2.4515712,5.8719997
1747679543.037588,4.238481,-1.7080348,0.41617864,-2.5032363,-2.4515712,5.8719997
1747679543.0381336,4.238481,-1.7080348,0.41617864,-2.5032363,-2.4515712,5.8719997
1747679543.038692,4.238481,-1.7080348,0.41617864,-2.5032363,-2.4515712,5.8719997
1747679543.0392575,4.238481,-1.7080348,0.41617864,-2.5032363,-2.4515712,5.8719997
1747679543.039796,4.238481,-1.7080348,0.41617864,-2.5032363,-2.4515712,5.8719997
1747679543.0404034,4.238481,-1.7080348,0.41617864,-2.5032363,-2.4515712,5.8719997
1747679543.0409646,4.238481,-1.7080348,0.41617864,-2.5032363,-2.4515712,5.8719997
1747679543.0415158,4.238481,-1.7080348,0.41617864,-2.5032363,-2.4515712,5.8719997
1747679543.0422487,4.238481,-1.7080348,0.41617864,-2.347708,-2.4355922,5.8751955
1747679543.042937,4.238481,-1.7080348,0.41617864,-2.347708,-2.4355922,5.8751955
1747679543.043531,4.238481,-1.7080348,0.41617864,-2.347708,-2.4355922,5.8751955
1747679543.0442233,4.238481,-1.7080348,0.41617864,-2.347708,-2.4355922,5.8751955
1747679543.044807,4.238481,-1.7080348,0.41617864,-2.347708,-2.4355922,5.8751955
1747679543.045331,4.238481,-1.7080348,0.41617864,-2.347708,-2.4355922,5.8751955
1747679543.0458596,4.238481,-1.7080348,0.41617864,-2.347708,-2.4355922,5.8751955
1747679543.046389,4.238481,-1.7080348,0.41617864,-2.347708,-2.4355922,5.8751955
1747679543.0469177,4.238481,-1.7080348,0.41617864,-2.347708,-2.4355922,5.8751955
1747679543.0475245,4.238481,-1.7080348,0.41617864,-2.347708,-2.4355922,5.8751955
1747679543.048732,4.238481,-1.7080348,0.41617864,-2.347708,-2.4355922,5.8751955
1747679543.0493972,4.238481,-1.7080348,0.41617864,-2.347708,-2.4355922,5.8751955
1747679543.0499604,4.238481,-1.7080348,0.41617864,-2.347708,-2.4355922,5.8751955
1747679543.0505269,4.238481,-1.7080348,0.41617864,-2.347708,-2.4355922,5.8751955
1747679543.0510945,4.238481,-1.7080348,0.41617864,-2.347708,-2.4355922,5.8751955
1747679543.051655,4.238481,-1.7080348,0.41617864,-2.347708,-2.4355922,5.8751955
1747679543.0522165,4.238481,-1.7080348,0.41617864,-2.347708,-2.4355922,5.8751955
1747679543.052772,4.63483,-1.0554256,1.0526799,-1.8662088,-2.499508,5.6333804
1747679543.0533338,4.63483,-1.0554256,1.0526799,-1.8662088,-2.499508,5.6333804
1747679543.053894,4.63483,-1.0554256,1.0526799,-1.8662088,-2.499508,5.6333804
1747679543.0544279,4.63483,-1.0554256,1.0526799,-1.8662088,-2.499508,5.6333804
1747679543.0549629,4.63483,-1.0554256,1.0526799,-1.8662088,-2.499508,5.6333804
1747679543.0555012,4.63483,-1.0554256,1.0526799,-1.8662088,-2.499508,5.6333804
1747679543.0560403,4.63483,-1.0554256,1.0526799,-1.8662088,-2.499508,5.6333804
1747679543.0565782,4.63483,-1.0554256,1.0526799,-1.8662088,-2.499508,5.6333804
1747679543.0571167,4.63483,-1.0554256,1.0526799,-1.8662088,-2.499508,5.6333804
1747679543.057651,4.63483,-1.0554256,1.0526799,-1.8662088,-2.499508,5.6333804
1747679543.0581892,4.63483,-1.0554256,1.0526799,-1.8662088,-2.499508,5.6333804
1747679543.058731,4.63483,-1.0554256,1.0526799,-1.8662088,-2.499508,5.6333804
1747679543.0592608,4.63483,-1.0554256,1.0526799,-1.8662088,-2.499508,5.6333804
1747679543.0597935,4.63483,-1.0554256,1.0526799,-1.8662088,-2.499508,5.6333804
1747679543.0603163,4.63483,-1.0554256,1.0526799,-1.8662088,-2.499508,5.6333804
1747679543.0608392,4.63483,-1.0554256,1.0526799,-1.8662088,-2.499508,5.6333804
1747679543.0613608,4.63483,-1.0554256,1.0526799,-1.8662088,-2.499508,5.6333804
1747679543.0618827,4.63483,-1.0554256,1.0526799,-1.8662088,-2.499508,5.6333804
1747679543.0624046,4.63483,-1.0554256,1.0526799,-1.8662088,-2.499508,5.6333804
1747679543.0629592,4.63483,-1.0554256,1.0526799,-1.8662088,-2.499508,5.6333804
1747679543.0635712,4.63483,-1.0554256,1.0526799,-1.2707263,-2.5474448,5.1241846
1747679543.064164,4.8325167,-0.65810037,1.112718,-1.2707263,-2.5474448,5.1241846
1747679543.064736,4.8325167,-0.65810037,1.112718,-1.2707263,-2.5474448,5.1241846
1747679543.065297,4.8325167,-0.65810037,1.112718,-1.2707263,-2.5474448,5.1241846
1747679543.0658548,4.8325167,-0.65810037,1.112718,-1.2707263,-2.5474448,5.1241846
1747679543.0664113,4.8325167,-0.65810037,1.112718,-1.2707263,-2.5474448,5.1241846
1747679543.0669723,4.8325167,-0.65810037,1.112718,-1.2707263,-2.5474448,5.1241846
1747679543.0675719,4.8325167,-0.65810037,1.112718,-1.2707263,-2.5474448,5.1241846
1747679543.0681295,4.8325167,-0.65810037,1.112718,-1.2707263,-2.5474448,5.1241846
1747679543.0686688,4.8325167,-0.65810037,1.112718,-1.2707263,-2.5474448,5.1241846
1747679543.0692184,4.8325167,-0.65810037,1.112718,-1.2707263,-2.5474448,5.1241846
1747679543.0697787,4.8325167,-0.65810037,1.112718,-1.2707263,-2.5474448,5.1241846
1747679543.0703373,4.8325167,-0.65810037,1.112718,-1.2707263,-2.5474448,5.1241846
1747679543.070901,4.698285,-0.19292724,0.92967504,-1.2707263,-2.5474448,5.1241846
1747679543.071435,4.698285,-0.19292724,0.92967504,-1.2707263,-2.5474448,5.1241846
1747679543.0719628,4.698285,-0.19292724,0.92967504,-1.2707263,-2.5474448,5.1241846
1747679543.0724943,4.698285,-0.19292724,0.92967504,-0.74342084,-2.44731,4.246407
1747679543.073026,4.698285,-0.19292724,0.92967504,-0.74342084,-2.44731,4.246407
1747679543.0735662,4.698285,-0.19292724,0.92967504,-0.74342084,-2.44731,4.246407
1747679543.074102,4.698285,-0.19292724,0.92967504,-0.74342084,-2.44731,4.246407
1747679543.0746355,4.698285,-0.19292724,0.92967504,-0.74342084,-2.44731,4.246407
1747679543.0751615,4.698285,-0.19292724,0.92967504,-0.74342084,-2.44731,4.246407
1747679543.0756886,4.698285,-0.19292724,0.92967504,-0.74342084,-2.44731,4.246407
1747679543.0762174,4.698285,-0.19292724,0.92967504,-0.74342084,-2.44731,4.246407
1747679543.0767546,4.698285,-0.19292724,0.92967504,-0.74342084,-2.44731,4.246407
1747679543.0772822,4.698285,-0.19292724,0.92967504,-0.74342084,-2.44731,4.246407
1747679543.0778146,4.698285,-0.19292724,0.92967504,-0.74342084,-2.44731,4.246407
1747679543.0783598,4.698285,-0.19292724,0.92967504,-0.74342084,-2.44731,4.246407
1747679543.0788875,4.698285,-0.19292724,0.92967504,-0.74342084,-2.44731,4.246407
1747679543.07945,4.698285,-0.19292724,0.92967504,-0.74342084,-2.44731,4.246407
1747679543.080038,4.698285,-0.19292724,0.92967504,-0.74342084,-2.44731,4.246407
1747679543.0806146,4.698285,-0.19292724,0.92967504,-0.74342084,-2.44731,4.246407
1747679543.081171,4.3302464,0.18584959,0.6509617,-0.6581998,-2.2726068,3.6136405
1747679543.081723,4.3302464,0.18584959,0.6509617,-0.6581998,-2.2726068,3.6136405
1747679543.0823138,4.3302464,0.18584959,0.6509617,-0.6581998,-2.2726068,3.6136405
1747679543.0828876,4.3302464,0.18584959,0.6509617,-0.6581998,-2.2726068,3.6136405
1747679543.0834508,4.3302464,0.18584959,0.6509617,-0.6581998,-2.2726068,3.6136405
1747679543.0840087,4.3302464,0.18584959,0.6509617,-0.6581998,-2.2726068,3.6136405
1747679543.084573,4.3302464,0.18584959,0.6509617,-0.6581998,-2.2726068,3.6136405
1747679543.0851364,4.3302464,0.18584959,0.6509617,-0.6581998,-2.2726068,3.6136405
1747679543.085686,4.3302464,0.18584959,0.6509617,-0.6581998,-2.2726068,3.6136405
1747679543.0862257,4.3302464,0.18584959,0.6509617,-0.6581998,-2.2726068,3.6136405
1747679543.0867572,4.3302464,0.18584959,0.6509617,-0.6581998,-2.2726068,3.6136405
1747679543.0873017,4.3302464,0.18584959,0.6509617,-0.6581998,-2.2726068,3.6136405
1747679543.0878518,3.934874,0.50702894,0.38933232,-0.9596694,-1.998834,3.1513162
1747679543.0883858,3.934874,0.50702894,0.38933232,-0.9596694,-1.998834,3.1513162
1747679543.0889206,3.934874,0.50702894,0.38933232,-0.9596694,-1.998834,3.1513162
1747679543.089454,3.934874,0.50702894,0.38933232,-0.9596694,-1.998834,3.1513162
1747679543.09,3.934874,0.50702894,0.38933232,-0.9596694,-1.998834,3.1513162
1747679543.090546,3.934874,0.50702894,0.38933232,-0.9596694,-1.998834,3.1513162
1747679543.0910776,3.934874,0.50702894,0.38933232,-0.9596694,-1.998834,3.1513162
1747679543.091624,3.934874,0.50702894,0.38933232,-0.9596694,-1.998834,3.1513162
1747679543.0921679,3.934874,0.50702894,0.38933232,-0.9596694,-1.998834,3.1513162
1747679543.0927117,3.934874,0.50702894,0.38933232,-0.9596694,-1.998834,3.1513162
1747679543.0932553,3.934874,0.50702894,0.38933232,-0.9596694,-1.998834,3.1513162
1747679543.0937805,3.934874,0.50702894,0.38933232,-0.9596694,-1.998834,3.1513162
1747679543.094318,3.934874,0.50702894,0.38933232,-0.9596694,-1.998834,3.1513162
1747679543.0948584,3.934874,0.50702894,0.38933232,-0.9596694,-1.998834,3.1513162
1747679543.0954237,3.934874,0.50702894,0.38933232,-0.9596694,-1.998834,3.1513162
1747679543.095987,3.934874,0.50702894,0.38933232,-0.9596694,-1.998834,3.1513162
1747679543.0965073,3.934874,0.50702894,0.38933232,-0.9596694,-1.998834,3.1513162
1747679543.0970347,3.934874,0.50702894,0.38933232,-0.9596694,-1.998834,3.1513162
1747679543.0975604,3.934874,0.50702894,0.38933232,-0.9596694,-1.998834,3.1513162
1747679543.0980878,3.934874,0.50702894,0.38933232,-0.9596694,-1.998834,3.1513162
1747679543.0986228,3.934874,0.50702894,0.38933232,-0.9596694,-1.998834,3.1513162
1747679543.0991504,3.934874,0.50702894,0.38933232,-0.9596694,-1.998834,3.1513162
1747679543.0996869,3.6439576,0.69739354,0.22874266,-1.592436,-1.509878,2.8210845
1747679543.1002083,3.6439576,0.69739354,0.22874266,-1.592436,-1.509878,2.8210845
1747679543.100746,3.6439576,0.69739354,0.22874266,-1.592436,-1.509878,2.8210845
1747679543.1013093,3.6439576,0.69739354,0.22874266,-1.592436,-1.509878,2.8210845
1747679543.1018374,3.6439576,0.69739354,0.22874266,-1.592436,-1.509878,2.8210845
1747679543.1024232,3.6439576,0.69739354,0.22874266,-1.592436,-1.509878,2.8210845
1747679543.1029572,3.6439576,0.69739354,0.22874266,-1.592436,-1.509878,2.8210845
1747679543.1034877,3.6439576,0.69739354,0.22874266,-1.592436,-1.509878,2.8210845
1747679543.1040332,3.6439576,0.69739354,0.22874266,-1.592436,-1.509878,2.8210845
1747679543.104573,3.6439576,0.69739354,0.22874266,-1.592436,-1.509878,2.8210845
1747679543.1051242,3.6439576,0.69739354,0.22874266,-1.592436,-1.509878,2.8210845
1747679543.1056612,3.6439576,0.69739354,0.22874266,-1.592436,-1.509878,2.8210845
1747679543.106186,3.6439576,0.69739354,0.22874266,-1.592436,-1.509878,2.8210845
1747679543.106726,3.6439576,0.69739354,0.22874266,-1.592436,-1.509878,2.8210845
1747679543.107277,3.6439576,0.69739354,0.22874266,-1.592436,-1.509878,2.8210845
1747679543.1078281,3.6439576,0.69739354,0.22874266,-1.592436,-1.509878,2.8210845
1747679543.1083794,3.6439576,0.69739354,0.22874266,-1.592436,-1.509878,2.8210845
1747679543.10893,3.6439576,0.69739354,0.22874266,-1.592436,-1.509878,2.8210845
1747679543.1094816,3.6439576,0.69739354,0.22874266,-1.592436,-1.509878,2.8210845
1747679543.1100457,3.6439576,0.69739354,0.22874266,-1.592436,-1.509878,2.8210845
1747679543.1110883,3.6439576,0.69739354,0.22874266,-1.592436,-1.509878,2.8210845
1747679543.111656,3.6439576,0.69739354,0.22874266,-1.592436,-1.509878,2.8210845
1747679543.1122189,3.6439576,0.69739354,0.22874266,-1.592436,-1.509878,2.8210845
1747679543.1132345,3.6439576,0.69739354,0.22874266,-1.592436,-1.509878,2.8210845
