timestamp,acc_x,acc_y,acc_z,gyro_x,gyro_y,gyro_z
1747679527.4872267,0.3589472,0.9922148,0.19066972,-0.384427,0.28083012,-0.054062128
1747679527.4877484,0.3589472,0.9922148,0.19066972,-0.384427,0.28083012,-0.054062128
1747679527.4882987,0.3589472,0.9922148,0.19066972,-0.384427,0.28083012,-0.054062128
1747679527.4891298,0.3589472,0.9922148,0.19066972,-0.384427,0.28083012,-0.054062128
1747679527.4896955,0.3589472,0.9922148,0.19066972,-0.384427,0.28083012,-0.054062128
1747679527.490263,0.3589472,0.9922148,0.19066972,-0.384427,0.28083012,-0.054062128
1747679527.490796,0.3589472,0.9922148,0.19066972,-0.384427,0.28083012,-0.054062128
1747679527.4913607,0.3589472,0.9922148,0.19066972,-0.384427,0.28083012,-0.054062128
1747679527.4918926,0.3589472,0.9922148,0.19066972,-0.384427,0.28083012,-0.054062128
1747679527.4924397,0.3589472,0.9922148,0.19066972,-0.384427,0.28083012,-0.054062128
1747679527.4929833,0.3589472,0.9922148,0.19066972,-0.384427,0.28083012,-0.054062128
1747679527.493615,0.3589472,0.9922148,0.19066972,-0.384427,0.28083012,-0.054062128
1747679527.4944227,0.3589472,0.9922148,0.19066972,-0.3109238,0.30959225,-0.07004108
1747679527.4949589,0.3462562,1.0205253,0.1935984,-0.3109238,0.30959225,-0.07004108
1747679527.4955075,0.3462562,1.0205253,0.1935984,-0.3109238,0.30959225,-0.07004108
1747679527.4960456,0.3462562,1.0205253,0.1935984,-0.3109238,0.30959225,-0.07004108
1747679527.4965985,0.3462562,1.0205253,0.1935984,-0.3109238,0.30959225,-0.07004108
1747679527.4971511,0.3462562,1.0205253,0.1935984,-0.3109238,0.30959225,-0.07004108
1747679527.4977057,0.3462562,1.0205253,0.1935984,-0.3109238,0.30959225,-0.07004108
1747679527.49826,0.3462562,1.0205253,0.1935984,-0.3109238,0.30959225,-0.07004108
1747679527.4988132,0.3462562,1.0205253,0.1935984,-0.3109238,0.30959225,-0.07004108
1747679527.4993653,0.3462562,1.0205253,0.1935984,-0.3109238,0.30959225,-0.07004108
1747679527.4999292,0.3462562,1.0205253,0.1935984,-0.2033322,0.07736477,-0.08175898
1747679527.5004807,0.3462562,1.0205253,0.1935984,-0.2033322,0.07736477,-0.08175898
1747679527.5010426,0.3462562,1.0205253,0.1935984,-0.2033322,0.07736477,-0.08175898
1747679527.5023508,0.3867697,1.0546933,0.21898036,-0.2033322,0.07736477,-0.08175898
1747679527.5029135,0.3867697,1.0546933,0.21898036,-0.2033322,0.07736477,-0.08175898
1747679527.503472,0.3867697,1.0546933,0.21898036,-0.2033322,0.07736477,-0.08175898
1747679527.5042634,0.3867697,1.0546933,0.21898036,-0.2033322,0.07736477,-0.08175898
1747679527.5051405,0.3867697,1.0546933,0.21898036,-0.2033322,0.07736477,-0.08175898
1747679527.5056982,0.3867697,1.0546933,0.21898036,-0.2033322,0.07736477,-0.08175898
1747679527.5062554,0.3867697,1.0546933,0.21898036,-0.2033322,0.07736477,-0.08175898
1747679527.5068038,0.3867697,1.0546933,0.21898036,-0.2033322,0.07736477,-0.08175898
1747679527.507343,0.3867697,1.0546933,0.21898036,-0.2033322,0.07736477,-0.08175898
1747679527.5078666,0.3867697,1.0546933,0.21898036,-0.2033322,0.07736477,-0.08175898
1747679527.508405,0.3867697,1.0546933,0.21898036,-0.2033322,0.07736477,-0.08175898
1747679527.5089576,0.3867697,1.0546933,0.21898036,-0.2033322,0.07736477,-0.08175898
1747679527.5095189,0.3867697,1.0546933,0.21898036,-0.2033322,0.07736477,-0.08175898
1747679527.5101066,0.3867697,1.0546933,0.21898036,-0.2033322,0.07736477,-0.08175898
1747679527.5106592,0.3867697,1.0546933,0.21898036,-0.08508793,-0.21877852,-0.13502216
1747679527.511216,0.3867697,1.0546933,0.21898036,-0.08508793,-0.21877852,-0.13502216
1747679527.5117729,0.4302119,1.0644556,0.19018161,-0.08508793,-0.21877852,-0.13502216
1747679527.5123334,0.4302119,1.0644556,0.19018161,-0.08508793,-0.21877852,-0.13502216
1747679527.512897,0.4302119,1.0644556,0.19018161,-0.08508793,-0.21877852,-0.13502216
1747679527.5134678,0.4302119,1.0644556,0.19018161,-0.08508793,-0.21877852,-0.13502216
1747679527.5140042,0.4302119,1.0644556,0.19018161,-0.08508793,-0.21877852,-0.13502216
1747679527.514535,0.4302119,1.0644556,0.19018161,-0.08508793,-0.21877852,-0.13502216
1747679527.5150511,0.4302119,1.0644556,0.19018161,-0.08508793,-0.21877852,-0.13502216
1747679527.5155823,0.4302119,1.0644556,0.19018161,-0.08508793,-0.21877852,-0.13502216
1747679527.5161138,0.4302119,1.0644556,0.19018161,-0.08508793,-0.21877852,-0.13502216
1747679527.51667,0.4302119,1.0644556,0.19018161,-0.08508793,-0.21877852,-0.13502216
1747679527.51721,0.4302119,1.0644556,0.19018161,-0.08508793,-0.21877852,-0.13502216
1747679527.51777,0.4302119,1.0644556,0.19018161,-0.08508793,-0.21877852,-0.13502216
1747679527.5183332,0.4302119,1.0644556,0.19018161,-0.08508793,-0.21877852,-0.13502216
1747679527.5188832,0.4302119,1.0644556,0.19018161,-0.08508793,-0.21877852,-0.13502216
1747679527.519574,0.40531808,1.0605507,0.1057378,-0.08508793,-0.21877852,-0.13502216
1747679527.520161,0.40531808,1.0605507,0.1057378,-0.08508793,-0.21877852,-0.13502216
1747679527.5206823,0.40531808,1.0605507,0.1057378,-0.08508793,-0.21877852,-0.13502216
1747679527.5212197,0.40531808,1.0605507,0.1057378,-0.031824753,-0.35619754,-0.19893798
1747679527.521753,0.40531808,1.0605507,0.1057378,-0.031824753,-0.35619754,-0.19893798
1747679527.5222816,0.40531808,1.0605507,0.1057378,-0.031824753,-0.35619754,-0.19893798
1747679527.5228107,0.40531808,1.0605507,0.1057378,-0.031824753,-0.35619754,-0.19893798
1747679527.5233386,0.40531808,1.0605507,0.1057378,-0.031824753,-0.35619754,-0.19893798
1747679527.5238655,0.40531808,1.0605507,0.1057378,-0.031824753,-0.35619754,-0.19893798
1747679527.5244026,0.40531808,1.0605507,0.1057378,-0.031824753,-0.35619754,-0.19893798
1747679527.524964,0.40531808,1.0605507,0.1057378,-0.031824753,-0.35619754,-0.19893798
1747679527.5263016,0.40531808,1.0605507,0.1057378,-0.031824753,-0.35619754,-0.19893798
1747679527.5404305,0.32477918,1.0537171,0.032520626,-0.07230477,-0.3285007,-0.22556958
1747679527.5413108,0.32477918,1.0537171,0.032520626,-0.07230477,-0.3285007,-0.22556958
1747679527.541895,0.32477918,1.0537171,0.032520626,-0.07230477,-0.3285007,-0.22556958
1747679527.5424252,0.32477918,1.0537171,0.032520626,-0.07230477,-0.3285007,-0.22556958
1747679527.5429847,0.32477918,1.0537171,0.032520626,-0.07230477,-0.3285007,-0.22556958
1747679527.5435183,0.32477918,1.0537171,0.032520626,-0.07230477,-0.3285007,-0.22556958
1747679527.544073,0.32477918,1.0537171,0.032520626,-0.07230477,-0.3285007,-0.22556958
1747679527.5445912,0.32477918,1.0537171,0.032520626,-0.07230477,-0.3285007,-0.22556958
1747679527.5451167,0.32477918,1.0537171,0.032520626,-0.07230477,-0.3285007,-0.22556958
1747679527.5456471,0.32477918,1.0537171,0.032520626,-0.07230477,-0.3285007,-0.22556958
1747679527.5461757,0.32477918,1.0537171,0.032520626,-0.07230477,-0.3285007,-0.22556958
1747679527.5467045,0.32477918,1.0537171,0.032520626,-0.07230477,-0.3285007,-0.22556958
1747679527.5472374,0.32477918,1.0537171,0.032520626,-0.07230477,-0.3285007,-0.22556958
1747679527.5477798,0.32477918,1.0537171,0.032520626,-0.07230477,-0.3285007,-0.22556958
1747679527.5486908,0.32477918,1.0537171,0.032520626,-0.07230477,-0.3285007,-0.22556958
1747679527.549258,0.32477918,1.0537171,0.032520626,-0.07230477,-0.3285007,-0.22556958
1747679527.5497997,0.32477918,1.0537171,0.032520626,-0.07230477,-0.3285007,-0.22556958
1747679527.5504205,0.32477918,1.0537171,0.032520626,-0.07230477,-0.3285007,-0.22556958
1747679527.5509398,0.32477918,1.0537171,0.032520626,-0.07230477,-0.3285007,-0.22556958
1747679527.5527365,0.32477918,1.0537171,0.032520626,-0.07230477,-0.3285007,-0.22556958
1747679527.5549204,0.32477918,1.0537171,0.032520626,-0.07230477,-0.3285007,-0.22556958
1747679527.5556142,0.32477918,1.0537171,0.032520626,-0.07230477,-0.3285007,-0.22556958
1747679527.5561712,0.32477918,1.0537171,0.032520626,-0.07230477,-0.3285007,-0.22556958
1747679527.5567205,0.32477918,1.0537171,0.032520626,-0.07230477,-0.3285007,-0.22556958
1747679527.55727,0.32477918,1.0537171,0.032520626,-0.07230477,-0.3285007,-0.22556958
1747679527.5578213,0.32477918,1.0537171,0.032520626,-0.07230477,-0.3285007,-0.22556958
1747679527.5583968,0.32477918,1.0537171,0.032520626,-0.07230477,-0.3285007,-0.22556958
1747679527.5589304,0.32477918,1.0537171,0.032520626,-0.07230477,-0.3285007,-0.22556958
1747679527.5594792,0.32477918,1.0537171,0.032520626,-0.07230477,-0.3285007,-0.22556958
1747679527.5600276,0.32477918,1.0537171,0.032520626,-0.07230477,-0.3285007,-0.22556958
1747679527.5605862,0.32477918,1.0537171,0.032520626,-0.07230477,-0.3285007,-0.22556958
1747679527.561148,0.32477918,1.0537171,0.032520626,-0.07230477,-0.3285007,-0.22556958
1747679527.5616875,0.32477918,1.0537171,0.032520626,-0.07230477,-0.3285007,-0.22556958
1747679527.5622573,0.32477918,1.0537171,0.032520626,-0.07230477,-0.3285007,-0.22556958
1747679527.5627844,0.32477918,1.0537171,0.032520626,-0.07230477,-0.3285007,-0.22556958
1747679527.5633526,0.32477918,1.0537171,0.032520626,-0.07230477,-0.3285007,-0.22556958
1747679527.5640988,0.32477918,1.0537171,0.032520626,-0.07230477,-0.3285007,-0.22556958
1747679527.5646474,0.32477918,1.0537171,0.032520626,-0.07230477,-0.3285007,-0.22556958
1747679527.5696924,0.32477918,1.0537171,0.032520626,-0.07230477,-0.3285007,-0.22556958
1747679527.5702748,0.32477918,1.0537171,0.032520626,-0.07230477,-0.3285007,-0.22556958
1747679527.5708818,0.32477918,1.0537171,0.032520626,-0.07230477,-0.3285007,-0.22556958
1747679527.5714462,0.32477918,1.0537171,0.032520626,-0.07230477,-0.3285007,-0.22556958
1747679527.5720158,0.32477918,1.0537171,0.032520626,-0.07230477,-0.3285007,-0.22556958
1747679527.5725517,0.32477918,1.0537171,0.032520626,-0.07230477,-0.3285007,-0.22556958
1747679527.5730858,0.32477918,1.0537171,0.032520626,-0.07230477,-0.3285007,-0.22556958
1747679527.5736206,0.32477918,1.0537171,0.032520626,-0.07230477,-0.3285007,-0.22556958
1747679527.5741696,0.32477918,1.0537171,0.032520626,-0.07230477,-0.3285007,-0.22556958
1747679527.5747464,0.30818328,0.9746426,0.20287259,-0.1415469,0.2872217,-0.16165376
1747679527.575733,0.30818328,0.9746426,0.20287259,-0.06165213,0.37457332,-0.20852536
1747679527.5767248,0.30818328,0.9746426,0.20287259,-0.06165213,0.37457332,-0.20852536
1747679527.5777242,0.30818328,0.9746426,0.20287259,-0.06165213,0.37457332,-0.20852536
1747679527.5787241,0.30818328,0.9746426,0.20287259,-0.06165213,0.37457332,-0.20852536
1747679527.5797346,0.30818328,0.9746426,0.20287259,-0.06165213,0.37457332,-0.20852536
1747679527.5807688,0.30818328,0.9746426,0.20287259,-0.06165213,0.37457332,-0.20852536
1747679527.581745,0.30818328,0.9746426,0.20287259,-0.06165213,0.37457332,-0.20852536
1747679527.5827332,0.30818328,0.9746426,0.20287259,-0.06165213,0.37457332,-0.20852536
1747679527.5837393,0.20860794,1.0044177,0.12623861,-0.013715269,0.23289326,-0.17124113
1747679527.584732,0.20860794,1.0044177,0.12623861,-0.013715269,0.23289326,-0.17124113
1747679527.5857246,0.20860794,1.0044177,0.12623861,-0.013715269,0.23289326,-0.17124113
1747679527.5867248,0.20860794,1.0044177,0.12623861,-0.013715269,0.23289326,-0.17124113
1747679527.5877295,0.20860794,1.0044177,0.12623861,-0.013715269,0.23289326,-0.17124113
1747679527.588725,0.20860794,1.0044177,0.12623861,-0.013715269,0.23289326,-0.17124113
1747679527.5897248,0.20860794,1.0044177,0.12623861,-0.013715269,0.23289326,-0.17124113
1747679527.5907254,0.20860794,1.0044177,0.12623861,-0.013715269,0.23289326,-0.17124113
1747679527.591725,0.20860794,1.0044177,0.12623861,-0.013715269,0.23289326,-0.17124113
1747679527.5927248,0.20860794,1.0044177,0.12623861,-0.013715269,0.23289326,-0.17124113
1747679527.593735,0.20860794,1.0044177,0.12623861,0.0043942127,-0.058988973,-0.07004108
1747679527.5947387,0.21934645,1.0063701,0.09304683,0.0043942127,-0.058988973,-0.07004108
1747679527.5964983,0.21934645,1.0063701,0.09304683,0.0043942127,-0.058988973,-0.07004108
1747679527.5967507,0.21934645,1.0063701,0.09304683,0.0043942127,-0.058988973,-0.07004108
1747679527.5977447,0.21934645,1.0063701,0.09304683,0.0043942127,-0.058988973,-0.07004108
1747679527.5987396,0.21934645,1.0063701,0.09304683,0.0043942127,-0.058988973,-0.07004108
1747679527.599764,0.21934645,1.0063701,0.09304683,0.0043942127,-0.058988973,-0.07004108
1747679527.6003,0.21934645,1.0063701,0.09304683,0.0043942127,-0.058988973,-0.07004108
1747679527.600834,0.21934645,1.0063701,0.09304683,0.0043942127,-0.058988973,-0.07004108
1747679527.60135,0.21934645,1.0063701,0.09304683,0.016112113,-0.2752375,-0.029561065
1747679527.601908,0.28426567,1.0058819,0.09597551,0.016112113,-0.2752375,-0.029561065
1747679527.6024446,0.28426567,1.0058819,0.09597551,0.016112113,-0.2752375,-0.029561065
1747679527.6029596,0.28426567,1.0058819,0.09597551,0.016112113,-0.2752375,-0.029561065
1747679527.6034875,0.28426567,1.0058819,0.09597551,0.016112113,-0.2752375,-0.029561065
1747679527.6040351,0.28426567,1.0058819,0.09597551,0.016112113,-0.2752375,-0.029561065
1747679527.604552,0.28426567,1.0058819,0.09597551,0.016112113,-0.2752375,-0.029561065
1747679527.6050785,0.28426567,1.0058819,0.09597551,0.016112113,-0.2752375,-0.029561065
1747679527.6056066,0.28426567,1.0058819,0.09597551,0.016112113,-0.2752375,-0.029561065
1747679527.606134,0.28426567,1.0058819,0.09597551,0.016112113,-0.2752375,-0.029561065
1747679527.6066616,0.28426567,1.0058819,0.09597551,0.016112113,-0.2752375,-0.029561065
1747679527.6071887,0.28426567,1.0058819,0.09597551,0.016112113,-0.2752375,-0.029561065
1747679527.607716,0.28426567,1.0058819,0.09597551,0.016112113,-0.2752375,-0.029561065
1747679527.6082437,0.28426567,1.0058819,0.09597551,0.016112113,-0.2752375,-0.029561065
1747679527.6087906,0.28426567,1.0058819,0.09597551,0.016112113,-0.2752375,-0.029561065
1747679527.6093144,0.28426567,1.0058819,0.09597551,0.027830012,-0.374307,-0.063649505
1747679527.6098635,0.28426567,1.0058819,0.09597551,0.027830012,-0.374307,-0.063649505
1747679527.610405,0.28426567,1.0058819,0.09597551,0.027830012,-0.374307,-0.063649505
1747679527.610977,0.36138776,0.993191,0.10378534,0.027830012,-0.374307,-0.063649505
1747679527.6115532,0.36138776,0.993191,0.10378534,0.027830012,-0.374307,-0.063649505
1747679527.612085,0.36138776,0.993191,0.10378534,0.027830012,-0.374307,-0.063649505
1747679527.6126304,0.36138776,0.993191,0.10378534,0.027830012,-0.374307,-0.063649505
1747679527.613172,0.36138776,0.993191,0.10378534,0.027830012,-0.374307,-0.063649505
1747679527.6137133,0.36138776,0.993191,0.10378534,0.027830012,-0.374307,-0.063649505
1747679527.6142445,0.36138776,0.993191,0.10378534,0.027830012,-0.374307,-0.063649505
1747679527.6148,0.36138776,0.993191,0.10378534,0.027830012,-0.374307,-0.063649505
1747679527.6153386,0.36138776,0.993191,0.10378534,0.027830012,-0.374307,-0.063649505
1747679527.615879,0.36138776,0.993191,0.10378534,0.027830012,-0.374307,-0.063649505
1747679527.6164227,0.36138776,0.993191,0.10378534,0.027830012,-0.374307,-0.063649505
1747679527.616964,0.36138776,0.993191,0.10378534,0.027830012,-0.374307,-0.063649505
1747679527.6175,0.36138776,0.993191,0.10378534,0.027830012,-0.374307,-0.063649505
1747679527.6180382,0.36138776,0.993191,0.10378534,0.027830012,-0.374307,-0.063649505
1747679527.6185796,0.36138776,0.993191,0.10378534,0.027830012,-0.374307,-0.063649505
1747679527.6191156,0.36138776,0.993191,0.10378534,0.027830012,-0.374307,-0.063649505
1747679527.6196532,0.36138776,0.993191,0.10378534,0.027830012,-0.374307,-0.063649505
1747679527.6201792,0.36138776,0.993191,0.10378534,0.027830012,-0.374307,-0.063649505
1747679527.6207106,0.36138776,0.993191,0.10378534,0.027830012,-0.374307,-0.063649505
1747679527.621237,0.36138776,0.993191,0.10378534,0.019307904,-0.32956594,-0.11904321
1747679527.6217823,0.36138776,0.993191,0.10378534,0.019307904,-0.32956594,-0.11904321
1747679527.6223285,0.362364,0.96097535,0.08182019,0.019307904,-0.32956594,-0.11904321
1747679527.6228542,0.362364,0.96097535,0.08182019,0.019307904,-0.32956594,-0.11904321
1747679527.623396,0.362364,0.96097535,0.08182019,0.019307904,-0.32956594,-0.11904321
1747679527.6239398,0.362364,0.96097535,0.08182019,0.019307904,-0.32956594,-0.11904321
1747679527.6244643,0.362364,0.96097535,0.08182019,0.019307904,-0.32956594,-0.11904321
1747679527.624987,0.362364,0.96097535,0.08182019,0.019307904,-0.32956594,-0.11904321
1747679527.6255267,0.362364,0.96097535,0.08182019,0.019307904,-0.32956594,-0.11904321
1747679527.6262748,0.362364,0.96097535,0.08182019,0.019307904,-0.32956594,-0.11904321
1747679527.6268435,0.362364,0.96097535,0.08182019,0.019307904,-0.32956594,-0.11904321
1747679527.6273906,0.362364,0.96097535,0.08182019,0.019307904,-0.32956594,-0.11904321
1747679527.6279333,0.362364,0.96097535,0.08182019,0.019307904,-0.32956594,-0.11904321
1747679527.628484,0.362364,0.96097535,0.08182019,0.019307904,-0.32956594,-0.11904321
1747679527.6290314,0.362364,0.96097535,0.08182019,0.019307904,-0.32956594,-0.11904321
1747679527.6295724,0.362364,0.96097535,0.08182019,0.019307904,-0.32956594,-0.11904321
1747679527.630107,0.3057427,0.9580467,0.06815299,0.019307904,-0.32956594,-0.11904321
1747679527.63066,0.3057427,0.9580467,0.06815299,-0.0041278964,-0.2603238,-0.16698007
1747679527.6312213,0.3057427,0.9580467,0.06815299,-0.0041278964,-0.2603238,-0.16698007
1747679527.6317823,0.3057427,0.9580467,0.06815299,-0.0041278964,-0.2603238,-0.16698007
1747679527.6323721,0.3057427,0.9580467,0.06815299,-0.0041278964,-0.2603238,-0.16698007
1747679527.6329412,0.3057427,0.9580467,0.06815299,-0.0041278964,-0.2603238,-0.16698007
1747679527.633502,0.3057427,0.9580467,0.06815299,-0.0041278964,-0.2603238,-0.16698007
1747679527.634044,0.3057427,0.9580467,0.06815299,-0.0041278964,-0.2603238,-0.16698007
1747679527.634571,0.3057427,0.9580467,0.06815299,-0.0041278964,-0.2603238,-0.16698007
1747679527.6350935,0.3057427,0.9580467,0.06815299,-0.0041278964,-0.2603238,-0.16698007
1747679527.6356156,0.3057427,0.9580467,0.06815299,-0.0041278964,-0.2603238,-0.16698007
1747679527.6361372,0.3057427,0.9580467,0.06815299,-0.0041278964,-0.2603238,-0.16698007
1747679527.6366591,0.3057427,0.9580467,0.06815299,-0.0041278964,-0.2603238,-0.16698007
1747679527.6372013,0.3057427,0.9580467,0.06815299,-0.0041278964,-0.2603238,-0.16698007
1747679527.637724,0.3057427,0.9580467,0.06815299,-0.0041278964,-0.2603238,-0.16698007
1747679527.6382458,0.3057427,0.9580467,0.06815299,-0.0041278964,-0.2603238,-0.16698007
1747679527.6387677,0.3057427,0.9580467,0.06815299,-0.0041278964,-0.2603238,-0.16698007
1747679527.6392891,0.3057427,0.9580467,0.06815299,-0.0041278964,-0.2603238,-0.16698007
1747679527.6398106,0.3057427,0.9580467,0.06815299,-0.0041278964,-0.2603238,-0.16698007
1747679527.6403325,0.3057427,0.9580467,0.06815299,-0.0041278964,-0.2603238,-0.16698007
1747679527.6408541,0.3057427,0.9580467,0.06815299,-0.0041278964,-0.2603238,-0.16698007
1747679527.6414654,0.3057427,0.9580467,0.06815299,-0.0041278964,-0.2603238,-0.16698007
1747679527.6420438,0.23740669,0.94926065,0.07010544,-0.02223738,-0.13355742,-0.16378428
1747679527.6425984,0.23740669,0.94926065,0.07010544,-0.02223738,-0.13355742,-0.16378428
1747679527.643135,0.23740669,0.94926065,0.07010544,-0.02223738,-0.13355742,-0.16378428
1747679527.6436896,0.23740669,0.94926065,0.07010544,-0.02223738,-0.13355742,-0.16378428
1747679527.644229,0.23740669,0.94926065,0.07010544,-0.02223738,-0.13355742,-0.16378428
1747679527.6447496,0.23740669,0.94926065,0.07010544,-0.02223738,-0.13355742,-0.16378428
1747679527.6452687,0.23740669,0.94926065,0.07010544,-0.02223738,-0.13355742,-0.16378428
1747679527.6457875,0.23740669,0.94926065,0.07010544,-0.02223738,-0.13355742,-0.16378428
1747679527.6463058,0.23740669,0.94926065,0.07010544,-0.02223738,-0.13355742,-0.16378428
1747679527.6468298,0.23740669,0.94926065,0.07010544,-0.02223738,-0.13355742,-0.16378428
1747679527.6473482,0.23740669,0.94926065,0.07010544,-0.02223738,-0.13355742,-0.16378428
1747679527.6478667,0.23740669,0.94926065,0.07010544,-0.02223738,-0.13355742,-0.16378428
1747679527.6483846,0.23740669,0.94926065,0.07010544,-0.02223738,-0.13355742,-0.16378428
1747679527.648903,0.23740669,0.94926065,0.07010544,-0.02223738,-0.13355742,-0.16378428
1747679527.6494207,0.23740669,0.94926065,0.07010544,-0.02223738,-0.13355742,-0.16378428
1747679527.6499386,0.23740669,0.94926065,0.07010544,-0.02223738,-0.13355742,-0.16378428
1747679527.6504657,0.23740669,0.94926065,0.07010544,-0.02223738,-0.13355742,-0.16378428
1747679527.6509843,0.23740669,0.94926065,0.07010544,-0.02223738,-0.13355742,-0.16378428
1747679527.6515057,0.23740669,0.94926065,0.07010544,-0.02223738,-0.13355742,-0.16378428
1747679527.6520262,0.23740669,0.94926065,0.07010544,-0.02223738,-0.13355742,-0.16378428
1747679527.6525526,0.23740669,0.94926065,0.07010544,-0.02223738,-0.13355742,-0.16378428
1747679527.6530793,0.23740669,0.94926065,0.07010544,-0.02223738,-0.13355742,-0.16378428
1747679527.6536074,0.1773686,0.9087472,0.10476157,-0.01691106,-0.00785632,-0.114782155
1747679527.654141,0.1773686,0.9087472,0.10476157,-0.01691106,-0.00785632,-0.114782155
1747679527.6546838,0.1773686,0.9087472,0.10476157,-0.01691106,-0.00785632,-0.114782155
1747679527.6552126,0.1773686,0.9087472,0.10476157,-0.01691106,-0.00785632,-0.114782155
1747679527.6557405,0.1773686,0.9087472,0.10476157,-0.01691106,-0.00785632,-0.114782155
1747679527.6562915,0.1773686,0.9087472,0.10476157,-0.01691106,-0.00785632,-0.114782155
1747679527.6568484,0.1773686,0.9087472,0.10476157,-0.01691106,-0.00785632,-0.114782155
1747679527.6574092,0.1773686,0.9087472,0.10476157,-0.01691106,-0.00785632,-0.114782155
1747679527.6579766,0.1773686,0.9087472,0.10476157,-0.01691106,-0.00785632,-0.114782155
1747679527.6585317,0.1773686,0.9087472,0.10476157,-0.01691106,-0.00785632,-0.114782155
1747679527.6590893,0.1773686,0.9087472,0.10476157,-0.01691106,-0.00785632,-0.114782155
1747679527.6596403,0.1773686,0.9087472,0.10476157,-0.01691106,-0.00785632,-0.114782155
1747679527.6601846,0.1773686,0.9087472,0.10476157,0.025699485,0.02410159,-0.021038957
1747679527.6607308,0.1773686,0.9087472,0.10476157,0.025699485,0.02410159,-0.021038957
1747679527.6612809,0.11928298,0.8838534,0.13160788,0.025699485,0.02410159,-0.021038957
1747679527.6618302,0.11928298,0.8838534,0.13160788,0.025699485,0.02410159,-0.021038957
1747679527.6623769,0.11928298,0.8838534,0.13160788,0.025699485,0.02410159,-0.021038957
1747679527.6629171,0.11928298,0.8838534,0.13160788,0.025699485,0.02410159,-0.021038957
1747679527.6634452,0.11928298,0.8838534,0.13160788,0.025699485,0.02410159,-0.021038957
1747679527.663967,0.11928298,0.8838534,0.13160788,0.025699485,0.02410159,-0.021038957
1747679527.6644914,0.11928298,0.8838534,0.13160788,0.025699485,0.02410159,-0.021038957
1747679527.665019,0.11928298,0.8838534,0.13160788,0.025699485,0.02410159,-0.021038957
1747679527.665542,0.11928298,0.8838534,0.13160788,0.025699485,0.02410159,-0.021038957
1747679527.666063,0.11928298,0.8838534,0.13160788,0.025699485,0.02410159,-0.021038957
1747679527.666584,0.11928298,0.8838534,0.13160788,0.025699485,0.02410159,-0.021038957
1747679527.667105,0.11928298,0.8838534,0.13160788,0.025699485,0.02410159,-0.021038957
1747679527.6676288,0.11928298,0.8838534,0.13160788,0.025699485,0.02410159,-0.021038957
1747679527.6681373,0.11928298,0.8838534,0.13160788,0.025699485,0.02410159,-0.021038957
1747679527.6686585,0.11928298,0.8838534,0.13160788,0.025699485,0.02410159,-0.021038957
1747679527.6691763,0.11928298,0.8838534,0.13160788,0.025699485,0.02410159,-0.021038957
1747679527.6697052,0.11928298,0.8838534,0.13160788,0.025699485,0.02410159,-0.021038957
1747679527.670226,0.0997584,0.8843415,0.14381073,0.025699485,0.02410159,-0.021038957
1747679527.6707456,0.0997584,0.8843415,0.14381073,0.1013332,-0.024900537,0.10785794
1747679527.6712644,0.0997584,0.8843415,0.14381073,0.1013332,-0.024900537,0.10785794
1747679527.6718178,0.0997584,0.8843415,0.14381073,0.1013332,-0.024900537,0.10785794
1747679527.6723702,0.0997584,0.8843415,0.14381073,0.1013332,-0.024900537,0.10785794
1747679527.6729195,0.0997584,0.8843415,0.14381073,0.1013332,-0.024900537,0.10785794
1747679527.673475,0.0997584,0.8843415,0.14381073,0.1013332,-0.024900537,0.10785794
1747679527.674036,0.0997584,0.8843415,0.14381073,0.1013332,-0.024900537,0.10785794
1747679527.674592,0.0997584,0.8843415,0.14381073,0.1013332,-0.024900537,0.10785794
1747679527.6751587,0.0997584,0.8843415,0.14381073,0.1013332,-0.024900537,0.10785794
1747679527.6757052,0.0997584,0.8843415,0.14381073,0.1013332,-0.024900537,0.10785794
1747679527.6762497,0.0997584,0.8843415,0.14381073,0.1013332,-0.024900537,0.10785794
1747679527.676799,0.0997584,0.8843415,0.14381073,0.1013332,-0.024900537,0.10785794
1747679527.6773329,0.0997584,0.8843415,0.14381073,0.1013332,-0.024900537,0.10785794
1747679527.6778562,0.0997584,0.8843415,0.14381073,0.1013332,-0.024900537,0.10785794
1747679527.6783757,0.0997584,0.8843415,0.14381073,0.1013332,-0.024900537,0.10785794
1747679527.6788943,0.0997584,0.8843415,0.14381073,0.1013332,-0.024900537,0.10785794
1747679527.6794128,0.0997584,0.8843415,0.14381073,0.1013332,-0.024900537,0.10785794
1747679527.679931,0.0997584,0.8843415,0.14381073,0.1013332,-0.024900537,0.10785794
1747679527.6804495,0.0997584,0.8843415,0.14381073,0.1013332,-0.024900537,0.10785794
1747679527.6809676,0.0997584,0.8843415,0.14381073,0.1013332,-0.024900537,0.10785794
1747679527.681486,0.0997584,0.8843415,0.14381073,0.1013332,-0.024900537,0.10785794
1747679527.6820047,0.14515305,0.89654434,0.16284719,0.17803219,-0.06964161,0.20692746
1747679527.6825235,0.14515305,0.89654434,0.16284719,0.17803219,-0.06964161,0.20692746
1747679527.6830416,0.14515305,0.89654434,0.16284719,0.17803219,-0.06964161,0.20692746
1747679527.6835594,0.14515305,0.89654434,0.16284719,0.17803219,-0.06964161,0.20692746
1747679527.6840804,0.14515305,0.89654434,0.16284719,0.17803219,-0.06964161,0.20692746
1747679527.684604,0.14515305,0.89654434,0.16284719,0.17803219,-0.06964161,0.20692746
1747679527.6851244,0.14515305,0.89654434,0.16284719,0.17803219,-0.06964161,0.20692746
1747679527.6856427,0.14515305,0.89654434,0.16284719,0.17803219,-0.06964161,0.20692746
1747679527.6861615,0.14515305,0.89654434,0.16284719,0.17803219,-0.06964161,0.20692746
1747679527.6867104,0.14515305,0.89654434,0.16284719,0.17803219,-0.06964161,0.20692746
1747679527.6872525,0.14515305,0.89654434,0.16284719,0.17803219,-0.06964161,0.20692746
1747679527.6877778,0.14515305,0.89654434,0.16284719,0.17803219,-0.06964161,0.20692746
1747679527.6883028,0.14515305,0.89654434,0.16284719,0.17803219,-0.06964161,0.20692746
1747679527.6888435,0.14515305,0.89654434,0.16284719,0.17803219,-0.06964161,0.20692746
1747679527.6893964,0.14515305,0.89654434,0.16284719,0.17803219,-0.06964161,0.20692746
1747679527.689954,0.14515305,0.89654434,0.16284719,0.17803219,-0.06964161,0.20692746
1747679527.6904814,0.14515305,0.89654434,0.16284719,0.17803219,-0.06964161,0.20692746
1747679527.6910112,0.14515305,0.89654434,0.16284719,0.17803219,-0.06964161,0.20692746
1747679527.6915748,0.14515305,0.89654434,0.16284719,0.17803219,-0.06964161,0.20692746
1747679527.6920967,0.14515305,0.89654434,0.16284719,0.17803219,-0.06964161,0.20692746
1747679527.6926165,0.24521652,0.89800864,0.14966811,0.28668907,-0.08562057,0.28362644
1747679527.693136,0.24521652,0.89800864,0.14966811,0.28668907,-0.08562057,0.28362644
1747679527.6936548,0.24521652,0.89800864,0.14966811,0.28668907,-0.08562057,0.28362644
1747679527.6941762,0.24521652,0.89800864,0.14966811,0.28668907,-0.08562057,0.28362644
1747679527.6947076,0.24521652,0.89800864,0.14966811,0.28668907,-0.08562057,0.28362644
1747679527.6952338,0.24521652,0.89800864,0.14966811,0.28668907,-0.08562057,0.28362644
1747679527.6957526,0.24521652,0.89800864,0.14966811,0.28668907,-0.08562057,0.28362644
1747679527.6962712,0.24521652,0.89800864,0.14966811,0.28668907,-0.08562057,0.28362644
1747679527.6967921,0.24521652,0.89800864,0.14966811,0.28668907,-0.08562057,0.28362644
1747679527.6973107,0.24521652,0.89800864,0.14966811,0.28668907,-0.08562057,0.28362644
1747679527.6978295,0.24521652,0.89800864,0.14966811,0.28668907,-0.08562057,0.28362644
1747679527.6983478,0.24521652,0.89800864,0.14966811,0.28668907,-0.08562057,0.28362644
1747679527.698866,0.24521652,0.89800864,0.14966811,0.28668907,-0.08562057,0.28362644
1747679527.699384,0.24521652,0.89800864,0.14966811,0.28668907,-0.08562057,0.28362644
1747679527.6999023,0.24521652,0.89800864,0.14966811,0.28668907,-0.08562057,0.28362644
1747679527.7004201,0.24521652,0.89800864,0.14966811,0.28668907,-0.08562057,0.28362644
1747679527.7009385,0.24521652,0.89800864,0.14966811,0.28668907,-0.08562057,0.28362644
1747679527.7014563,0.24521652,0.89800864,0.14966811,0.28668907,-0.08562057,0.28362644
1747679527.7020085,0.24521652,0.89800864,0.14966811,0.28668907,-0.08562057,0.28362644
1747679527.7025564,0.3194099,0.90533036,0.09841609,0.38469332,-0.11331742,0.27830014
1747679527.7030823,0.3194099,0.90533036,0.09841609,0.38469332,-0.11331742,0.27830014
1747679527.7036042,0.3194099,0.90533036,0.09841609,0.38469332,-0.11331742,0.27830014
1747679527.7041388,0.3194099,0.90533036,0.09841609,0.38469332,-0.11331742,0.27830014
1747679527.704692,0.3194099,0.90533036,0.09841609,0.38469332,-0.11331742,0.27830014
1747679527.7052348,0.3194099,0.90533036,0.09841609,0.38469332,-0.11331742,0.27830014
1747679527.7057676,0.3194099,0.90533036,0.09841609,0.38469332,-0.11331742,0.27830014
1747679527.7062876,0.3194099,0.90533036,0.09841609,0.38469332,-0.11331742,0.27830014
1747679527.7068062,0.3194099,0.90533036,0.09841609,0.38469332,-0.11331742,0.27830014
1747679527.7073247,0.3194099,0.90533036,0.09841609,0.38469332,-0.11331742,0.27830014
1747679527.707843,0.3194099,0.90533036,0.09841609,0.38469332,-0.11331742,0.27830014
1747679527.7083616,0.3194099,0.90533036,0.09841609,0.38469332,-0.11331742,0.27830014
1747679527.708882,0.3194099,0.90533036,0.09841609,0.38469332,-0.11331742,0.27830014
1747679527.709403,0.3194099,0.90533036,0.09841609,0.38469332,-0.11331742,0.27830014
1747679527.7099223,0.3194099,0.90533036,0.09841609,0.38469332,-0.11331742,0.27830014
1747679527.710441,0.3194099,0.90533036,0.09841609,0.38469332,-0.11331742,0.27830014
1747679527.71096,0.3194099,0.90533036,0.09841609,0.4006723,-0.09733847,0.27830014
1747679527.7114792,0.3116001,0.9028898,0.02080588,0.4006723,-0.09733847,0.27830014
1747679527.7119977,0.3116001,0.9028898,0.02080588,0.4006723,-0.09733847,0.27830014
1747679527.712516,0.3116001,0.9028898,0.02080588,0.4006723,-0.09733847,0.27830014
1747679527.713034,0.3116001,0.9028898,0.02080588,0.4006723,-0.09733847,0.27830014
1747679527.7135518,0.3116001,0.9028898,0.02080588,0.4006723,-0.09733847,0.27830014
1747679527.7141101,0.3116001,0.9028898,0.02080588,0.4006723,-0.09733847,0.27830014
1747679527.7146418,0.3116001,0.9028898,0.02080588,0.4006723,-0.09733847,0.27830014
1747679527.7151675,0.3116001,0.9028898,0.02080588,0.4006723,-0.09733847,0.27830014
1747679527.7156863,0.3116001,0.9028898,0.02080588,0.4006723,-0.09733847,0.27830014
1747679527.716205,0.3116001,0.9028898,0.02080588,0.4006723,-0.09733847,0.27830014
1747679527.716723,0.3116001,0.9028898,0.02080588,0.4006723,-0.09733847,0.27830014
1747679527.7172709,0.3116001,0.9028898,0.02080588,0.4006723,-0.09733847,0.27830014
1747679527.7178319,0.3116001,0.9028898,0.02080588,0.4006723,-0.09733847,0.27830014
1747679527.718379,0.3116001,0.9028898,0.02080588,0.4006723,-0.09733847,0.27830014
1747679527.718933,0.3116001,0.9028898,0.02080588,0.4006723,-0.09733847,0.27830014
1747679527.719482,0.3116001,0.9028898,0.02080588,0.4006723,-0.09733847,0.27830014
1747679527.720018,0.3116001,0.9028898,0.02080588,0.4006723,-0.09733847,0.27830014
1747679527.720574,0.3116001,0.9028898,0.02080588,0.3474091,-0.06431529,0.28682223
1747679527.7211237,0.3116001,0.9028898,0.02080588,0.3474091,-0.06431529,0.28682223
1747679527.721667,0.29646853,0.90435416,-0.03972032,0.3474091,-0.06431529,0.28682223
1747679527.722198,0.29646853,0.90435416,-0.03972032,0.3474091,-0.06431529,0.28682223
1747679527.7227187,0.29646853,0.90435416,-0.03972032,0.3474091,-0.06431529,0.28682223
1747679527.7232373,0.29646853,0.90435416,-0.03972032,0.3474091,-0.06431529,0.28682223
1747679527.7237563,0.29646853,0.90435416,-0.03972032,0.3474091,-0.06431529,0.28682223
1747679527.7242773,0.29646853,0.90435416,-0.03972032,0.3474091,-0.06431529,0.28682223
1747679527.7248092,0.29646853,0.90435416,-0.03972032,0.3474091,-0.06431529,0.28682223
1747679527.7253354,0.29646853,0.90435416,-0.03972032,0.3474091,-0.06431529,0.28682223
1747679527.7258544,0.29646853,0.90435416,-0.03972032,0.3474091,-0.06431529,0.28682223
1747679527.7263732,0.29646853,0.90435416,-0.03972032,0.3474091,-0.06431529,0.28682223
1747679527.7268913,0.29646853,0.90435416,-0.03972032,0.3474091,-0.06431529,0.28682223
1747679527.7274094,0.29646853,0.90435416,-0.03972032,0.3474091,-0.06431529,0.28682223
1747679527.7279296,0.29646853,0.90435416,-0.03972032,0.3474091,-0.06431529,0.28682223
1747679527.7284503,0.29646853,0.90435416,-0.03972032,0.3474091,-0.06431529,0.28682223
1747679527.7289689,0.29646853,0.90435416,-0.03972032,0.3474091,-0.06431529,0.28682223
1747679527.7294877,0.29061118,0.9028898,-0.058268666,0.3474091,-0.06431529,0.28682223
1747679527.7300067,0.29061118,0.9028898,-0.058268666,0.3474091,-0.06431529,0.28682223
1747679527.7305253,0.29061118,0.9028898,-0.058268666,0.3474091,-0.06431529,0.28682223
1747679527.7310495,0.29061118,0.9028898,-0.058268666,0.2515354,-0.01957422,0.30493173
1747679527.7315707,0.29061118,0.9028898,-0.058268666,0.2515354,-0.01957422,0.30493173
1747679527.732089,0.29061118,0.9028898,-0.058268666,0.2515354,-0.01957422,0.30493173
1747679527.732632,0.29061118,0.9028898,-0.058268666,0.2515354,-0.01957422,0.30493173
1747679527.7331645,0.29061118,0.9028898,-0.058268666,0.2515354,-0.01957422,0.30493173
1747679527.733687,0.29061118,0.9028898,-0.058268666,0.2515354,-0.01957422,0.30493173
1747679527.734211,0.29061118,0.9028898,-0.058268666,0.2515354,-0.01957422,0.30493173
1747679527.734734,0.29061118,0.9028898,-0.058268666,0.2515354,-0.01957422,0.30493173
1747679527.7352738,0.29061118,0.9028898,-0.058268666,0.2515354,-0.01957422,0.30493173
1747679527.735807,0.29061118,0.9028898,-0.058268666,0.2515354,-0.01957422,0.30493173
1747679527.7363272,0.29061118,0.9028898,-0.058268666,0.2515354,-0.01957422,0.30493173
1747679527.7368455,0.29061118,0.9028898,-0.058268666,0.2515354,-0.01957422,0.30493173
1747679527.737364,0.29061118,0.9028898,-0.058268666,0.2515354,-0.01957422,0.30493173
1747679527.7378821,0.29061118,0.9028898,-0.058268666,0.2515354,-0.01957422,0.30493173
1747679527.7384005,0.29061118,0.9028898,-0.058268666,0.2515354,-0.01957422,0.30493173
1747679527.7389183,0.29061118,0.9028898,-0.058268666,0.2515354,-0.01957422,0.30493173
1747679527.739469,0.29061118,0.9028898,-0.058268666,0.2515354,-0.01957422,0.30493173
1747679527.7399886,0.29061118,0.9028898,-0.058268666,0.2515354,-0.01957422,0.30493173
1747679527.740507,0.29061118,0.9028898,-0.058268666,0.2515354,-0.01957422,0.30493173
1747679527.7410257,0.31013575,0.87750787,-0.042160887,0.2515354,-0.01957422,0.30493173
1747679527.7415442,0.31013575,0.87750787,-0.042160887,0.2515354,-0.01957422,0.30493173
1747679527.7420626,0.31013575,0.87750787,-0.042160887,0.2515354,-0.01957422,0.30493173
1747679527.7425807,0.31013575,0.87750787,-0.042160887,0.2515354,-0.01957422,0.30493173
1747679527.7430995,0.31013575,0.87750787,-0.042160887,0.15033533,0.0070573715,0.31558436
1747679527.7436178,0.31013575,0.87750787,-0.042160887,0.15033533,0.0070573715,0.31558436
1747679527.7441387,0.31013575,0.87750787,-0.042160887,0.15033533,0.0070573715,0.31558436
1747679527.7446702,0.31013575,0.87750787,-0.042160887,0.15033533,0.0070573715,0.31558436
1747679527.745196,0.31013575,0.87750787,-0.042160887,0.15033533,0.0070573715,0.31558436
1747679527.745715,0.31013575,0.87750787,-0.042160887,0.15033533,0.0070573715,0.31558436
1747679527.746233,0.31013575,0.87750787,-0.042160887,0.15033533,0.0070573715,0.31558436
1747679527.7467513,0.31013575,0.87750787,-0.042160887,0.15033533,0.0070573715,0.31558436
1747679527.7472696,0.31013575,0.87750787,-0.042160887,0.15033533,0.0070573715,0.31558436
1747679527.7478092,0.31013575,0.87750787,-0.042160887,0.15033533,0.0070573715,0.31558436
1747679527.7483628,0.31013575,0.87750787,-0.042160887,0.15033533,0.0070573715,0.31558436
1747679527.7488992,0.31013575,0.87750787,-0.042160887,0.15033533,0.0070573715,0.31558436
1747679527.7494364,0.32575542,0.8516377,-0.0060404167,0.086419515,-0.009986847,0.31345382
1747679527.7499766,0.32575542,0.8516377,-0.0060404167,0.086419515,-0.009986847,0.31345382
1747679527.7505274,0.32575542,0.8516377,-0.0060404167,0.086419515,-0.009986847,0.31345382
1747679527.7510974,0.32575542,0.8516377,-0.0060404167,0.086419515,-0.009986847,0.31345382
1747679527.7516544,0.32575542,0.8516377,-0.0060404167,0.086419515,-0.009986847,0.31345382
1747679527.7521875,0.32575542,0.8516377,-0.0060404167,0.086419515,-0.009986847,0.31345382
1747679527.75271,0.32575542,0.8516377,-0.0060404167,0.086419515,-0.009986847,0.31345382
1747679527.7532313,0.32575542,0.8516377,-0.0060404167,0.086419515,-0.009986847,0.31345382
1747679527.7537522,0.32575542,0.8516377,-0.0060404167,0.086419515,-0.009986847,0.31345382
1747679527.7542765,0.32575542,0.8516377,-0.0060404167,0.086419515,-0.009986847,0.31345382
1747679527.7548127,0.32575542,0.8516377,-0.0060404167,0.086419515,-0.009986847,0.31345382
1747679527.7553391,0.32575542,0.8516377,-0.0060404167,0.086419515,-0.009986847,0.31345382
1747679527.7558606,0.32575542,0.8516377,-0.0060404167,0.086419515,-0.009986847,0.31345382
1747679527.7563815,0.32575542,0.8516377,-0.0060404167,0.086419515,-0.009986847,0.31345382
1747679527.7569022,0.32575542,0.8516377,-0.0060404167,0.086419515,-0.009986847,0.31345382
1747679527.7574232,0.32575542,0.8516377,-0.0060404167,0.086419515,-0.009986847,0.31345382
1747679527.7579439,0.32575542,0.8516377,-0.0060404167,0.086419515,-0.009986847,0.31345382
1747679527.7584648,0.32575542,0.8516377,-0.0060404167,0.086419515,-0.009986847,0.31345382
1747679527.7589858,0.32575542,0.8516377,-0.0060404167,0.086419515,-0.009986847,0.31345382
1747679527.7595067,0.3189218,0.8365062,0.040818576,0.086419515,-0.009986847,0.31345382
1747679527.7600281,0.3189218,0.8365062,0.040818576,0.05978792,-0.05792371,0.31451908
1747679527.7605515,0.3189218,0.8365062,0.040818576,0.05978792,-0.05792371,0.31451908
1747679527.761075,0.3189218,0.8365062,0.040818576,0.05978792,-0.05792371,0.31451908
1747679527.761596,0.3189218,0.8365062,0.040818576,0.05978792,-0.05792371,0.31451908
1747679527.762117,0.3189218,0.8365062,0.040818576,0.05978792,-0.05792371,0.31451908
1747679527.7626376,0.3189218,0.8365062,0.040818576,0.05978792,-0.05792371,0.31451908
1747679527.7631812,0.3189218,0.8365062,0.040818576,0.05978792,-0.05792371,0.31451908
1747679527.7637205,0.3189218,0.8365062,0.040818576,0.05978792,-0.05792371,0.31451908
1747679527.7642486,0.3189218,0.8365062,0.040818576,0.05978792,-0.05792371,0.31451908
1747679527.7647712,0.3189218,0.8365062,0.040818576,0.05978792,-0.05792371,0.31451908
1747679527.7652926,0.3189218,0.8365062,0.040818576,0.05978792,-0.05792371,0.31451908
1747679527.7658136,0.3189218,0.8365062,0.040818576,0.05978792,-0.05792371,0.31451908
1747679527.7663374,0.3189218,0.8365062,0.040818576,0.05978792,-0.05792371,0.31451908
1747679527.7668824,0.3189218,0.8365062,0.040818576,0.05978792,-0.05792371,0.31451908
1747679527.7674198,0.3189218,0.8365062,0.040818576,0.05978792,-0.05792371,0.31451908
1747679527.7684274,0.3189218,0.8365062,0.040818576,0.05978792,-0.05792371,0.31451908
1747679527.768949,0.3189218,0.8365062,0.040818576,0.05978792,-0.05792371,0.31451908
1747679527.7695105,0.3189218,0.8365062,0.040818576,0.05978792,-0.05792371,0.31451908
1747679527.7700317,0.3189218,0.8365062,0.040818576,0.05339634,-0.058988973,0.33262858
1747679527.7705514,0.3189218,0.8365062,0.040818576,0.05339634,-0.058988973,0.33262858
1747679527.7710705,0.3189218,0.8365062,0.040818576,0.05339634,-0.058988973,0.33262858
1747679527.7715893,0.33063656,0.8321132,0.08230831,0.05339634,-0.058988973,0.33262858
1747679527.7721078,0.33063656,0.8321132,0.08230831,0.05339634,-0.058988973,0.33262858
1747679527.772626,0.33063656,0.8321132,0.08230831,0.05339634,-0.058988973,0.33262858
1747679527.7731438,0.33063656,0.8321132,0.08230831,0.05339634,-0.058988973,0.33262858
1747679527.7736619,0.33063656,0.8321132,0.08230831,0.05339634,-0.058988973,0.33262858
1747679527.7741828,0.33063656,0.8321132,0.08230831,0.05339634,-0.058988973,0.33262858
1747679527.774714,0.33063656,0.8321132,0.08230831,0.05339634,-0.058988973,0.33262858
1747679527.7752404,0.33063656,0.8321132,0.08230831,0.05339634,-0.058988973,0.33262858
1747679527.7757595,0.33063656,0.8321132,0.08230831,0.05339634,-0.058988973,0.33262858
1747679527.7762775,0.33063656,0.8321132,0.08230831,0.05339634,-0.058988973,0.33262858
1747679527.7767954,0.33063656,0.8321132,0.08230831,0.05339634,-0.058988973,0.33262858
1747679527.7773135,0.33063656,0.8321132,0.08230831,0.05339634,-0.058988973,0.33262858
1747679527.7778313,0.33063656,0.8321132,0.08230831,0.05339634,-0.058988973,0.33262858
1747679527.7783968,0.33063656,0.8321132,0.08230831,0.05339634,-0.058988973,0.33262858
1747679527.7789595,0.33063656,0.8321132,0.08230831,0.05339634,-0.058988973,0.33262858
1747679527.7794988,0.33063656,0.8321132,0.08230831,0.05339634,-0.058988973,0.33262858
1747679527.7800338,0.33063656,0.8321132,0.08230831,0.05339634,-0.058988973,0.33262858
1747679527.7805655,0.35699475,0.82186276,0.12428615,0.05339634,-0.058988973,0.33262858
1747679527.7810857,0.35699475,0.82186276,0.12428615,0.05339634,-0.058988973,0.33262858
1747679527.781604,0.35699475,0.82186276,0.12428615,0.05339634,-0.058988973,0.33262858
1747679527.7821252,0.35699475,0.82186276,0.12428615,0.05339634,-0.058988973,0.33262858
1747679527.7826827,0.35699475,0.82186276,0.12428615,0.05339634,-0.058988973,0.33262858
1747679527.783233,0.35699475,0.82186276,0.12428615,0.05339634,-0.058988973,0.33262858
1747679527.7837672,0.35699475,0.82186276,0.12428615,0.05339634,-0.056858446,0.33902016
1747679527.7842872,0.35699475,0.82186276,0.12428615,0.05339634,-0.056858446,0.33902016
1747679527.7848058,0.35699475,0.82186276,0.12428615,0.05339634,-0.056858446,0.33902016
1747679527.7853246,0.35699475,0.82186276,0.12428615,0.05339634,-0.056858446,0.33902016
1747679527.7858431,0.35699475,0.82186276,0.12428615,0.05339634,-0.056858446,0.33902016
1747679527.7863615,0.35699475,0.82186276,0.12428615,0.05339634,-0.056858446,0.33902016
1747679527.7868795,0.35699475,0.82186276,0.12428615,0.05339634,-0.056858446,0.33902016
1747679527.7873976,0.35699475,0.82186276,0.12428615,0.05339634,-0.056858446,0.33902016
1747679527.7879157,0.35699475,0.82186276,0.12428615,0.05339634,-0.056858446,0.33902016
1747679527.788434,0.35699475,0.82186276,0.12428615,0.05339634,-0.056858446,0.33902016
1747679527.7889524,0.35699475,0.82186276,0.12428615,0.05339634,-0.056858446,0.33902016
1747679527.7894702,0.35699475,0.82186276,0.12428615,0.05339634,-0.056858446,0.33902016
1747679527.7899883,0.35699475,0.82186276,0.12428615,0.05339634,-0.056858446,0.33902016
1747679527.7905066,0.35699475,0.82186276,0.12428615,0.05339634,-0.056858446,0.33902016
1747679527.7910244,0.35699475,0.82186276,0.12428615,0.05339634,-0.056858446,0.33902016
1747679527.7915425,0.35699475,0.82186276,0.12428615,0.05339634,-0.056858446,0.33902016
1747679527.7920606,0.35699475,0.82186276,0.12428615,0.05339634,-0.056858446,0.33902016
1747679527.7925787,0.35699475,0.82186276,0.12428615,0.05339634,-0.056858446,0.33902016
1747679527.793097,0.35699475,0.82186276,0.12428615,0.05339634,-0.056858446,0.33902016
1747679527.793646,0.35699475,0.82186276,0.12428615,0.05339634,-0.056858446,0.33902016
1747679527.7941873,0.3526017,0.81112427,0.16040663,0.06191845,-0.032357384,0.34008542
1747679527.7947133,0.3526017,0.81112427,0.16040663,0.06191845,-0.032357384,0.34008542
1747679527.795233,0.3526017,0.81112427,0.16040663,0.06191845,-0.032357384,0.34008542
1747679527.7957523,0.3526017,0.81112427,0.16040663,0.06191845,-0.032357384,0.34008542
1747679527.7962704,0.3526017,0.81112427,0.16040663,0.06191845,-0.032357384,0.34008542
1747679527.7967885,0.3526017,0.81112427,0.16040663,0.06191845,-0.032357384,0.34008542
1747679527.7973065,0.3526017,0.81112427,0.16040663,0.06191845,-0.032357384,0.34008542
1747679527.7978275,0.3526017,0.81112427,0.16040663,0.06191845,-0.032357384,0.34008542
1747679527.7983706,0.3526017,0.81112427,0.16040663,0.06191845,-0.032357384,0.34008542
1747679527.7989044,0.3526017,0.81112427,0.16040663,0.06191845,-0.032357384,0.34008542
1747679527.7994237,0.3526017,0.81112427,0.16040663,0.06191845,-0.032357384,0.34008542
1747679527.7999423,0.3526017,0.81112427,0.16040663,0.06191845,-0.032357384,0.34008542
1747679527.8004608,0.3526017,0.81112427,0.16040663,0.06191845,-0.032357384,0.34008542
1747679527.800979,0.3526017,0.81112427,0.16040663,0.06191845,-0.032357384,0.34008542
1747679527.8014975,0.3526017,0.81112427,0.16040663,0.06191845,-0.032357384,0.34008542
1747679527.8020158,0.3526017,0.81112427,0.16040663,0.06191845,-0.032357384,0.34008542
1747679527.8025339,0.3526017,0.81112427,0.16040663,0.06191845,-0.032357384,0.34008542
1747679527.8030975,0.3526017,0.81112427,0.16040663,0.06191845,-0.032357384,0.34008542
1747679527.803618,0.3526017,0.81112427,0.16040663,0.06191845,-0.032357384,0.34008542
1747679527.8041413,0.3462562,0.8145411,0.213123,0.10026794,0.02410159,0.36032543
1747679527.804673,0.3462562,0.8145411,0.213123,0.10026794,0.02410159,0.36032543
1747679527.8051991,0.3462562,0.8145411,0.213123,0.10026794,0.02410159,0.36032543
1747679527.805718,0.3462562,0.8145411,0.213123,0.10026794,0.02410159,0.36032543
1747679527.8062365,0.3462562,0.8145411,0.213123,0.10026794,0.02410159,0.36032543
1747679527.8067548,0.3462562,0.8145411,0.213123,0.10026794,0.02410159,0.36032543
1747679527.807273,0.3462562,0.8145411,0.213123,0.10026794,0.02410159,0.36032543
1747679527.807791,0.3462562,0.8145411,0.213123,0.10026794,0.02410159,0.36032543
1747679527.8083093,0.3462562,0.8145411,0.213123,0.10026794,0.02410159,0.36032543
1747679527.8088624,0.3462562,0.8145411,0.213123,0.10026794,0.02410159,0.36032543
1747679527.809424,0.3462562,0.8145411,0.213123,0.10026794,0.02410159,0.36032543
1747679527.8099604,0.3462562,0.8145411,0.213123,0.10026794,0.02410159,0.36032543
1747679527.8104925,0.3462562,0.8145411,0.213123,0.10026794,0.02410159,0.36032543
1747679527.811025,0.3462562,0.8145411,0.213123,0.10026794,0.02410159,0.36032543
1747679527.8115447,0.3462562,0.8145411,0.213123,0.10026794,0.02410159,0.36032543
1747679527.8120632,0.3462562,0.8145411,0.213123,0.10026794,0.02410159,0.36032543
1747679527.8125813,0.3462562,0.8145411,0.213123,0.10026794,0.02410159,0.36032543
1747679527.8131,0.3462562,0.8145411,0.213123,0.10026794,0.02410159,0.36032543
1747679527.8136332,0.32087424,0.818446,0.25510085,0.10026794,0.02410159,0.36032543
1747679527.814201,0.32087424,0.818446,0.25510085,0.10026794,0.02410159,0.36032543
1747679527.8147433,0.32087424,0.818446,0.25510085,0.1865543,0.04753739,0.38376123
1747679527.8152764,0.32087424,0.818446,0.25510085,0.1865543,0.04753739,0.38376123
1747679527.8157961,0.32087424,0.818446,0.25510085,0.1865543,0.04753739,0.38376123
1747679527.816315,0.32087424,0.818446,0.25510085,0.1865543,0.04753739,0.38376123
1747679527.8168333,0.32087424,0.818446,0.25510085,0.1865543,0.04753739,0.38376123
1747679527.8173523,0.32087424,0.818446,0.25510085,0.1865543,0.04753739,0.38376123
1747679527.8178744,0.32087424,0.818446,0.25510085,0.1865543,0.04753739,0.38376123
1747679527.8183932,0.32087424,0.818446,0.25510085,0.1865543,0.04753739,0.38376123
1747679527.818912,0.2881706,0.8174698,0.28878075,0.3271691,0.036884755,0.42743704
1747679527.8194308,0.2881706,0.8174698,0.28878075,0.3271691,0.036884755,0.42743704
1747679527.8199496,0.2881706,0.8174698,0.28878075,0.3271691,0.036884755,0.42743704
1747679527.8204677,0.2881706,0.8174698,0.28878075,0.3271691,0.036884755,0.42743704
1747679527.8209858,0.2881706,0.8174698,0.28878075,0.3271691,0.036884755,0.42743704
1747679527.821504,0.2881706,0.8174698,0.28878075,0.3271691,0.036884755,0.42743704
1747679527.822022,0.2881706,0.8174698,0.28878075,0.3271691,0.036884755,0.42743704
1747679527.8225403,0.2881706,0.8174698,0.28878075,0.3271691,0.036884755,0.42743704
1747679527.8230584,0.2881706,0.8174698,0.28878075,0.3271691,0.036884755,0.42743704
1747679527.8235767,0.2881706,0.8174698,0.28878075,0.3271691,0.036884755,0.42743704
1747679527.8241267,0.2881706,0.8174698,0.28878075,0.3271691,0.036884755,0.42743704
1747679527.824672,0.2881706,0.8174698,0.28878075,0.3271691,0.036884755,0.42743704
1747679527.8251996,0.2881706,0.8174698,0.28878075,0.3271691,0.036884755,0.42743704
1747679527.8257205,0.2881706,0.8174698,0.28878075,0.3271691,0.036884755,0.42743704
1747679527.8262393,0.2881706,0.8174698,0.28878075,0.3271691,0.036884755,0.42743704
1747679527.8267577,0.2881706,0.8174698,0.28878075,0.3271691,0.036884755,0.42743704
1747679527.8272755,0.2881706,0.8174698,0.28878075,0.3271691,0.036884755,0.42743704
1747679527.8277936,0.2881706,0.8174698,0.28878075,0.3271691,0.036884755,0.42743704
1747679527.828312,0.2881706,0.8174698,0.28878075,0.3271691,0.036884755,0.42743704
1747679527.82883,0.2881706,0.8174698,0.28878075,0.3271691,0.036884755,0.42743704
1747679527.8293512,0.2881706,0.8174698,0.28878075,0.3271691,0.036884755,0.42743704
1747679527.8298934,0.2881706,0.8174698,0.28878075,0.3271691,0.036884755,0.42743704
1747679527.830427,0.27645585,0.8067312,0.27804223,0.3271691,0.036884755,0.42743704
1747679527.830947,0.27645585,0.8067312,0.27804223,0.3271691,0.036884755,0.42743704
1747679527.8314664,0.27645585,0.8067312,0.27804223,0.48908916,0.029427908,0.4956139
1747679527.8319855,0.27645585,0.8067312,0.27804223,0.48908916,0.029427908,0.4956139
1747679527.832504,0.27645585,0.8067312,0.27804223,0.48908916,0.029427908,0.4956139
1747679527.8330228,0.27645585,0.8067312,0.27804223,0.48908916,0.029427908,0.4956139
1747679527.8335412,0.27645585,0.8067312,0.27804223,0.48908916,0.029427908,0.4956139
1747679527.8340595,0.27645585,0.8067312,0.27804223,0.48908916,0.029427908,0.4956139
1747679527.8345804,0.27645585,0.8067312,0.27804223,0.48908916,0.029427908,0.4956139
1747679527.835112,0.27645585,0.8067312,0.27804223,0.48908916,0.029427908,0.4956139
1747679527.8356383,0.27645585,0.8067312,0.27804223,0.48908916,0.029427908,0.4956139
1747679527.836157,0.27645585,0.8067312,0.27804223,0.48908916,0.029427908,0.4956139
1747679527.8366756,0.27645585,0.8067312,0.27804223,0.48908916,0.029427908,0.4956139
1747679527.837396,0.27645585,0.8067312,0.27804223,0.48908916,0.029427908,0.4956139
1747679527.8379169,0.27645585,0.8067312,0.27804223,0.48908916,0.029427908,0.4956139
1747679527.838436,0.27645585,0.8067312,0.27804223,0.48908916,0.029427908,0.4956139
1747679527.8389542,0.27645585,0.8067312,0.27804223,0.48908916,0.029427908,0.4956139
1747679527.8394983,0.27645585,0.8067312,0.27804223,0.48908916,0.029427908,0.4956139
1747679527.8400924,0.27645585,0.8067312,0.27804223,0.48908916,0.029427908,0.4956139
1747679527.8406188,0.27645585,0.8067312,0.27804223,0.48908916,0.029427908,0.4956139
1747679527.841184,0.27645585,0.8067312,0.27804223,0.48908916,0.029427908,0.4956139
1747679527.8417032,0.2749915,0.78720665,0.22093281,0.62437767,0.049667917,0.5787045
1747679527.8422217,0.2749915,0.78720665,0.22093281,0.62437767,0.049667917,0.5787045
1747679527.84274,0.2749915,0.78720665,0.22093281,0.62437767,0.049667917,0.5787045
1747679527.8432581,0.2749915,0.78720665,0.22093281,0.62437767,0.049667917,0.5787045
1747679527.843779,0.2749915,0.78720665,0.22093281,0.62437767,0.049667917,0.5787045
1747679527.8443136,0.2749915,0.78720665,0.22093281,0.62437767,0.049667917,0.5787045
1747679527.8448606,0.2749915,0.78720665,0.22093281,0.62437767,0.049667917,0.5787045
1747679527.8453937,0.2749915,0.78720665,0.22093281,0.62437767,0.049667917,0.5787045
1747679527.8459136,0.2749915,0.78720665,0.22093281,0.62437767,0.049667917,0.5787045
1747679527.8464322,0.2749915,0.78720665,0.22093281,0.62437767,0.049667917,0.5787045
1747679527.846951,0.2749915,0.78720665,0.22093281,0.62437767,0.049667917,0.5787045
1747679527.8474693,0.2749915,0.78720665,0.22093281,0.62437767,0.049667917,0.5787045
1747679527.8479877,0.2749915,0.78720665,0.22093281,0.62437767,0.049667917,0.5787045
1747679527.8485062,0.2749915,0.78720665,0.22093281,0.62437767,0.049667917,0.5787045
1747679527.8490252,0.2749915,0.78720665,0.22093281,0.6914893,0.069907926,0.6436856
1747679527.849544,0.2749915,0.78720665,0.22093281,0.6914893,0.069907926,0.6436856
1747679527.8500621,0.2749915,0.78720665,0.22093281,0.6914893,0.069907926,0.6436856
1747679527.8505812,0.2749915,0.78720665,0.22093281,0.6914893,0.069907926,0.6436856
1747679527.8511002,0.2749915,0.78720665,0.22093281,0.6914893,0.069907926,0.6436856
1747679527.8516188,0.2749915,0.78720665,0.22093281,0.6914893,0.069907926,0.6436856
1747679527.8521378,0.2749915,0.78720665,0.22093281,0.6914893,0.069907926,0.6436856
1747679527.8526595,0.2749915,0.78720665,0.22093281,0.6914893,0.069907926,0.6436856
1747679527.853181,0.2749915,0.78720665,0.22093281,0.6914893,0.069907926,0.6436856
1747679527.8537018,0.2749915,0.78720665,0.22093281,0.6914893,0.069907926,0.6436856
1747679527.8542657,0.2749915,0.78720665,0.22093281,0.6914893,0.069907926,0.6436856
1747679527.8548129,0.2749915,0.78720665,0.22093281,0.6914893,0.069907926,0.6436856
1747679527.8553395,0.2749915,0.78720665,0.22093281,0.6914893,0.069907926,0.6436856
1747679527.855861,0.2749915,0.78720665,0.22093281,0.6914893,0.069907926,0.6436856
1747679527.856382,0.2749915,0.78720665,0.22093281,0.6914893,0.069907926,0.6436856
1747679527.8569028,0.2749915,0.78720665,0.22093281,0.6914893,0.069907926,0.6436856
1747679527.8574238,0.2749915,0.78720665,0.22093281,0.6914893,0.069907926,0.6436856
1747679527.8579447,0.2749915,0.78720665,0.22093281,0.6914893,0.069907926,0.6436856
1747679527.8584654,0.2749915,0.78720665,0.22093281,0.6914893,0.069907926,0.6436856
1747679527.8589864,0.2749915,0.78720665,0.22093281,0.6914893,0.069907926,0.6436856
1747679527.8595352,0.2749915,0.78720665,0.22093281,0.6914893,0.069907926,0.6436856
1747679527.8600655,0.32038614,0.7896472,0.04814029,0.6755103,0.06245108,0.6905572
1747679527.8606107,0.32038614,0.7896472,0.04814029,0.6755103,0.06245108,0.6905572
1747679527.8611484,0.32038614,0.7896472,0.04814029,0.6755103,0.06245108,0.6905572
1747679527.8616707,0.32038614,0.7896472,0.04814029,0.6755103,0.06245108,0.6905572
1747679527.8621922,0.32038614,0.7896472,0.04814029,0.6755103,0.06245108,0.6905572
1747679527.8627133,0.32038614,0.7896472,0.04814029,0.6755103,0.06245108,0.6905572
1747679527.8632343,0.32038614,0.7896472,0.04814029,0.6755103,0.06245108,0.6905572
1747679527.863758,0.32038614,0.7896472,0.04814029,0.6755103,0.06245108,0.6905572
1747679527.8642943,0.32038614,0.7896472,0.04814029,0.6755103,0.06245108,0.6905572
1747679527.864821,0.32038614,0.7896472,0.04814029,0.6755103,0.06245108,0.6905572
1747679527.8653424,0.32038614,0.7896472,0.04814029,0.6755103,0.06245108,0.6905572
1747679527.865863,0.32038614,0.7896472,0.04814029,0.6755103,0.06245108,0.6905572
1747679527.866384,0.32038614,0.7896472,0.04814029,0.6755103,0.06245108,0.6905572
1747679527.866905,0.32038614,0.7896472,0.04814029,0.6755103,0.06245108,0.6905572
1747679527.8674257,0.32038614,0.7896472,0.04814029,0.6755103,0.06245108,0.6905572
1747679527.8679492,0.32038614,0.7896472,0.04814029,0.6755103,0.06245108,0.6905572
1747679527.8684573,0.32038614,0.7896472,0.04814029,0.6755103,0.06245108,0.6905572
1747679527.8689787,0.32038614,0.7896472,0.04814029,0.6755103,0.06245108,0.6905572
1747679527.8695247,0.32038614,0.7896472,0.04814029,0.6755103,0.06245108,0.6905572
1747679527.870084,0.32038614,0.7896472,0.04814029,0.6755103,0.06245108,0.6905572
1747679527.8706338,0.32038614,0.7896472,0.04814029,0.6755103,0.06245108,0.6905572
1747679527.8711774,0.32038614,0.7896472,0.04814029,0.6755103,0.06245108,0.6905572
1747679527.8717117,0.36529267,0.79452837,0.016900964,0.6083987,0.040080544,0.71186244
1747679527.8722322,0.36529267,0.79452837,0.016900964,0.6083987,0.040080544,0.71186244
1747679527.872751,0.36529267,0.79452837,0.016900964,0.6083987,0.040080544,0.71186244
1747679527.8732696,0.36529267,0.79452837,0.016900964,0.6083987,0.040080544,0.71186244
1747679527.8737907,0.36529267,0.79452837,0.016900964,0.6083987,0.040080544,0.71186244
1747679527.8743224,0.36529267,0.79452837,0.016900964,0.6083987,0.040080544,0.71186244
1747679527.8748486,0.36529267,0.79452837,0.016900964,0.6083987,0.040080544,0.71186244
1747679527.8753674,0.36529267,0.79452837,0.016900964,0.6083987,0.040080544,0.71186244
1747679527.8758888,0.36529267,0.79452837,0.016900964,0.6083987,0.040080544,0.71186244
1747679527.8764238,0.36529267,0.79452837,0.016900964,0.6083987,0.040080544,0.71186244
1747679527.876983,0.36529267,0.79452837,0.016900964,0.6083987,0.040080544,0.71186244
1747679527.877528,0.36529267,0.79452837,0.016900964,0.6083987,0.040080544,0.71186244
1747679527.878052,0.36529267,0.79452837,0.016900964,0.6083987,0.040080544,0.71186244
1747679527.8785703,0.36529267,0.79452837,0.016900964,0.6083987,0.040080544,0.71186244
1747679527.8790889,0.36529267,0.79452837,0.016900964,0.6083987,0.040080544,0.71186244
1747679527.8796115,0.36529267,0.79452837,0.016900964,0.6083987,0.040080544,0.71186244
1747679527.8801298,0.36529267,0.79452837,0.016900964,0.6083987,0.040080544,0.71186244
1747679527.8806486,0.36529267,0.79452837,0.016900964,0.6083987,0.040080544,0.71186244
1747679527.88117,0.36529267,0.79452837,0.016900964,0.5114597,0.026232118,0.6990793
1747679527.8816886,0.36529267,0.79452837,0.016900964,0.5114597,0.026232118,0.6990793
1747679527.8822074,0.36529267,0.79452837,0.016900964,0.5114597,0.026232118,0.6990793
1747679527.8827257,0.36529267,0.79452837,0.016900964,0.5114597,0.026232118,0.6990793
1747679527.883281,0.45266518,0.8247915,0.016900964,0.5114597,0.026232118,0.6990793
1747679527.8837998,0.45266518,0.8247915,0.016900964,0.5114597,0.026232118,0.6990793
1747679527.8843212,0.45266518,0.8247915,0.016900964,0.5114597,0.026232118,0.6990793
1747679527.884873,0.45266518,0.8247915,0.016900964,0.5114597,0.026232118,0.6990793
1747679527.8854117,0.45266518,0.8247915,0.016900964,0.5114597,0.026232118,0.6990793
1747679527.8859365,0.45266518,0.8247915,0.016900964,0.5114597,0.026232118,0.6990793
1747679527.8864553,0.45266518,0.8247915,0.016900964,0.5114597,0.026232118,0.6990793
1747679527.8869736,0.45266518,0.8247915,0.016900964,0.5114597,0.026232118,0.6990793
1747679527.8874922,0.45266518,0.8247915,0.016900964,0.5114597,0.026232118,0.6990793
1747679527.8880103,0.45266518,0.8247915,0.016900964,0.5114597,0.026232118,0.6990793
1747679527.8885286,0.45266518,0.8247915,0.016900964,0.5114597,0.026232118,0.6990793
1747679527.8890467,0.45266518,0.8247915,0.016900964,0.5114597,0.026232118,0.6990793
1747679527.889565,0.45266518,0.8247915,0.016900964,0.5114597,0.026232118,0.6990793
1747679527.8900833,0.45266518,0.8247915,0.016900964,0.5114597,0.026232118,0.6990793
1747679527.8906014,0.45266518,0.8247915,0.016900964,0.5114597,0.026232118,0.6990793
1747679527.891122,0.45266518,0.8247915,0.016900964,0.5114597,0.026232118,0.6990793
1747679527.8916707,0.45266518,0.8247915,0.016900964,0.5114597,0.026232118,0.6990793
1747679527.8922136,0.45266518,0.8247915,0.016900964,0.5114597,0.026232118,0.6990793
1747679527.8927464,0.45266518,0.8247915,0.016900964,0.5114597,0.026232118,0.6990793
1747679527.8932664,0.45266518,0.8247915,0.016900964,0.5114597,0.026232118,0.6990793
1747679527.893788,0.45266518,0.8247915,0.016900964,0.5114597,0.026232118,0.6990793
1747679527.8943198,0.45266518,0.8247915,0.016900964,0.5114597,0.026232118,0.6990793
1747679527.8948705,0.45266518,0.8247915,0.016900964,0.5114597,0.026232118,0.6990793
1747679527.8953931,0.45266518,0.8247915,0.016900964,0.5114597,0.026232118,0.6990793
1747679527.8959122,0.554193,0.8819009,0.047652178,0.5114597,0.026232118,0.6990793
1747679527.8964334,0.554193,0.8819009,0.047652178,0.5114597,0.026232118,0.6990793
1747679527.8969538,0.554193,0.8819009,0.047652178,0.5114597,0.026232118,0.6990793
1747679527.897473,0.554193,0.8819009,0.047652178,0.33995226,0.10506163,0.6511424
1747679527.8979914,0.554193,0.8819009,0.047652178,0.33995226,0.10506163,0.6511424
1747679527.8985097,0.554193,0.8819009,0.047652178,0.33995226,0.10506163,0.6511424
1747679527.8990273,0.554193,0.8819009,0.047652178,0.33995226,0.10506163,0.6511424
1747679527.8995457,0.554193,0.8819009,0.047652178,0.33995226,0.10506163,0.6511424
1747679527.900092,0.554193,0.8819009,0.047652178,0.33995226,0.10506163,0.6511424
1747679527.9006538,0.554193,0.8819009,0.047652178,0.33995226,0.10506163,0.6511424
1747679527.9012024,0.554193,0.8819009,0.047652178,0.33995226,0.10506163,0.6511424
1747679527.9017417,0.554193,0.8819009,0.047652178,0.33995226,0.10506163,0.6511424
1747679527.902268,0.554193,0.8819009,0.047652178,0.33995226,0.10506163,0.6511424
1747679527.9027867,0.554193,0.8819009,0.047652178,0.33995226,0.10506163,0.6511424
1747679527.9033055,0.554193,0.8819009,0.047652178,0.33995226,0.10506163,0.6511424
1747679527.9038277,0.554193,0.8819009,0.047652178,0.33995226,0.10506163,0.6511424
1747679527.9043598,0.554193,0.8819009,0.047652178,0.33995226,0.10506163,0.6511424
1747679527.904886,0.6337556,0.92534304,0.10183288,0.2451438,0.19028272,0.59574866
1747679527.9054086,0.6337556,0.92534304,0.10183288,0.2451438,0.19028272,0.59574866
1747679527.9059272,0.6337556,0.92534304,0.10183288,0.2451438,0.19028272,0.59574866
1747679527.9064453,0.6337556,0.92534304,0.10183288,0.2451438,0.19028272,0.59574866
1747679527.9069674,0.6337556,0.92534304,0.10183288,0.2451438,0.19028272,0.59574866
1747679527.9075177,0.6337556,0.92534304,0.10183288,0.2451438,0.19028272,0.59574866
1747679527.9080644,0.6337556,0.92534304,0.10183288,0.2451438,0.19028272,0.59574866
1747679527.9085975,0.6337556,0.92534304,0.10183288,0.2451438,0.19028272,0.59574866
1747679527.9091177,0.6337556,0.92534304,0.10183288,0.2451438,0.19028272,0.59574866
1747679527.909636,0.6337556,0.92534304,0.10183288,0.2451438,0.19028272,0.59574866
1747679527.9101548,0.6337556,0.92534304,0.10183288,0.2451438,0.19028272,0.59574866
1747679527.9106731,0.6337556,0.92534304,0.10183288,0.2451438,0.19028272,0.59574866
1747679527.9111917,0.6337556,0.92534304,0.10183288,0.2451438,0.19028272,0.59574866
1747679527.91171,0.6337556,0.92534304,0.10183288,0.2451438,0.19028272,0.59574866
1747679527.912228,0.6337556,0.92534304,0.10183288,0.2451438,0.19028272,0.59574866
1747679527.912747,0.69721055,0.9853812,0.21068242,0.2451438,0.19028272,0.59574866
1747679527.913266,0.69721055,0.9853812,0.21068242,0.1950764,0.27337328,0.4689823
1747679527.9137845,0.69721055,0.9853812,0.21068242,0.1950764,0.27337328,0.4689823
1747679527.9143057,0.69721055,0.9853812,0.21068242,0.1950764,0.27337328,0.4689823
1747679527.9148376,0.69721055,0.9853812,0.21068242,0.1950764,0.27337328,0.4689823
1747679527.9154024,0.69721055,0.9853812,0.21068242,0.1950764,0.27337328,0.4689823
1747679527.9159536,0.69721055,0.9853812,0.21068242,0.1950764,0.27337328,0.4689823
1747679527.9164782,0.69721055,0.9853812,0.21068242,0.1950764,0.27337328,0.4689823
1747679527.9169967,0.69721055,0.9853812,0.21068242,0.1950764,0.27337328,0.4689823
1747679527.9175148,0.69721055,0.9853812,0.21068242,0.1950764,0.27337328,0.4689823
1747679527.918033,0.69721055,0.9853812,0.21068242,0.1950764,0.27337328,0.4689823
1747679527.9185524,0.7304023,1.0132036,0.29951924,0.1950764,0.27337328,0.4689823
1747679527.9190733,0.7304023,1.0132036,0.29951924,0.1950764,0.27337328,0.4689823
1747679527.9195945,0.7304023,1.0132036,0.29951924,0.1950764,0.27337328,0.4689823
1747679527.9201155,0.7304023,1.0132036,0.29951924,0.1950764,0.27337328,0.4689823
1747679527.9206362,0.7304023,1.0132036,0.29951924,0.25579643,0.37137753,0.33688962
1747679527.9211547,0.7304023,1.0132036,0.29951924,0.25579643,0.37137753,0.33688962
1747679527.9216733,0.7304023,1.0132036,0.29951924,0.25579643,0.37137753,0.33688962
1747679527.9221916,0.7304023,1.0132036,0.29951924,0.25579643,0.37137753,0.33688962
1747679527.9227123,0.7304023,1.0132036,0.29951924,0.25579643,0.37137753,0.33688962
1747679527.9232614,0.7304023,1.0132036,0.29951924,0.25579643,0.37137753,0.33688962
1747679527.923806,0.7304023,1.0132036,0.29951924,0.25579643,0.37137753,0.33688962
1747679527.9243405,0.7304023,1.0132036,0.29951924,0.25579643,0.37137753,0.33688962
1747679527.9248605,0.7304023,1.0132036,0.29951924,0.25579643,0.37137753,0.33688962
1747679527.9253824,0.7304023,1.0132036,0.29951924,0.25579643,0.37137753,0.33688962
1747679527.9259167,0.7304023,1.0132036,0.29951924,0.25579643,0.37137753,0.33688962
1747679527.9264486,0.7304023,1.0132036,0.29951924,0.25579643,0.37137753,0.33688962
1747679527.926971,0.7304023,1.0132036,0.29951924,0.25579643,0.37137753,0.33688962
1747679527.92749,0.7304023,1.0132036,0.29951924,0.25579643,0.37137753,0.33688962
1747679527.9280088,0.7304023,1.0132036,0.29951924,0.25579643,0.37137753,0.33688962
1747679527.9285274,0.7304023,1.0132036,0.29951924,0.37297544,0.49388286,0.22184116
1747679527.929046,0.7304023,1.0132036,0.29951924,0.37297544,0.49388286,0.22184116
1747679527.929582,0.7304023,1.0132036,0.29951924,0.37297544,0.49388286,0.22184116
1747679527.9301012,0.7499269,0.99856025,0.33954465,0.37297544,0.49388286,0.22184116
1747679527.930639,0.7499269,0.99856025,0.33954465,0.37297544,0.49388286,0.22184116
1747679527.931192,0.7499269,0.99856025,0.33954465,0.37297544,0.49388286,0.22184116
1747679527.9317307,0.7499269,0.99856025,0.33954465,0.37297544,0.49388286,0.22184116
1747679527.9322653,0.7499269,0.99856025,0.33954465,0.37297544,0.49388286,0.22184116
1747679527.9327981,0.7499269,0.99856025,0.33954465,0.37297544,0.49388286,0.22184116
1747679527.933318,0.7499269,0.99856025,0.33954465,0.37297544,0.49388286,0.22184116
1747679527.9338398,0.7499269,0.99856025,0.33954465,0.37297544,0.49388286,0.22184116
1747679527.9343638,0.7499269,0.99856025,0.33954465,0.37297544,0.49388286,0.22184116
1747679527.9348843,0.7499269,0.99856025,0.33954465,0.37297544,0.49388286,0.22184116
1747679527.9354033,0.7499269,0.99856025,0.33954465,0.37297544,0.49388286,0.22184116
1747679527.935922,0.7499269,0.99856025,0.33954465,0.37297544,0.49388286,0.22184116
1747679527.9364402,0.7499269,0.99856025,0.33954465,0.37297544,0.49388286,0.22184116
1747679527.9369588,0.7499269,0.99856025,0.33954465,0.37297544,0.49388286,0.22184116
1747679527.937477,0.7499269,0.99856025,0.33954465,0.37297544,0.49388286,0.22184116
1747679527.9379954,0.7499269,0.99856025,0.33954465,0.37297544,0.49388286,0.22184116
1747679527.9385166,0.7499269,0.99856025,0.33954465,0.5114597,0.5695166,0.09614004
1747679527.9390678,0.7499269,0.99856025,0.33954465,0.5114597,0.5695166,0.09614004
1747679527.939616,0.7499269,0.99856025,0.33954465,0.5114597,0.5695166,0.09614004
1747679527.940149,0.7499269,0.99856025,0.33954465,0.5114597,0.5695166,0.09614004
1747679527.9406695,0.7274736,0.9741545,0.32392496,0.5114597,0.5695166,0.09614004
1747679527.9411886,0.7274736,0.9741545,0.32392496,0.5114597,0.5695166,0.09614004
1747679527.9417074,0.7274736,0.9741545,0.32392496,0.5114597,0.5695166,0.09614004
1747679527.9422262,0.7274736,0.9741545,0.32392496,0.5114597,0.5695166,0.09614004
1747679527.9427445,0.7274736,0.9741545,0.32392496,0.5114597,0.5695166,0.09614004
1747679527.943263,0.7274736,0.9741545,0.32392496,0.5114597,0.5695166,0.09614004
1747679527.9437814,0.7274736,0.9741545,0.32392496,0.5114597,0.5695166,0.09614004
1747679527.9443026,0.7274736,0.9741545,0.32392496,0.5114597,0.5695166,0.09614004
1747679527.9448342,0.7274736,0.9741545,0.32392496,0.5114597,0.5695166,0.09614004
1747679527.9453602,0.7274736,0.9741545,0.32392496,0.5114597,0.5695166,0.09614004
1747679527.9459078,0.7274736,0.9741545,0.32392496,0.5114597,0.5695166,0.09614004
1747679527.9464471,0.7274736,0.9741545,0.32392496,0.5114597,0.5695166,0.09614004
1747679527.9469678,0.7274736,0.9741545,0.32392496,0.5114597,0.5695166,0.09614004
1747679527.9474864,0.7274736,0.9741545,0.32392496,0.5114597,0.5695166,0.09614004
1747679527.948005,0.7274736,0.9741545,0.32392496,0.5114597,0.5695166,0.09614004
1747679527.948523,0.7274736,0.9741545,0.32392496,0.5114597,0.5695166,0.09614004
1747679527.9490411,0.7274736,0.9741545,0.32392496,0.5114597,0.5695166,0.09614004
1747679527.9495592,0.7274736,0.9741545,0.32392496,0.5114597,0.5695166,0.09614004
1747679527.9500782,0.67036426,0.9575586,0.2541246,0.6179861,0.60147446,-0.0018642114
1747679527.950599,0.67036426,0.9575586,0.2541246,0.6179861,0.60147446,-0.0018642114
1747679527.95112,0.67036426,0.9575586,0.2541246,0.6179861,0.60147446,-0.0018642114
1747679527.9516387,0.67036426,0.9575586,0.2541246,0.6179861,0.60147446,-0.0018642114
1747679527.9521568,0.67036426,0.9575586,0.2541246,0.6179861,0.60147446,-0.0018642114
1747679527.952678,0.67036426,0.9575586,0.2541246,0.6179861,0.60147446,-0.0018642114
1747679527.9531987,0.67036426,0.9575586,0.2541246,0.6179861,0.60147446,-0.0018642114
1747679527.9537215,0.67036426,0.9575586,0.2541246,0.6179861,0.60147446,-0.0018642114
1747679527.9542518,0.67036426,0.9575586,0.2541246,0.6179861,0.60147446,-0.0018642114
1747679527.9547968,0.67036426,0.9575586,0.2541246,0.6179861,0.60147446,-0.0018642114
1747679527.9553325,0.67036426,0.9575586,0.2541246,0.6179861,0.60147446,-0.0018642114
1747679527.955855,0.67036426,0.9575586,0.2541246,0.6179861,0.60147446,-0.0018642114
1747679527.9563763,0.67036426,0.9575586,0.2541246,0.6179861,0.60147446,-0.0018642114
1747679527.9568973,0.67036426,0.9575586,0.2541246,0.6179861,0.60147446,-0.0018642114
1747679527.9574182,0.67036426,0.9575586,0.2541246,0.6179861,0.60147446,-0.0018642114
1747679527.9579442,0.67036426,0.9575586,0.2541246,0.6179861,0.60147446,-0.0018642114
1747679527.9584742,0.67036426,0.9575586,0.2541246,0.6179861,0.60147446,-0.0018642114
1747679527.9590194,0.67036426,0.9575586,0.2541246,0.6179861,0.60147446,-0.0018642114
1747679527.9595644,0.67036426,0.9575586,0.2541246,0.6179861,0.60147446,-0.0018642114
1747679527.9600968,0.6244815,0.93949836,0.17895497,0.6179861,0.60147446,-0.0018642114
1747679527.9606242,0.6244815,0.93949836,0.17895497,0.6179861,0.60147446,-0.0018642114
1747679527.961253,0.6244815,0.93949836,0.17895497,0.6179861,0.60147446,-0.0018642114
1747679527.961817,0.6244815,0.93949836,0.17895497,0.65633553,0.6249103,-0.071106344
1747679527.9623501,0.6244815,0.93949836,0.17895497,0.65633553,0.6249103,-0.071106344
1747679527.9628956,0.6244815,0.93949836,0.17895497,0.65633553,0.6249103,-0.071106344
1747679527.9634488,0.6244815,0.93949836,0.17895497,0.65633553,0.6249103,-0.071106344
1747679527.9639935,0.6244815,0.93949836,0.17895497,0.65633553,0.6249103,-0.071106344
1747679527.964533,0.6244815,0.93949836,0.17895497,0.65633553,0.6249103,-0.071106344
1747679527.9650755,0.6244815,0.93949836,0.17895497,0.65633553,0.6249103,-0.071106344
1747679527.965636,0.6244815,0.93949836,0.17895497,0.65633553,0.6249103,-0.071106344
1747679527.9661684,0.6244815,0.93949836,0.17895497,0.65633553,0.6249103,-0.071106344
1747679527.966695,0.6244815,0.93949836,0.17895497,0.65633553,0.6249103,-0.071106344
1747679527.9672215,0.6244815,0.93949836,0.17895497,0.65633553,0.6249103,-0.071106344
1747679527.9677482,0.6244815,0.93949836,0.17895497,0.65633553,0.6249103,-0.071106344
1747679527.9687562,0.6244815,0.93949836,0.17895497,0.65633553,0.6249103,-0.071106344
1747679527.9692755,0.6244815,0.93949836,0.17895497,0.65633553,0.6249103,-0.071106344
1747679527.9697948,0.6244815,0.93949836,0.17895497,0.65633553,0.6249103,-0.071106344
1747679527.9703157,0.6244815,0.93949836,0.17895497,0.65633553,0.6249103,-0.071106344
1747679527.9708662,0.6244815,0.93949836,0.17895497,0.65633553,0.6249103,-0.071106344
1747679527.971412,0.6244815,0.93949836,0.17895497,0.65633553,0.6249103,-0.071106344
1747679527.9719439,0.60642123,0.9180213,0.12038124,0.63716084,0.6589987,-0.12650006
1747679527.9724638,0.60642123,0.9180213,0.12038124,0.63716084,0.6589987,-0.12650006
1747679527.9729826,0.60642123,0.9180213,0.12038124,0.63716084,0.6589987,-0.12650006
1747679527.9735017,0.60642123,0.9180213,0.12038124,0.63716084,0.6589987,-0.12650006
1747679527.9740233,0.60642123,0.9180213,0.12038124,0.63716084,0.6589987,-0.12650006
1747679527.9745553,0.60642123,0.9180213,0.12038124,0.63716084,0.6589987,-0.12650006
1747679527.9750812,0.60642123,0.9180213,0.12038124,0.63716084,0.6589987,-0.12650006
1747679527.9756002,0.60642123,0.9180213,0.12038124,0.63716084,0.6589987,-0.12650006
1747679527.9761183,0.60642123,0.9180213,0.12038124,0.63716084,0.6589987,-0.12650006
1747679527.9766612,0.60642123,0.9180213,0.12038124,0.63716084,0.6589987,-0.12650006
1747679527.977193,0.60642123,0.9180213,0.12038124,0.63716084,0.6589987,-0.12650006
1747679527.9777138,0.60642123,0.9180213,0.12038124,0.63716084,0.6589987,-0.12650006
1747679527.9782324,0.60642123,0.9180213,0.12038124,0.63716084,0.6589987,-0.12650006
1747679527.9787507,0.60642123,0.9180213,0.12038124,0.63716084,0.6589987,-0.12650006
1747679527.9792688,0.60642123,0.9180213,0.12038124,0.63716084,0.6589987,-0.12650006
1747679527.9797873,0.60642123,0.9180213,0.12038124,0.63716084,0.6589987,-0.12650006
1747679527.9803054,0.60642123,0.9180213,0.12038124,0.63716084,0.6589987,-0.12650006
1747679527.9808238,0.60642123,0.9180213,0.12038124,0.63716084,0.6589987,-0.12650006
1747679527.9813423,0.60642123,0.9180213,0.12038124,0.63716084,0.6589987,-0.12650006
1747679527.9818606,0.60642123,0.9180213,0.12038124,0.63716084,0.6589987,-0.12650006
1747679527.9823785,0.60642123,0.9180213,0.12038124,0.63716084,0.6589987,-0.12650006
1747679527.9829416,0.60642123,0.9180213,0.12038124,0.63716084,0.6589987,-0.12650006
1747679527.9834604,0.60642123,0.9180213,0.12038124,0.63716084,0.6589987,-0.12650006
1747679527.9839792,0.60642123,0.9180213,0.12038124,0.5913545,0.7026745,-0.17230639
1747679527.9845004,0.59568274,0.9097234,0.09304683,0.5913545,0.7026745,-0.17230639
1747679527.985025,0.59568274,0.9097234,0.09304683,0.5913545,0.7026745,-0.17230639
1747679527.9855647,0.59568274,0.9097234,0.09304683,0.5913545,0.7026745,-0.17230639
1747679527.9861002,0.59568274,0.9097234,0.09304683,0.5913545,0.7026745,-0.17230639
1747679527.98662,0.59568274,0.9097234,0.09304683,0.5913545,0.7026745,-0.17230639
1747679527.9871387,0.59568274,0.9097234,0.09304683,0.5913545,0.7026745,-0.17230639
1747679527.9876575,0.59568274,0.9097234,0.09304683,0.5913545,0.7026745,-0.17230639
1747679527.9881759,0.59568274,0.9097234,0.09304683,0.5913545,0.7026745,-0.17230639
1747679527.9886944,0.59568274,0.9097234,0.09304683,0.5913545,0.7026745,-0.17230639
1747679527.9892132,0.59568274,0.9097234,0.09304683,0.5913545,0.7026745,-0.17230639
1747679527.9897313,0.59568274,0.9097234,0.09304683,0.5913545,0.7026745,-0.17230639
1747679527.9902499,0.59568274,0.9097234,0.09304683,0.5913545,0.7026745,-0.17230639
1747679527.9907682,0.59568274,0.9097234,0.09304683,0.5913545,0.7026745,-0.17230639
1747679527.9912863,0.59568274,0.9097234,0.09304683,0.5913545,0.7026745,-0.17230639
1747679527.9918432,0.59568274,0.9097234,0.09304683,0.5913545,0.7026745,-0.17230639
1747679527.9924033,0.59568274,0.9097234,0.09304683,0.5913545,0.7026745,-0.17230639
1747679527.9929314,0.59568274,0.9097234,0.09304683,0.5913545,0.7026745,-0.17230639
1747679527.9934723,0.59568274,0.9097234,0.09304683,0.5913545,0.7026745,-0.17230639
1747679527.9940085,0.5654196,0.91460454,0.07010544,0.5913545,0.7026745,-0.17230639
1747679527.9945412,0.5654196,0.91460454,0.07010544,0.52743864,0.761264,-0.20746009
1747679527.9950674,0.5654196,0.91460454,0.07010544,0.52743864,0.761264,-0.20746009
1747679527.9955869,0.5654196,0.91460454,0.07010544,0.52743864,0.761264,-0.20746009
1747679527.9961052,0.5654196,0.91460454,0.07010544,0.52743864,0.761264,-0.20746009
1747679527.9966242,0.5654196,0.91460454,0.07010544,0.52743864,0.761264,-0.20746009
1747679527.9971426,0.5654196,0.91460454,0.07010544,0.52743864,0.761264,-0.20746009
1747679527.9976606,0.5654196,0.91460454,0.07010544,0.52743864,0.761264,-0.20746009
1747679527.998179,0.5654196,0.91460454,0.07010544,0.52743864,0.761264,-0.20746009
1747679527.9986973,0.5654196,0.91460454,0.07010544,0.52743864,0.761264,-0.20746009
1747679527.9992156,0.5654196,0.91460454,0.07010544,0.52743864,0.761264,-0.20746009
1747679527.9997337,0.5654196,0.91460454,0.07010544,0.52743864,0.761264,-0.20746009
1747679528.000252,0.5654196,0.91460454,0.07010544,0.52743864,0.761264,-0.20746009
1747679528.0007732,0.5654196,0.91460454,0.07010544,0.52743864,0.761264,-0.20746009
1747679528.0013282,0.5654196,0.91460454,0.07010544,0.52743864,0.761264,-0.20746009
1747679528.0018759,0.5654196,0.91460454,0.07010544,0.52743864,0.761264,-0.20746009
1747679528.0024092,0.5654196,0.91460454,0.07010544,0.52743864,0.761264,-0.20746009
1747679528.0029292,0.5580979,0.93120044,0.060343158,0.52743864,0.761264,-0.20746009
1747679528.003448,0.5580979,0.93120044,0.060343158,0.52743864,0.761264,-0.20746009
1747679528.0039668,0.5580979,0.93120044,0.060343158,0.52743864,0.761264,-0.20746009
1747679528.004489,0.5580979,0.93120044,0.060343158,0.39001966,0.84435457,-0.23835275
1747679528.0050204,0.5580979,0.93120044,0.060343158,0.39001966,0.84435457,-0.23835275
1747679528.0055463,0.5580979,0.93120044,0.060343158,0.39001966,0.84435457,-0.23835275
1747679528.0060651,0.5580979,0.93120044,0.060343158,0.39001966,0.84435457,-0.23835275
1747679528.0066085,0.5580979,0.93120044,0.060343158,0.39001966,0.84435457,-0.23835275
1747679528.0071592,0.5580979,0.93120044,0.060343158,0.39001966,0.84435457,-0.23835275
1747679528.0076845,0.5580979,0.93120044,0.060343158,0.39001966,0.84435457,-0.23835275
1747679528.0082035,0.5580979,0.93120044,0.060343158,0.39001966,0.84435457,-0.23835275
1747679528.008722,0.5580979,0.93120044,0.060343158,0.39001966,0.84435457,-0.23835275
1747679528.0092404,0.5580979,0.93120044,0.060343158,0.39001966,0.84435457,-0.23835275
1747679528.0097587,0.5580979,0.93120044,0.060343158,0.39001966,0.84435457,-0.23835275
1747679528.0102837,0.5580979,0.93120044,0.060343158,0.39001966,0.84435457,-0.23835275
1747679528.010805,0.55907416,0.93852216,0.08084396,0.33143014,0.8848346,-0.26498434
1747679528.0113237,0.55907416,0.93852216,0.08084396,0.33143014,0.8848346,-0.26498434
1747679528.011842,0.55907416,0.93852216,0.08084396,0.33143014,0.8848346,-0.26498434
1747679528.0123608,0.55907416,0.93852216,0.08084396,0.33143014,0.8848346,-0.26498434
1747679528.012879,0.55907416,0.93852216,0.08084396,0.33143014,0.8848346,-0.26498434
1747679528.013397,0.55907416,0.93852216,0.08084396,0.33143014,0.8848346,-0.26498434
1747679528.0139182,0.55907416,0.93852216,0.08084396,0.33143014,0.8848346,-0.26498434
1747679528.0144494,0.55907416,0.93852216,0.08084396,0.33143014,0.8848346,-0.26498434
1747679528.014975,0.55907416,0.93852216,0.08084396,0.33143014,0.8848346,-0.26498434
1747679528.0154936,0.55907416,0.93852216,0.08084396,0.33143014,0.8848346,-0.26498434
1747679528.0160117,0.55907416,0.93852216,0.08084396,0.33143014,0.8848346,-0.26498434
1747679528.016533,0.55907416,0.93852216,0.08084396,0.33143014,0.8848346,-0.26498434
1747679528.0170684,0.55907416,0.93852216,0.08084396,0.33143014,0.8848346,-0.26498434
1747679528.017605,0.55907416,0.93852216,0.08084396,0.33143014,0.8848346,-0.26498434
1747679528.0181289,0.55907416,0.93852216,0.08084396,0.33143014,0.8848346,-0.26498434
1747679528.0186517,0.55907416,0.93852216,0.08084396,0.33143014,0.8848346,-0.26498434
1747679528.0191736,0.55907416,0.93852216,0.08084396,0.33143014,0.8848346,-0.26498434
1747679528.0196953,0.55907416,0.93852216,0.08084396,0.33143014,0.8848346,-0.26498434
1747679528.0202174,0.55907416,0.93852216,0.08084396,0.33143014,0.8848346,-0.26498434
1747679528.0207667,0.55907416,0.93852216,0.08084396,0.33143014,0.8848346,-0.26498434
1747679528.0213566,0.55907416,0.93852216,0.08084396,0.33143014,0.8848346,-0.26498434
1747679528.02193,0.55907416,0.93852216,0.08084396,0.33143014,0.8848346,-0.26498434
1747679528.0224996,0.55907416,0.93852216,0.08084396,0.33143014,0.8848346,-0.26498434
1747679528.0230503,0.55224055,0.93998647,0.094511166,0.28242803,0.894422,-0.3097254
1747679528.0236042,0.55224055,0.93998647,0.094511166,0.28242803,0.894422,-0.3097254
1747679528.0241501,0.55224055,0.93998647,0.094511166,0.28242803,0.894422,-0.3097254
1747679528.0246904,0.55224055,0.93998647,0.094511166,0.28242803,0.894422,-0.3097254
1747679528.0252163,0.55224055,0.93998647,0.094511166,0.28242803,0.894422,-0.3097254
1747679528.025735,0.55224055,0.93998647,0.094511166,0.28242803,0.894422,-0.3097254
1747679528.0262532,0.55224055,0.93998647,0.094511166,0.28242803,0.894422,-0.3097254
1747679528.026772,0.55224055,0.93998647,0.094511166,0.28242803,0.894422,-0.3097254
1747679528.02729,0.55224055,0.93998647,0.094511166,0.28242803,0.894422,-0.3097254
1747679528.0278084,0.55224055,0.93998647,0.094511166,0.28242803,0.894422,-0.3097254
1747679528.0283275,0.55224055,0.93998647,0.094511166,0.28242803,0.894422,-0.3097254
1747679528.0288465,0.5571217,0.93901026,0.09841609,0.28242803,0.894422,-0.3097254
1747679528.0293655,0.5571217,0.93901026,0.09841609,0.28242803,0.894422,-0.3097254
1747679528.029884,0.5571217,0.93901026,0.09841609,0.28242803,0.894422,-0.3097254
1747679528.0304031,0.5571217,0.93901026,0.09841609,0.23981747,0.8816388,-0.33529174
1747679528.0309222,0.5571217,0.93901026,0.09841609,0.23981747,0.8816388,-0.33529174
1747679528.0314436,0.5571217,0.93901026,0.09841609,0.23981747,0.8816388,-0.33529174
1747679528.0319788,0.5571217,0.93901026,0.09841609,0.23981747,0.8816388,-0.33529174
1747679528.0325391,0.5571217,0.93901026,0.09841609,0.23981747,0.8816388,-0.33529174
1747679528.0330915,0.5571217,0.93901026,0.09841609,0.23981747,0.8816388,-0.33529174
1747679528.0336328,0.5571217,0.93901026,0.09841609,0.23981747,0.8816388,-0.33529174
1747679528.0341663,0.5571217,0.93901026,0.09841609,0.23981747,0.8816388,-0.33529174
1747679528.03469,0.5571217,0.93901026,0.09841609,0.23981747,0.8816388,-0.33529174
1747679528.0352116,0.5571217,0.93901026,0.09841609,0.23981747,0.8816388,-0.33529174
1747679528.0357344,0.5571217,0.93901026,0.09841609,0.23981747,0.8816388,-0.33529174
1747679528.0362573,0.5571217,0.93901026,0.09841609,0.23981747,0.8816388,-0.33529174
1747679528.0368228,0.5571217,0.93901026,0.09841609,0.23981747,0.8816388,-0.33529174
1747679528.0373952,0.5571217,0.93901026,0.09841609,0.23981747,0.8816388,-0.33529174
1747679528.0379436,0.5571217,0.93901026,0.09841609,0.23981747,0.8816388,-0.33529174
1747679528.0384898,0.5571217,0.93901026,0.09841609,0.23981747,0.8816388,-0.33529174
1747679528.0390313,0.5571217,0.93901026,0.09841609,0.19933745,0.8677904,-0.3832286
1747679528.0395753,0.5390615,0.93949836,0.123309925,0.19933745,0.8677904,-0.3832286
1747679528.0401254,0.5390615,0.93949836,0.123309925,0.19933745,0.8677904,-0.3832286
1747679528.0406797,0.5390615,0.93949836,0.123309925,0.19933745,0.8677904,-0.3832286
1747679528.0412443,0.5390615,0.93949836,0.123309925,0.19933745,0.8677904,-0.3832286
1747679528.041778,0.5390615,0.93949836,0.123309925,0.19933745,0.8677904,-0.3832286
1747679528.0423148,0.5390615,0.93949836,0.123309925,0.19933745,0.8677904,-0.3832286
1747679528.0428348,0.5390615,0.93949836,0.123309925,0.19933745,0.8677904,-0.3832286
1747679528.0433536,0.5390615,0.93949836,0.123309925,0.19933745,0.8677904,-0.3832286
1747679528.0438886,0.5390615,0.93949836,0.123309925,0.19933745,0.8677904,-0.3832286
1747679528.044433,0.5390615,0.93949836,0.123309925,0.19933745,0.8677904,-0.3832286
1747679528.0449576,0.5390615,0.93949836,0.123309925,0.19933745,0.8677904,-0.3832286
1747679528.0454762,0.5390615,0.93949836,0.123309925,0.19933745,0.8677904,-0.3832286
1747679528.045995,0.5390615,0.93949836,0.123309925,0.19933745,0.8677904,-0.3832286
1747679528.046513,0.5390615,0.93949836,0.123309925,0.19933745,0.8677904,-0.3832286
1747679528.0470316,0.5390615,0.93949836,0.123309925,0.19933745,0.8677904,-0.3832286
1747679528.0475495,0.5390615,0.93949836,0.123309925,0.19933745,0.8677904,-0.3832286
1747679528.048082,0.5390615,0.93949836,0.123309925,0.19933745,0.8677904,-0.3832286
1747679528.049147,0.5390615,0.93949836,0.123309925,0.19933745,0.8677904,-0.3832286
1747679528.0496945,0.5390615,0.93949836,0.123309925,0.19401114,0.9562073,-0.4151865
1747679528.0502295,0.5390615,0.93949836,0.123309925,0.19401114,0.9562073,-0.4151865
1747679528.050762,0.49903607,0.9189976,0.18822916,0.19401114,0.9562073,-0.4151865
1747679528.051288,0.49903607,0.9189976,0.18822916,0.19401114,0.9562073,-0.4151865
1747679528.0518076,0.49903607,0.9189976,0.18822916,0.19401114,0.9562073,-0.4151865
1747679528.052342,0.49903607,0.9189976,0.18822916,0.19401114,0.9562073,-0.4151865
1747679528.053044,0.49903607,0.9189976,0.18822916,0.19401114,0.9562073,-0.4151865
1747679528.0535781,0.49903607,0.9189976,0.18822916,0.19401114,0.9562073,-0.4151865
1747679528.0541172,0.49903607,0.9189976,0.18822916,0.19401114,0.9562073,-0.4151865
1747679528.0546665,0.49903607,0.9189976,0.18822916,0.19401114,0.9562073,-0.4151865
1747679528.055193,0.49903607,0.9189976,0.18822916,0.19401114,0.9562073,-0.4151865
1747679528.0557144,0.49903607,0.9189976,0.18822916,0.19401114,0.9562073,-0.4151865
1747679528.056235,0.49903607,0.9189976,0.18822916,0.19401114,0.9562073,-0.4151865
1747679528.0567558,0.49903607,0.9189976,0.18822916,0.19401114,0.9562073,-0.4151865
1747679528.0572765,0.49903607,0.9189976,0.18822916,0.19401114,0.9562073,-0.4151865
1747679528.0577967,0.49903607,0.9189976,0.18822916,0.19401114,0.9562073,-0.4151865
1747679528.058322,0.49903607,0.9189976,0.18822916,0.19401114,0.9562073,-0.4151865
1747679528.058844,0.49903607,0.9189976,0.18822916,0.19401114,0.9562073,-0.4151865
1747679528.0593693,0.48536882,0.89654434,0.21995659,0.22916484,1.0456895,-0.4322307
1747679528.0598943,0.48536882,0.89654434,0.21995659,0.22916484,1.0456895,-0.4322307
1747679528.0604162,0.48536882,0.89654434,0.21995659,0.22916484,1.0456895,-0.4322307
1747679528.060939,0.48536882,0.89654434,0.21995659,0.22916484,1.0456895,-0.4322307
1747679528.0614605,0.48536882,0.89654434,0.21995659,0.22916484,1.0456895,-0.4322307
1747679528.0619817,0.48536882,0.89654434,0.21995659,0.22916484,1.0456895,-0.4322307
1747679528.0625021,0.48536882,0.89654434,0.21995659,0.22916484,1.0456895,-0.4322307
1747679528.063023,0.48536882,0.89654434,0.21995659,0.22916484,1.0456895,-0.4322307
1747679528.0635567,0.48536882,0.89654434,0.21995659,0.22916484,1.0456895,-0.4322307
1747679528.0644193,0.48536882,0.89654434,0.21995659,0.22916484,1.0456895,-0.4322307
1747679528.064977,0.48536882,0.89654434,0.21995659,0.22916484,1.0456895,-0.4322307
1747679528.0655262,0.48536882,0.89654434,0.21995659,0.22916484,1.0456895,-0.4322307
1747679528.066053,0.48536882,0.89654434,0.21995659,0.22916484,1.0456895,-0.4322307
1747679528.0665743,0.48536882,0.89654434,0.21995659,0.22916484,1.0456895,-0.4322307
1747679528.0670955,0.48536882,0.89654434,0.21995659,0.22916484,1.0456895,-0.4322307
1747679528.067643,0.48536882,0.89654434,0.21995659,0.22916484,1.0456895,-0.4322307
1747679528.068184,0.48536882,0.89654434,0.21995659,0.22916484,1.0456895,-0.4322307
1747679528.0686884,0.48536882,0.89654434,0.21995659,0.22916484,1.0456895,-0.4322307
1747679528.0692148,0.48536882,0.89654434,0.21995659,0.22916484,1.0456895,-0.4322307
1747679528.0697367,0.48536882,0.89654434,0.21995659,0.22916484,1.0456895,-0.4322307
1747679528.0702584,0.48536882,0.89654434,0.21995659,0.22916484,1.0456895,-0.4322307
1747679528.0707858,0.48536882,0.89654434,0.21995659,0.22916484,1.0456895,-0.4322307
1747679528.0713072,0.48536882,0.89654434,0.21995659,0.22916484,1.0456895,-0.4322307
1747679528.0718298,0.44680783,0.8404111,0.213123,0.25792697,1.1500852,-0.44501388
1747679528.07235,0.44680783,0.8404111,0.213123,0.25792697,1.1500852,-0.44501388
1747679528.072868,0.44680783,0.8404111,0.213123,0.25792697,1.1500852,-0.44501388
1747679528.0733862,0.44680783,0.8404111,0.213123,0.25792697,1.1500852,-0.44501388
1747679528.0739038,0.44680783,0.8404111,0.213123,0.25792697,1.1500852,-0.44501388
1747679528.074437,0.44680783,0.8404111,0.213123,0.25792697,1.1500852,-0.44501388
1747679528.0749753,0.44680783,0.8404111,0.213123,0.25792697,1.1500852,-0.44501388
1747679528.0754974,0.44680783,0.8404111,0.213123,0.25792697,1.1500852,-0.44501388
1747679528.0760162,0.44680783,0.8404111,0.213123,0.25792697,1.1500852,-0.44501388
1747679528.0765345,0.44680783,0.8404111,0.213123,0.25792697,1.1500852,-0.44501388
1747679528.0770526,0.44680783,0.8404111,0.213123,0.25792697,1.1500852,-0.44501388
1747679528.077571,0.44680783,0.8404111,0.213123,0.25792697,1.1500852,-0.44501388
1747679528.0780885,0.44680783,0.8404111,0.213123,0.25792697,1.1500852,-0.44501388
1747679528.0786197,0.44680783,0.8404111,0.213123,0.25792697,1.1500852,-0.44501388
1747679528.0799077,0.44680783,0.8404111,0.213123,0.25792697,1.1500852,-0.44501388
1747679528.0804598,0.44680783,0.8404111,0.213123,0.25792697,1.1500852,-0.44501388
1747679528.0809867,0.44680783,0.8404111,0.213123,0.25792697,1.1500852,-0.44501388
1747679528.0815063,0.44680783,0.8404111,0.213123,0.25792697,1.1500852,-0.44501388
1747679528.0820243,0.44680783,0.8404111,0.213123,0.25792697,1.1500852,-0.44501388
1747679528.0825427,0.44680783,0.8404111,0.213123,0.25792697,1.1500852,-0.44501388
1747679528.0831199,0.38969842,0.81405294,0.15894228,0.25899222,1.2608727,-0.43116546
1747679528.0849886,0.38969842,0.81405294,0.15894228,0.25899222,1.2608727,-0.43116546
1747679528.0875103,0.38969842,0.81405294,0.15894228,0.25899222,1.2608727,-0.43116546
1747679528.0880785,0.38969842,0.81405294,0.15894228,0.25899222,1.2608727,-0.43116546
1747679528.0886264,0.38969842,0.81405294,0.15894228,0.25899222,1.2608727,-0.43116546
1747679528.0891635,0.38969842,0.81405294,0.15894228,0.25899222,1.2608727,-0.43116546
1747679528.089685,0.38969842,0.81405294,0.15894228,0.25899222,1.2608727,-0.43116546
1747679528.0902038,0.38969842,0.81405294,0.15894228,0.25899222,1.2608727,-0.43116546
1747679528.090722,0.38969842,0.81405294,0.15894228,0.25899222,1.2608727,-0.43116546
1747679528.0912428,0.38969842,0.81405294,0.15894228,0.25899222,1.2608727,-0.43116546
1747679528.091769,0.34820867,0.81112427,0.13746524,0.24301326,1.302418,-0.4066644
1747679528.0922897,0.34820867,0.81112427,0.13746524,0.24301326,1.302418,-0.4066644
1747679528.0928082,0.34820867,0.81112427,0.13746524,0.24301326,1.302418,-0.4066644
1747679528.0933266,0.34820867,0.81112427,0.13746524,0.24301326,1.302418,-0.4066644
1747679528.093845,0.34820867,0.81112427,0.13746524,0.24301326,1.302418,-0.4066644
1747679528.0944219,0.34820867,0.81112427,0.13746524,0.24301326,1.302418,-0.4066644
1747679528.0955744,0.34820867,0.81112427,0.13746524,0.24301326,1.302418,-0.4066644
1747679528.0961285,0.34820867,0.81112427,0.13746524,0.24301326,1.302418,-0.4066644
1747679528.0966618,0.34820867,0.81112427,0.13746524,0.24301326,1.302418,-0.4066644
1747679528.097181,0.34820867,0.81112427,0.13746524,0.24301326,1.302418,-0.4066644
1747679528.0976996,0.34820867,0.81112427,0.13746524,0.24301326,1.302418,-0.4066644
1747679528.098266,0.34820867,0.81112427,0.13746524,0.24301326,1.302418,-0.4066644
1747679528.0988111,0.34820867,0.81112427,0.13746524,0.24301326,1.302418,-0.4066644
1747679528.0993364,0.34820867,0.81112427,0.13746524,0.24301326,1.302418,-0.4066644
1747679528.0998552,0.34820867,0.81112427,0.13746524,0.24301326,1.302418,-0.4066644
1747679528.100373,0.34820867,0.81112427,0.13746524,0.24301326,1.302418,-0.4066644
1747679528.1008909,0.34820867,0.81112427,0.13746524,0.24301326,1.302418,-0.4066644
1747679528.101409,0.34820867,0.81112427,0.13746524,0.24301326,1.302418,-0.4066644
1747679528.1019328,0.28426567,0.822839,0.12184558,0.22064273,1.3620727,-0.34594437
1747679528.1024535,0.28426567,0.822839,0.12184558,0.22064273,1.3620727,-0.34594437
1747679528.1029725,0.28426567,0.822839,0.12184558,0.22064273,1.3620727,-0.34594437
1747679528.1034904,0.28426567,0.822839,0.12184558,0.22064273,1.3620727,-0.34594437
1747679528.1040256,0.28426567,0.822839,0.12184558,0.22064273,1.3620727,-0.34594437
1747679528.1045716,0.28426567,0.822839,0.12184558,0.22064273,1.3620727,-0.34594437
1747679528.1050956,0.28426567,0.822839,0.12184558,0.22064273,1.3620727,-0.34594437
1747679528.1056144,0.28426567,0.822839,0.12184558,0.22064273,1.3620727,-0.34594437
1747679528.106133,0.28426567,0.822839,0.12184558,0.22064273,1.3620727,-0.34594437
1747679528.106651,0.28426567,0.822839,0.12184558,0.22064273,1.3620727,-0.34594437
1747679528.1071694,0.28426567,0.822839,0.12184558,0.22064273,1.3620727,-0.34594437
1747679528.1076875,0.28426567,0.822839,0.12184558,0.22064273,1.3620727,-0.34594437
1747679528.1082056,0.28426567,0.822839,0.12184558,0.22064273,1.3620727,-0.34594437
1747679528.1087236,0.28426567,0.822839,0.12184558,0.22064273,1.3620727,-0.34594437
1747679528.109242,0.28426567,0.822839,0.12184558,0.22064273,1.3620727,-0.34594437
1747679528.1097736,0.28426567,0.822839,0.12184558,0.22064273,1.3620727,-0.34594437
1747679528.110594,0.28426567,0.822839,0.12184558,0.22064273,1.3620727,-0.34594437
1747679528.1111395,0.28426567,0.822839,0.12184558,0.22064273,1.3620727,-0.34594437
1747679528.1116722,0.28426567,0.822839,0.12184558,0.22064273,1.3620727,-0.34594437
1747679528.1121914,0.28426567,0.822839,0.12184558,0.22064273,1.3620727,-0.34594437
1747679528.1127152,0.28426567,0.822839,0.12184558,0.22064273,1.3620727,-0.34594437
1747679528.113238,0.28426567,0.822839,0.12184558,0.22064273,1.3620727,-0.34594437
1747679528.1139593,0.28426567,0.822839,0.12184558,0.2334259,1.4323801,-0.19041587
1747679528.114524,0.28426567,0.822839,0.12184558,0.2334259,1.4323801,-0.19041587
1747679528.1151075,0.28426567,0.822839,0.12184558,0.2334259,1.4323801,-0.19041587
1747679528.1156628,0.28426567,0.822839,0.12184558,0.2334259,1.4323801,-0.19041587
1747679528.1162684,0.28426567,0.822839,0.12184558,0.2334259,1.4323801,-0.19041587
1747679528.116807,0.28426567,0.822839,0.12184558,0.2334259,1.4323801,-0.19041587
1747679528.1173606,0.28426567,0.822839,0.12184558,0.2334259,1.4323801,-0.19041587
1747679528.117915,0.28426567,0.822839,0.12184558,0.2334259,1.4323801,-0.19041587
1747679528.118454,0.28426567,0.822839,0.12184558,0.2334259,1.4323801,-0.19041587
1747679528.1189954,0.28426567,0.822839,0.12184558,0.2334259,1.4323801,-0.19041587
1747679528.1195288,0.28426567,0.822839,0.12184558,0.2334259,1.4323801,-0.19041587
1747679528.1200483,0.28426567,0.822839,0.12184558,0.2334259,1.4323801,-0.19041587
1747679528.1205668,0.28426567,0.822839,0.12184558,0.2334259,1.4323801,-0.19041587
1747679528.121085,0.28426567,0.822839,0.12184558,0.2334259,1.4323801,-0.19041587
1747679528.121609,0.28426567,0.822839,0.12184558,0.2334259,1.4323801,-0.19041587
1747679528.12215,0.28426567,0.822839,0.12184558,0.2334259,1.4323801,-0.19041587
1747679528.1226711,0.28426567,0.822839,0.12184558,0.2334259,1.4323801,-0.19041587
1747679528.1232083,0.28426567,0.822839,0.12184558,0.33036488,1.3684644,-0.04447476
1747679528.123744,0.28426567,0.822839,0.12184558,0.33036488,1.3684644,-0.04447476
1747679528.1242814,0.2681579,0.87897223,0.18188366,0.33036488,1.3684644,-0.04447476
1747679528.1248178,0.2681579,0.87897223,0.18188366,0.33036488,1.3684644,-0.04447476
1747679528.125341,0.2681579,0.87897223,0.18188366,0.33036488,1.3684644,-0.04447476
1747679528.125873,0.2681579,0.87897223,0.18188366,0.33036488,1.3684644,-0.04447476
1747679528.1270666,0.2681579,0.87897223,0.18188366,0.33036488,1.3684644,-0.04447476
1747679528.1276119,0.2681579,0.87897223,0.18188366,0.33036488,1.3684644,-0.04447476
1747679528.1281447,0.2681579,0.87897223,0.18188366,0.33036488,1.3684644,-0.04447476
1747679528.128664,0.2681579,0.87897223,0.18188366,0.33036488,1.3684644,-0.04447476
1747679528.1292048,0.2681579,0.87897223,0.18188366,0.33036488,1.3684644,-0.04447476
1747679528.1297624,0.2681579,0.87897223,0.18188366,0.33036488,1.3684644,-0.04447476
1747679528.1303012,0.2681579,0.87897223,0.18188366,0.33036488,1.3684644,-0.04447476
1747679528.1308222,0.2681579,0.87897223,0.18188366,0.33036488,1.3684644,-0.04447476
1747679528.1313405,0.2681579,0.87897223,0.18188366,0.33036488,1.3684644,-0.04447476
1747679528.1318586,0.2681579,0.87897223,0.18188366,0.33036488,1.3684644,-0.04447476
1747679528.1323771,0.2681579,0.87897223,0.18188366,0.33036488,1.3684644,-0.04447476
1747679528.132895,0.2681579,0.87897223,0.18188366,0.33036488,1.3684644,-0.04447476
1747679528.1334307,0.2681579,0.87897223,0.18188366,0.33036488,1.3684644,-0.04447476
1747679528.1339734,0.2681579,0.87897223,0.18188366,0.33036488,1.3684644,-0.04447476
1747679528.1344986,0.2681579,0.87897223,0.18188366,0.33036488,1.3684644,-0.04447476
1747679528.1350186,0.2681579,0.87897223,0.18188366,0.33036488,1.3684644,-0.04447476
1747679528.1355407,0.3755431,0.8999611,0.17553817,0.5061334,1.2182621,0.04820318
1747679528.1360612,0.3755431,0.8999611,0.17553817,0.5061334,1.2182621,0.04820318
1747679528.1365795,0.3755431,0.8999611,0.17553817,0.5061334,1.2182621,0.04820318
1747679528.137098,0.3755431,0.8999611,0.17553817,0.5061334,1.2182621,0.04820318
1747679528.137616,0.3755431,0.8999611,0.17553817,0.5061334,1.2182621,0.04820318
1747679528.1381342,0.3755431,0.8999611,0.17553817,0.5061334,1.2182621,0.04820318
1747679528.1386523,0.3755431,0.8999611,0.17553817,0.5061334,1.2182621,0.04820318
1747679528.1391706,0.3755431,0.8999611,0.17553817,0.5061334,1.2182621,0.04820318
1747679528.1396885,0.3755431,0.8999611,0.17553817,0.5061334,1.2182621,0.04820318
1747679528.1402063,0.3755431,0.8999611,0.17553817,0.5061334,1.2182621,0.04820318
1747679528.1407244,0.3755431,0.8999611,0.17553817,0.5061334,1.2182621,0.04820318
1747679528.1412575,0.3755431,0.8999611,0.17553817,0.5061334,1.2182621,0.04820318
1747679528.1421103,0.3755431,0.8999611,0.17553817,0.5061334,1.2182621,0.04820318
1747679528.142657,0.3755431,0.8999611,0.17553817,0.5061334,1.2182621,0.04820318
1747679528.1431823,0.3755431,0.8999611,0.17553817,0.5061334,1.2182621,0.04820318
1747679528.143719,0.3755431,0.8999611,0.17553817,0.5061334,1.2182621,0.04820318
1747679528.1443405,0.3755431,0.8999611,0.17553817,0.5061334,1.2182621,0.04820318
1747679528.144896,0.3755431,0.8999611,0.17553817,0.5061334,1.2182621,0.04820318
1747679528.1454449,0.48390448,0.92583114,0.08230831,0.5061334,1.2182621,0.04820318
1747679528.1459959,0.48390448,0.92583114,0.08230831,0.5061334,1.2182621,0.04820318
1747679528.1465442,0.48390448,0.92583114,0.08230831,0.6020071,1.1181273,0.023702117
1747679528.1473408,0.48390448,0.92583114,0.08230831,0.6020071,1.1181273,0.023702117
1747679528.1478732,0.48390448,0.92583114,0.08230831,0.6020071,1.1181273,0.023702117
1747679528.1483932,0.48390448,0.92583114,0.08230831,0.6020071,1.1181273,0.023702117
1747679528.1489146,0.48390448,0.92583114,0.08230831,0.6020071,1.1181273,0.023702117
1747679528.1494381,0.48390448,0.92583114,0.08230831,0.6020071,1.1181273,0.023702117
1747679528.1499665,0.52929914,0.9526774,-0.00067115744,0.6020071,1.1181273,0.023702117
1747679528.1504898,0.52929914,0.9526774,-0.00067115744,0.5817671,1.1096052,-0.048735812
1747679528.1510115,0.52929914,0.9526774,-0.00067115744,0.5817671,1.1096052,-0.048735812
1747679528.1515353,0.52929914,0.9526774,-0.00067115744,0.5817671,1.1096052,-0.048735812
1747679528.1520553,0.52929914,0.9526774,-0.00067115744,0.5817671,1.1096052,-0.048735812
1747679528.1525733,0.52929914,0.9526774,-0.00067115744,0.5817671,1.1096052,-0.048735812
1747679528.1530948,0.52929914,0.9526774,-0.00067115744,0.5817671,1.1096052,-0.048735812
1747679528.1536157,0.52929914,0.9526774,-0.00067115744,0.5817671,1.1096052,-0.048735812
1747679528.1541493,0.52929914,0.9526774,-0.00067115744,0.5817671,1.1096052,-0.048735812
1747679528.1546898,0.52929914,0.9526774,-0.00067115744,0.5817671,1.1096052,-0.048735812
1747679528.155214,0.52929914,0.9526774,-0.00067115744,0.5817671,1.1096052,-0.048735812
1747679528.1557353,0.52929914,0.9526774,-0.00067115744,0.5817671,1.1096052,-0.048735812
1747679528.156266,0.52929914,0.9526774,-0.00067115744,0.5817671,1.1096052,-0.048735812
1747679528.1568043,0.52929914,0.9526774,-0.00067115744,0.5817671,1.1096052,-0.048735812
1747679528.1573493,0.52929914,0.9526774,-0.00067115744,0.5817671,1.1096052,-0.048735812
1747679528.158339,0.52929914,0.9526774,-0.00067115744,0.5817671,1.1096052,-0.048735812
1747679528.1588895,0.52929914,0.9526774,-0.00067115744,0.5817671,1.1096052,-0.048735812
1747679528.1594865,0.52929914,0.9526774,-0.00067115744,0.5817671,1.1096052,-0.048735812
1747679528.1601539,0.5717651,0.9785476,-0.069983415,0.5817671,1.1096052,-0.048735812
1747679528.1606944,0.5717651,0.9785476,-0.069983415,0.5817671,1.1096052,-0.048735812
1747679528.1612227,0.5717651,0.9785476,-0.069983415,0.5817671,1.1096052,-0.048735812
1747679528.161745,0.5717651,0.9785476,-0.069983415,0.5817671,1.1096052,-0.048735812
1747679528.1622689,0.5717651,0.9785476,-0.069983415,0.4645881,1.2374369,-0.16058849
1747679528.162791,0.5717651,0.9785476,-0.069983415,0.4645881,1.2374369,-0.16058849
1747679528.1633232,0.5717651,0.9785476,-0.069983415,0.4645881,1.2374369,-0.16058849
1747679528.1638632,0.5717651,0.9785476,-0.069983415,0.4645881,1.2374369,-0.16058849
1747679528.1643882,0.5717651,0.9785476,-0.069983415,0.4645881,1.2374369,-0.16058849
1747679528.1649091,0.5717651,0.9785476,-0.069983415,0.4645881,1.2374369,-0.16058849
1747679528.16543,0.5717651,0.9785476,-0.069983415,0.4645881,1.2374369,-0.16058849
1747679528.1659508,0.5717651,0.9785476,-0.069983415,0.4645881,1.2374369,-0.16058849
1747679528.1664717,0.5717651,0.9785476,-0.069983415,0.4645881,1.2374369,-0.16058849
1747679528.1669922,0.5717651,0.9785476,-0.069983415,0.4645881,1.2374369,-0.16058849
1747679528.1675131,0.5717651,0.9785476,-0.069983415,0.4645881,1.2374369,-0.16058849
1747679528.1680365,0.5717651,0.9785476,-0.069983415,0.4645881,1.2374369,-0.16058849
1747679528.1685462,0.5717651,0.9785476,-0.069983415,0.4645881,1.2374369,-0.16058849
1747679528.1690679,0.5717651,0.9785476,-0.069983415,0.4645881,1.2374369,-0.16058849
1747679528.1695867,0.5717651,0.9785476,-0.069983415,0.4645881,1.2374369,-0.16058849
1747679528.1701043,0.5717651,0.9785476,-0.069983415,0.4645881,1.2374369,-0.16058849
1747679528.1706228,0.5717651,0.9785476,-0.069983415,0.4645881,1.2374369,-0.16058849
1747679528.1711407,0.5717651,0.9785476,-0.069983415,0.4645881,1.2374369,-0.16058849
1747679528.1716623,0.5717651,0.9785476,-0.069983415,0.4645881,1.2374369,-0.16058849
1747679528.1721823,0.5717651,0.9785476,-0.069983415,0.4645881,1.2374369,-0.16058849
1747679528.1727169,0.53613275,0.9639041,-0.096341595,0.4645881,1.2374369,-0.16058849
1747679528.1736586,0.53613275,0.9639041,-0.096341595,0.28562382,1.4952307,-0.27350643
1747679528.1742141,0.53613275,0.9639041,-0.096341595,0.28562382,1.4952307,-0.27350643
1747679528.17497,0.53613275,0.9639041,-0.096341595,0.28562382,1.4952307,-0.27350643
1747679528.1755183,0.53613275,0.9639041,-0.096341595,0.28562382,1.4952307,-0.27350643
1747679528.1760573,0.53613275,0.9639041,-0.096341595,0.28562382,1.4952307,-0.27350643
1747679528.1765974,0.53613275,0.9639041,-0.096341595,0.28562382,1.4952307,-0.27350643
1747679528.1771297,0.53613275,0.9639041,-0.096341595,0.28562382,1.4952307,-0.27350643
1747679528.1776497,0.53613275,0.9639041,-0.096341595,0.28562382,1.4952307,-0.27350643
1747679528.1781683,0.53613275,0.9639041,-0.096341595,0.28562382,1.4952307,-0.27350643
1747679528.1786907,0.53613275,0.9639041,-0.096341595,0.28562382,1.4952307,-0.27350643
1747679528.179211,0.53613275,0.9639041,-0.096341595,0.28562382,1.4952307,-0.27350643
1747679528.1797295,0.53613275,0.9639041,-0.096341595,0.28562382,1.4952307,-0.27350643
1747679528.18025,0.53613275,0.9639041,-0.096341595,0.28562382,1.4952307,-0.27350643
1747679528.180769,0.53613275,0.9639041,-0.096341595,0.28562382,1.4952307,-0.27350643
1747679528.181291,0.41800904,0.94193894,-0.10219897,0.09920268,1.8073529,-0.34061804
1747679528.1818116,0.41800904,0.94193894,-0.10219897,0.09920268,1.8073529,-0.34061804
1747679528.1823297,0.41800904,0.94193894,-0.10219897,0.09920268,1.8073529,-0.34061804
1747679528.182848,0.41800904,0.94193894,-0.10219897,0.09920268,1.8073529,-0.34061804
1747679528.1833837,0.41800904,0.94193894,-0.10219897,0.09920268,1.8073529,-0.34061804
1747679528.1839297,0.41800904,0.94193894,-0.10219897,0.09920268,1.8073529,-0.34061804
1747679528.1844537,0.41800904,0.94193894,-0.10219897,0.09920268,1.8073529,-0.34061804
1747679528.1849725,0.41800904,0.94193894,-0.10219897,0.09920268,1.8073529,-0.34061804
1747679528.1854908,0.41800904,0.94193894,-0.10219897,0.09920268,1.8073529,-0.34061804
1747679528.1860094,0.41800904,0.94193894,-0.10219897,0.09920268,1.8073529,-0.34061804
1747679528.1865275,0.41800904,0.94193894,-0.10219897,0.09920268,1.8073529,-0.34061804
1747679528.1870456,0.41800904,0.94193894,-0.10219897,0.09920268,1.8073529,-0.34061804
1747679528.1875632,0.41800904,0.94193894,-0.10219897,0.09920268,1.8073529,-0.34061804
1747679528.1880944,0.41800904,0.94193894,-0.10219897,0.09920268,1.8073529,-0.34061804
1747679528.189142,0.41800904,0.94193894,-0.10219897,0.09920268,1.8073529,-0.34061804
1747679528.1896873,0.41800904,0.94193894,-0.10219897,0.09920268,1.8073529,-0.34061804
1747679528.1902313,0.41800904,0.94193894,-0.10219897,0.09920268,1.8073529,-0.34061804
1747679528.1907694,0.41800904,0.94193894,-0.10219897,0.09920268,1.8073529,-0.34061804
1747679528.1912906,0.41800904,0.94193894,-0.10219897,0.09920268,1.8073529,-0.34061804
1747679528.1918092,0.41800904,0.94193894,-0.10219897,0.09920268,1.8073529,-0.34061804
1747679528.1923277,0.41800904,0.94193894,-0.10219897,0.09920268,1.8073529,-0.34061804
1747679528.1928458,0.41800904,0.94193894,-0.10219897,0.09920268,1.8073529,-0.34061804
1747679528.1934316,0.32575542,0.93266475,-0.09438914,0.09920268,1.8073529,-0.34061804
1747679528.193986,0.32575542,0.93266475,-0.09438914,-0.013715269,1.9831214,-0.3214433
1747679528.1945238,0.32575542,0.93266475,-0.09438914,-0.013715269,1.9831214,-0.3214433
1747679528.1950474,0.32575542,0.93266475,-0.09438914,-0.013715269,1.9831214,-0.3214433
1747679528.1956222,0.32575542,0.93266475,-0.09438914,-0.013715269,1.9831214,-0.3214433
1747679528.1961403,0.32575542,0.93266475,-0.09438914,-0.013715269,1.9831214,-0.3214433
1747679528.1966584,0.32575542,0.93266475,-0.09438914,-0.013715269,1.9831214,-0.3214433
1747679528.1971767,0.32575542,0.93266475,-0.09438914,-0.013715269,1.9831214,-0.3214433
1747679528.1976948,0.32575542,0.93266475,-0.09438914,-0.013715269,1.9831214,-0.3214433
1747679528.1982129,0.32575542,0.93266475,-0.09438914,-0.013715269,1.9831214,-0.3214433
1747679528.198731,0.32575542,0.93266475,-0.09438914,-0.013715269,1.9831214,-0.3214433
1747679528.1992493,0.32575542,0.93266475,-0.09438914,-0.013715269,1.9831214,-0.3214433
1747679528.1997674,0.32575542,0.93266475,-0.09438914,-0.013715269,1.9831214,-0.3214433
1747679528.2002852,0.32575542,0.93266475,-0.09438914,-0.013715269,1.9831214,-0.3214433
1747679528.2008033,0.32575542,0.93266475,-0.09438914,-0.013715269,1.9831214,-0.3214433
1747679528.2013211,0.32575542,0.93266475,-0.09438914,-0.013715269,1.9831214,-0.3214433
1747679528.2018392,0.32575542,0.93266475,-0.09438914,-0.013715269,1.9831214,-0.3214433
1747679528.202357,0.32575542,0.93266475,-0.09438914,-0.013715269,1.9831214,-0.3214433
1747679528.2028751,0.32575542,0.93266475,-0.09438914,-0.013715269,1.9831214,-0.3214433
1747679528.203413,0.32575542,0.93266475,-0.09438914,-0.013715269,1.9831214,-0.3214433
1747679528.2046878,0.20665547,0.938034,-0.05533998,-0.07230477,2.034254,-0.22983064
1747679528.2058692,0.20665547,0.938034,-0.05533998,-0.07230477,2.034254,-0.22983064
1747679528.2064183,0.20665547,0.938034,-0.05533998,-0.07230477,2.034254,-0.22983064
1747679528.2069619,0.20665547,0.938034,-0.05533998,-0.07230477,2.034254,-0.22983064
1747679528.207781,0.20665547,0.938034,-0.05533998,-0.07230477,2.034254,-0.22983064
1747679528.208314,0.20665547,0.938034,-0.05533998,-0.07230477,2.034254,-0.22983064
1747679528.208834,0.20665547,0.938034,-0.05533998,-0.07230477,2.034254,-0.22983064
1747679528.2093525,0.20665547,0.938034,-0.05533998,-0.07230477,2.034254,-0.22983064
1747679528.2098706,0.20665547,0.938034,-0.05533998,-0.07230477,2.034254,-0.22983064
1747679528.210389,0.20665547,0.938034,-0.05533998,-0.07230477,2.034254,-0.22983064
1747679528.2109072,0.20665547,0.938034,-0.05533998,-0.07230477,2.034254,-0.22983064
1747679528.2114253,0.20665547,0.938034,-0.05533998,-0.07230477,2.034254,-0.22983064
1747679528.2119436,0.20665547,0.938034,-0.05533998,-0.07230477,2.034254,-0.22983064
1747679528.2124617,0.20665547,0.938034,-0.05533998,-0.07230477,2.034254,-0.22983064
1747679528.2129807,0.20665547,0.938034,-0.05533998,-0.07230477,2.034254,-0.22983064
1747679528.2134988,0.20665547,0.938034,-0.05533998,-0.07230477,2.034254,-0.22983064
1747679528.2140365,0.16174895,0.94974875,0.0071386746,-0.05206476,1.917075,-0.021038957
1747679528.2145755,0.16174895,0.94974875,0.0071386746,-0.05206476,1.917075,-0.021038957
1747679528.2150989,0.16174895,0.94974875,0.0071386746,-0.05206476,1.917075,-0.021038957
1747679528.215618,0.16174895,0.94974875,0.0071386746,-0.05206476,1.917075,-0.021038957
1747679528.216136,0.16174895,0.94974875,0.0071386746,-0.05206476,1.917075,-0.021038957
1747679528.216654,0.16174895,0.94974875,0.0071386746,-0.05206476,1.917075,-0.021038957
1747679528.2171721,0.16174895,0.94974875,0.0071386746,-0.05206476,1.917075,-0.021038957
1747679528.2176902,0.16174895,0.94974875,0.0071386746,-0.05206476,1.917075,-0.021038957
1747679528.218208,0.16174895,0.94974875,0.0071386746,-0.05206476,1.917075,-0.021038957
1747679528.2187388,0.16174895,0.94974875,0.0071386746,-0.05206476,1.917075,-0.021038957
1747679528.219274,0.16174895,0.94974875,0.0071386746,-0.05206476,1.917075,-0.021038957
1747679528.2198203,0.16174895,0.94974875,0.0071386746,-0.05206476,1.917075,-0.021038957
1747679528.2211006,0.16174895,0.94974875,0.0071386746,-0.05206476,1.917075,-0.021038957
1747679528.2217855,0.16174895,0.94974875,0.0071386746,0.06191845,1.734915,0.14727269
1747679528.2223256,0.16174895,0.94974875,0.0071386746,0.06191845,1.734915,0.14727269
1747679528.2228498,0.23350178,0.97708327,0.07889151,0.06191845,1.734915,0.14727269
1747679528.2233708,0.23350178,0.97708327,0.07889151,0.06191845,1.734915,0.14727269
1747679528.223889,0.23350178,0.97708327,0.07889151,0.06191845,1.734915,0.14727269
1747679528.2244244,0.23350178,0.97708327,0.07889151,0.06191845,1.734915,0.14727269
1747679528.2249706,0.23350178,0.97708327,0.07889151,0.06191845,1.734915,0.14727269
1747679528.2254953,0.23350178,0.97708327,0.07889151,0.06191845,1.734915,0.14727269
1747679528.2260146,0.23350178,0.97708327,0.07889151,0.06191845,1.734915,0.14727269
1747679528.226533,0.23350178,0.97708327,0.07889151,0.06191845,1.734915,0.14727269
1747679528.227051,0.23350178,0.97708327,0.07889151,0.06191845,1.734915,0.14727269
1747679528.227569,0.23350178,0.97708327,0.07889151,0.06191845,1.734915,0.14727269
1747679528.228087,0.23350178,0.97708327,0.07889151,0.06191845,1.734915,0.14727269
1747679528.2286053,0.23350178,0.97708327,0.07889151,0.06191845,1.734915,0.14727269
1747679528.2291234,0.23350178,0.97708327,0.07889151,0.06191845,1.734915,0.14727269
1747679528.2296412,0.23350178,0.97708327,0.07889151,0.06191845,1.734915,0.14727269
1747679528.2301593,0.23350178,0.97708327,0.07889151,0.06191845,1.734915,0.14727269
1747679528.2306776,0.23350178,0.97708327,0.07889151,0.06191845,1.734915,0.14727269
1747679528.2311954,0.23350178,0.97708327,0.07889151,0.06191845,1.734915,0.14727269
1747679528.2317133,0.23350178,0.97708327,0.07889151,0.06191845,1.734915,0.14727269
1747679528.2322314,0.23350178,0.97708327,0.07889151,0.06191845,1.734915,0.14727269
1747679528.2327502,0.23350178,0.97708327,0.07889151,0.06191845,1.734915,0.14727269
1747679528.233268,0.23350178,0.97708327,0.07889151,0.06191845,1.734915,0.14727269
1747679528.233804,0.37749556,1.0117394,0.1159882,0.06191845,1.734915,0.14727269
1747679528.2343428,0.37749556,1.0117394,0.1159882,0.06191845,1.734915,0.14727269
1747679528.234882,0.37749556,1.0117394,0.1159882,0.3037333,1.4632728,0.24740748
1747679528.2357597,0.37749556,1.0117394,0.1159882,0.3037333,1.4632728,0.24740748
1747679528.238504,0.37749556,1.0117394,0.1159882,0.3037333,1.4632728,0.24740748
1747679528.239066,0.37749556,1.0117394,0.1159882,0.3037333,1.4632728,0.24740748
1747679528.239606,0.37749556,1.0117394,0.1159882,0.3037333,1.4632728,0.24740748
1747679528.2401435,0.37749556,1.0117394,0.1159882,0.3037333,1.4632728,0.24740748
1747679528.240678,0.473166,1.031264,0.05887881,0.3037333,1.4632728,0.24740748
1747679528.241212,0.473166,1.031264,0.05887881,0.3037333,1.4632728,0.24740748
1747679528.2417493,0.473166,1.031264,0.05887881,0.45393547,1.2800474,0.2378201
1747679528.2422836,0.473166,1.031264,0.05887881,0.45393547,1.2800474,0.2378201
1747679528.242816,0.473166,1.031264,0.05887881,0.45393547,1.2800474,0.2378201
1747679528.2433496,0.473166,1.031264,0.05887881,0.45393547,1.2800474,0.2378201
1747679528.2438982,0.473166,1.031264,0.05887881,0.45393547,1.2800474,0.2378201
1747679528.2444434,0.473166,1.031264,0.05887881,0.45393547,1.2800474,0.2378201
1747679528.2449756,0.473166,1.031264,0.05887881,0.45393547,1.2800474,0.2378201
1747679528.2454991,0.473166,1.031264,0.05887881,0.45393547,1.2800474,0.2378201
1747679528.2460175,0.473166,1.031264,0.05887881,0.45393547,1.2800474,0.2378201
1747679528.2465358,0.473166,1.031264,0.05887881,0.45393547,1.2800474,0.2378201
1747679528.2470536,0.473166,1.031264,0.05887881,0.45393547,1.2800474,0.2378201
1747679528.2475712,0.473166,1.031264,0.05887881,0.45393547,1.2800474,0.2378201
1747679528.2480896,0.473166,1.031264,0.05887881,0.45393547,1.2800474,0.2378201
1747679528.2486112,0.473166,1.031264,0.05887881,0.45393547,1.2800474,0.2378201
1747679528.2491333,0.473166,1.031264,0.05887881,0.5359608,1.1181273,0.14940323
1747679528.2496524,0.473166,1.031264,0.05887881,0.5359608,1.1181273,0.14940323
1747679528.250174,0.6069094,1.0742179,-0.03142237,0.5359608,1.1181273,0.14940323
1747679528.2507129,0.6069094,1.0742179,-0.03142237,0.5359608,1.1181273,0.14940323
1747679528.2518358,0.6069094,1.0742179,-0.03142237,0.5359608,1.1181273,0.14940323
1747679528.2524018,0.6069094,1.0742179,-0.03142237,0.5359608,1.1181273,0.14940323
1747679528.252945,0.6069094,1.0742179,-0.03142237,0.5359608,1.1181273,0.14940323
1747679528.2534683,0.6069094,1.0742179,-0.03142237,0.5359608,1.1181273,0.14940323
1747679528.2540014,0.6069094,1.0742179,-0.03142237,0.5359608,1.1181273,0.14940323
1747679528.2545426,0.6069094,1.0742179,-0.03142237,0.5359608,1.1181273,0.14940323
1747679528.2550673,0.6069094,1.0742179,-0.03142237,0.5359608,1.1181273,0.14940323
1747679528.2555888,0.6069094,1.0742179,-0.03142237,0.5359608,1.1181273,0.14940323
1747679528.2561102,0.6069094,1.0742179,-0.03142237,0.5359608,1.1181273,0.14940323
1747679528.2566304,0.6069094,1.0742179,-0.03142237,0.5359608,1.1181273,0.14940323
1747679528.2571511,0.6069094,1.0742179,-0.03142237,0.5359608,1.1181273,0.14940323
1747679528.2576723,0.6069094,1.0742179,-0.03142237,0.5359608,1.1181273,0.14940323
1747679528.2581985,0.6840314,1.0649438,-0.15979649,0.5359608,1.1181273,0.14940323
1747679528.2587254,0.6840314,1.0649438,-0.15979649,0.5359608,1.1181273,0.14940323
1747679528.259254,0.6840314,1.0649438,-0.15979649,0.5359608,1.1181273,0.14940323
1747679528.2597797,0.6840314,1.0649438,-0.15979649,0.45500073,1.1937611,-0.07430214
1747679528.2603018,0.6840314,1.0649438,-0.15979649,0.45500073,1.1937611,-0.07430214
1747679528.2608225,0.6840314,1.0649438,-0.15979649,0.45500073,1.1937611,-0.07430214
1747679528.2613435,0.6840314,1.0649438,-0.15979649,0.45500073,1.1937611,-0.07430214
1747679528.2618642,0.6840314,1.0649438,-0.15979649,0.45500073,1.1937611,-0.07430214
1747679528.262385,0.6840314,1.0649438,-0.15979649,0.45500073,1.1937611,-0.07430214
1747679528.2629056,0.6840314,1.0649438,-0.15979649,0.45500073,1.1937611,-0.07430214
1747679528.2634263,0.6840314,1.0649438,-0.15979649,0.45500073,1.1937611,-0.07430214
1747679528.2639472,0.6840314,1.0649438,-0.15979649,0.45500073,1.1937611,-0.07430214
1747679528.264479,0.6840314,1.0649438,-0.15979649,0.45500073,1.1937611,-0.07430214
1747679528.2650192,0.6840314,1.0649438,-0.15979649,0.45500073,1.1937611,-0.07430214
1747679528.2655437,0.6840314,1.0649438,-0.15979649,0.45500073,1.1937611,-0.07430214
1747679528.2681415,0.6840314,1.0649438,-0.15979649,0.45500073,1.1937611,-0.07430214
1747679528.270527,0.6840314,1.0649438,-0.15979649,0.45500073,1.1937611,-0.07430214
1747679528.27109,0.63180315,1.0332164,-0.264253,0.23768695,1.4654033,-0.27350643
1747679528.2716143,0.63180315,1.0332164,-0.264253,0.23768695,1.4654033,-0.27350643
1747679528.2721334,0.63180315,1.0332164,-0.264253,0.23768695,1.4654033,-0.27350643
1747679528.2726526,0.63180315,1.0332164,-0.264253,0.23768695,1.4654033,-0.27350643
1747679528.2731712,0.63180315,1.0332164,-0.264253,0.23768695,1.4654033,-0.27350643
1747679528.273706,0.63180315,1.0332164,-0.264253,0.23768695,1.4654033,-0.27350643
1747679528.2742424,0.63180315,1.0332164,-0.264253,0.23768695,1.4654033,-0.27350643
1747679528.2747645,0.63180315,1.0332164,-0.264253,0.23768695,1.4654033,-0.27350643
1747679528.2752829,0.63180315,1.0332164,-0.264253,0.23768695,1.4654033,-0.27350643
1747679528.2758014,0.63180315,1.0332164,-0.264253,0.23768695,1.4654033,-0.27350643
1747679528.276319,0.63180315,1.0332164,-0.264253,0.23768695,1.4654033,-0.27350643
1747679528.276837,0.63180315,1.0332164,-0.264253,0.23768695,1.4654033,-0.27350643
1747679528.2773547,0.63180315,1.0332164,-0.264253,0.23768695,1.4654033,-0.27350643
1747679528.277872,0.63180315,1.0332164,-0.264253,0.23768695,1.4654033,-0.27350643
1747679528.2783897,0.63180315,1.0332164,-0.264253,0.23768695,1.4654033,-0.27350643
1747679528.2789073,0.63180315,1.0332164,-0.264253,0.23768695,1.4654033,-0.27350643
1747679528.2794275,0.63180315,1.0332164,-0.264253,0.23768695,1.4654033,-0.27350643
1747679528.279951,0.48292825,1.0053939,-0.32136238,0.23768695,1.4654033,-0.27350643
1747679528.2804732,0.48292825,1.0053939,-0.32136238,-0.07017424,1.755155,-0.39068544
1747679528.280993,0.48292825,1.0053939,-0.32136238,-0.07017424,1.755155,-0.39068544
1747679528.2816005,0.48292825,1.0053939,-0.32136238,-0.07017424,1.755155,-0.39068544
1747679528.2827063,0.48292825,1.0053939,-0.32136238,-0.07017424,1.755155,-0.39068544
1747679528.2832599,0.48292825,1.0053939,-0.32136238,-0.07017424,1.755155,-0.39068544
1747679528.2838085,0.48292825,1.0053939,-0.32136238,-0.07017424,1.755155,-0.39068544
1747679528.2843475,0.48292825,1.0053939,-0.32136238,-0.07017424,1.755155,-0.39068544
1747679528.2848704,0.48292825,1.0053939,-0.32136238,-0.07017424,1.755155,-0.39068544
1747679528.2853897,0.48292825,1.0053939,-0.32136238,-0.07017424,1.755155,-0.39068544
1747679528.2859082,0.48292825,1.0053939,-0.32136238,-0.07017424,1.755155,-0.39068544
1747679528.2864263,0.48292825,1.0053939,-0.32136238,-0.07017424,1.755155,-0.39068544
1747679528.2869446,0.48292825,1.0053939,-0.32136238,-0.07017424,1.755155,-0.39068544
1747679528.2874625,0.48292825,1.0053939,-0.32136238,-0.07017424,1.755155,-0.39068544
1747679528.2879808,0.48292825,1.0053939,-0.32136238,-0.07017424,1.755155,-0.39068544
1747679528.2885015,0.48292825,1.0053939,-0.32136238,-0.07017424,1.755155,-0.39068544
1747679528.289025,0.48292825,1.0053939,-0.32136238,-0.07017424,1.755155,-0.39068544
1747679528.289548,0.48292825,1.0053939,-0.32136238,-0.07017424,1.755155,-0.39068544
1747679528.2901285,0.33991072,0.9863574,-0.30671895,-0.07017424,1.755155,-0.39068544
1747679528.2906482,0.33991072,0.9863574,-0.30671895,-0.07017424,1.755155,-0.39068544
1747679528.2911696,0.33991072,0.9863574,-0.30671895,-0.39614493,1.9362499,-0.39601177
1747679528.2916892,0.33991072,0.9863574,-0.30671895,-0.39614493,1.9362499,-0.39601177
1747679528.2922077,0.33991072,0.9863574,-0.30671895,-0.39614493,1.9362499,-0.39601177
1747679528.2927258,0.33991072,0.9863574,-0.30671895,-0.39614493,1.9362499,-0.39601177
1747679528.293244,0.33991072,0.9863574,-0.30671895,-0.39614493,1.9362499,-0.39601177
1747679528.2937617,0.33991072,0.9863574,-0.30671895,-0.39614493,1.9362499,-0.39601177
1747679528.2942953,0.33991072,0.9863574,-0.30671895,-0.39614493,1.9362499,-0.39601177
1747679528.2948349,0.33991072,0.9863574,-0.30671895,-0.39614493,1.9362499,-0.39601177
1747679528.2953577,0.33991072,0.9863574,-0.30671895,-0.39614493,1.9362499,-0.39601177
1747679528.2958763,0.33991072,0.9863574,-0.30671895,-0.39614493,1.9362499,-0.39601177
1747679528.2964578,0.33991072,0.9863574,-0.30671895,-0.39614493,1.9362499,-0.39601177
1747679528.3017364,0.26278865,0.9687852,-0.20909604,-0.6432861,1.9873825,-0.32250857
1747679528.3022966,0.26278865,0.9687852,-0.20909604,-0.6432861,1.9873825,-0.32250857
1747679528.3028343,0.26278865,0.9687852,-0.20909604,-0.6432861,1.9873825,-0.32250857
1747679528.3033698,0.26278865,0.9687852,-0.20909604,-0.6432861,1.9873825,-0.32250857
