timestamp,acc_x,acc_y,acc_z,gyro_x,gyro_y,gyro_z
1747679430.536369,0.020195737,0.17803976,0.8061821,0.1482048,-0.035553172,-0.25752747
1747679430.53702,0.020195737,0.17803976,0.8061821,0.1482048,-0.035553172,-0.25752747
1747679430.5375826,0.020195737,0.17803976,0.8061821,0.1482048,-0.035553172,-0.25752747
1747679430.5382674,0.020195737,0.17803976,0.8061821,0.1482048,-0.035553172,-0.25752747
1747679430.538818,0.020195737,0.17803976,0.8061821,0.1482048,-0.035553172,-0.25752747
1747679430.539367,0.020195737,0.17803976,0.8061821,0.1482048,-0.035553172,-0.25752747
1747679430.5399168,-0.013484163,0.17999221,0.7793358,-0.0105194785,-0.016378429,-0.19680746
1747679430.5404596,-0.013484163,0.17999221,0.7793358,-0.0105194785,-0.016378429,-0.19680746
1747679430.5410078,-0.013484163,0.17999221,0.7793358,-0.0105194785,-0.016378429,-0.19680746
1747679430.541552,-0.013484163,0.17999221,0.7793358,-0.0105194785,-0.016378429,-0.19680746
1747679430.5420954,-0.013484163,0.17999221,0.7793358,-0.0105194785,-0.016378429,-0.19680746
1747679430.5426416,-0.013484163,0.17999221,0.7793358,-0.0105194785,-0.016378429,-0.19680746
1747679430.5431857,-0.013484163,0.17999221,0.7793358,-0.0105194785,-0.016378429,-0.19680746
1747679430.5437346,-0.013484163,0.17999221,0.7793358,-0.0105194785,-0.016378429,-0.19680746
1747679430.544283,-0.013484163,0.17999221,0.7793358,-0.0105194785,-0.016378429,-0.19680746
1747679430.5448272,-0.013484163,0.17999221,0.7793358,-0.0105194785,-0.016378429,-0.19680746
1747679430.5453715,-0.013484163,0.17999221,0.7793358,-0.0105194785,-0.016378429,-0.19680746
1747679430.5460267,-0.013484163,0.17999221,0.7793358,-0.0105194785,-0.016378429,-0.19680746
1747679430.547151,-0.013484163,0.17999221,0.7793358,-0.0105194785,-0.016378429,-0.19680746
1747679430.548991,-0.013484163,0.17999221,0.7793358,-0.0105194785,-0.016378429,-0.19680746
1747679430.5495589,-0.013484163,0.17999221,0.7793358,-0.0105194785,-0.016378429,-0.19680746
1747679430.5503435,-0.013484163,0.17999221,0.7793358,-0.0105194785,-0.016378429,-0.19680746
1747679430.5513995,-0.040818576,0.16534878,0.83693326,-0.0105194785,-0.016378429,-0.19680746
1747679430.5526242,-0.040818576,0.16534878,0.83693326,-0.1532648,-0.00785632,-0.12117374
1747679430.5534961,-0.040818576,0.16534878,0.83693326,-0.1532648,-0.00785632,-0.12117374
1747679430.554315,-0.040818576,0.16534878,0.83693326,-0.1532648,-0.00785632,-0.12117374
1747679430.554916,-0.040818576,0.16534878,0.83693326,-0.1532648,-0.00785632,-0.12117374
1747679430.5556142,-0.040818576,0.16534878,0.83693326,-0.1532648,-0.00785632,-0.12117374
1747679430.5847056,0.10366331,0.13752626,1.2049717,-0.07337003,-0.08775109,0.023702117
1747679430.5853286,0.10366331,0.13752626,1.2049717,-0.07337003,-0.08775109,0.023702117
1747679430.586232,0.10366331,0.13752626,1.2049717,-0.07337003,-0.08775109,0.023702117
1747679430.5870001,0.10366331,0.13752626,1.2049717,-0.07337003,-0.08775109,0.023702117
1747679430.5875938,0.10366331,0.13752626,1.2049717,-0.07337003,-0.08775109,0.023702117
1747679430.5881593,0.10366331,0.13752626,1.2049717,-0.07337003,-0.08775109,0.023702117
1747679430.5887225,0.10366331,0.13752626,1.2049717,-0.07337003,-0.08775109,0.023702117
1747679430.5892854,0.10366331,0.13752626,1.2049717,-0.07337003,-0.08775109,0.023702117
1747679430.589852,0.10366331,0.13752626,1.2049717,-0.07337003,-0.08775109,0.023702117
1747679430.5904136,0.10366331,0.13752626,1.2049717,-0.07337003,-0.08775109,0.023702117
1747679430.5909765,0.13441454,0.12288283,1.2420684,0.09920268,0.11038794,-0.011451584
1747679430.5915396,0.13441454,0.12288283,1.2420684,0.09920268,0.11038794,-0.011451584
1747679430.5921042,0.13441454,0.12288283,1.2420684,0.09920268,0.11038794,-0.011451584
1747679430.5927436,0.13441454,0.12288283,1.2420684,0.09920268,0.11038794,-0.011451584
1747679430.593305,0.13441454,0.12288283,1.2420684,0.09920268,0.11038794,-0.011451584
1747679430.5938663,0.13441454,0.12288283,1.2420684,0.09920268,0.11038794,-0.011451584
1747679430.5962563,0.13441454,0.12288283,1.2420684,0.09920268,0.11038794,-0.011451584
1747679430.6044185,0.13441454,0.12288283,1.2420684,0.09920268,0.11038794,-0.011451584
1747679430.6073112,0.1505223,0.13801438,1.261593,0.18975009,0.2616554,-0.024234748
1747679430.6086748,0.1505223,0.13801438,1.261593,0.18975009,0.2616554,-0.024234748
1747679430.6092358,0.1505223,0.13801438,1.261593,0.18975009,0.2616554,-0.024234748
1747679430.6097941,0.1505223,0.13801438,1.261593,0.18975009,0.2616554,-0.024234748
1747679430.6149163,0.1505223,0.13801438,1.261593,0.18975009,0.2616554,-0.024234748
1747679430.6154928,0.1505223,0.13801438,1.261593,0.18975009,0.2616554,-0.024234748
1747679430.6160553,0.1505223,0.13801438,1.261593,0.18975009,0.2616554,-0.024234748
1747679430.6166186,0.18127352,0.10726316,1.2386516,0.41025966,0.64408505,-0.12330426
1747679430.6171813,0.18127352,0.10726316,1.2386516,0.41025966,0.64408505,-0.12330426
1747679430.6177363,0.18127352,0.10726316,1.2386516,0.41025966,0.64408505,-0.12330426
1747679430.6182964,0.18127352,0.10726316,1.2386516,0.41025966,0.64408505,-0.12330426
1747679430.6198742,0.18127352,0.10726316,1.2386516,0.41025966,0.64408505,-0.12330426
1747679430.6204348,0.18127352,0.10726316,1.2386516,0.41025966,0.64408505,-0.12330426
1747679430.6209967,0.18127352,0.10726316,1.2386516,0.41025966,0.64408505,-0.12330426
1747679430.621556,0.18127352,0.10726316,1.2386516,0.41025966,0.64408505,-0.12330426
1747679430.6221154,0.18127352,0.10726316,1.2386516,0.41025966,0.64408505,-0.12330426
1747679430.6245341,0.042160887,0.16876559,1.0775738,0.49228495,0.72184926,-0.13715269
1747679430.625101,0.042160887,0.16876559,1.0775738,0.49228495,0.72184926,-0.13715269
1747679430.629526,0.042160887,0.16876559,1.0775738,0.49228495,0.72184926,-0.13715269
1747679430.632813,0.042160887,0.16876559,1.0775738,0.49228495,0.72184926,-0.13715269
1747679430.6340501,0.042160887,0.16876559,1.0775738,0.49228495,0.72184926,-0.13715269
1747679430.6346092,0.042160887,0.16876559,1.0775738,0.49228495,0.72184926,-0.13715269
1747679430.6372862,-0.028615711,0.22587498,0.8725657,0.40386808,0.57271236,-0.060453713
1747679430.6388109,-0.028615711,0.22587498,0.8725657,0.40386808,0.57271236,-0.060453713
1747679430.6394653,-0.028615711,0.22587498,0.8725657,0.40386808,0.57271236,-0.060453713
1747679430.6401207,-0.028615711,0.22587498,0.8725657,0.40386808,0.57271236,-0.060453713
1747679430.6407626,-0.028615711,0.22587498,0.8725657,0.40386808,0.57271236,-0.060453713
1747679430.6421165,-0.028615711,0.22587498,0.8725657,0.40386808,0.57271236,-0.060453713
1747679430.643317,-0.038378,0.26492414,0.7783596,0.16205323,0.16684692,0.0109189525
1747679430.6438816,-0.038378,0.26492414,0.7783596,0.16205323,0.16684692,0.0109189525
1747679430.6444402,-0.038378,0.26492414,0.7783596,0.16205323,0.16684692,0.0109189525
1747679430.6451907,-0.038378,0.26492414,0.7783596,0.16205323,0.16684692,0.0109189525
1747679430.6461034,-0.038378,0.26492414,0.7783596,0.16205323,0.16684692,0.0109189525
1747679430.6467178,-0.038378,0.26492414,0.7783596,0.16205323,0.16684692,0.0109189525
1747679430.64727,-0.038378,0.26492414,0.7783596,0.16205323,0.16684692,0.0109189525
1747679430.6478312,-0.038378,0.26492414,0.7783596,0.16205323,0.16684692,0.0109189525
1747679430.6484268,-0.038378,0.26492414,0.7783596,0.16205323,0.16684692,0.0109189525
1747679430.649102,-0.038378,0.26492414,0.7783596,0.16205323,0.16684692,0.0109189525
1747679430.6496608,-0.038378,0.26492414,0.7783596,0.16205323,0.16684692,0.0109189525
1747679430.650253,-0.038378,0.26492414,0.7783596,0.16205323,0.16684692,0.0109189525
1747679430.6508114,-0.038378,0.26492414,0.7783596,-0.024367906,-0.10692584,0.042876862
1747679430.6513753,-0.038378,0.26492414,0.7783596,-0.024367906,-0.10692584,0.042876862
1747679430.651934,-0.038378,0.26492414,0.7783596,-0.024367906,-0.10692584,0.042876862
1747679430.6528022,-0.02617514,0.26394793,0.8154563,-0.024367906,-0.10692584,0.042876862
1747679430.6534276,-0.02617514,0.26394793,0.8154563,-0.024367906,-0.10692584,0.042876862
1747679430.6544983,-0.02617514,0.26394793,0.8154563,-0.024367906,-0.10692584,0.042876862
1747679430.656499,-0.02617514,0.26394793,0.8154563,-0.024367906,-0.10692584,0.042876862
1747679430.6571617,-0.02617514,0.26394793,0.8154563,-0.024367906,-0.10692584,0.042876862
1747679430.658491,-0.02617514,0.26394793,0.8154563,-0.024367906,-0.10692584,0.042876862
1747679430.6592767,-0.02617514,0.26394793,0.8154563,-0.024367906,-0.10692584,0.042876862
1747679430.6598437,-0.02617514,0.26394793,0.8154563,-0.024367906,-0.10692584,0.042876862
1747679430.660409,-0.02617514,0.26394793,0.8154563,-0.024367906,-0.10692584,0.042876862
1747679430.6609704,-0.02617514,0.26394793,0.8154563,-0.024367906,-0.10692584,0.042876862
1747679430.6615303,0.005552302,0.2536975,0.9745816,-0.024367906,-0.10692584,0.042876862
1747679430.6622021,0.005552302,0.2536975,0.9745816,-0.024367906,-0.10692584,0.042876862
1747679430.6627653,0.005552302,0.2536975,0.9745816,-0.24594274,-0.33595753,0.07057372
1747679430.6633213,0.005552302,0.2536975,0.9745816,-0.24594274,-0.33595753,0.07057372
1747679430.6638873,0.005552302,0.2536975,0.9745816,-0.24594274,-0.33595753,0.07057372
1747679430.6644435,0.005552302,0.2536975,0.9745816,-0.24594274,-0.33595753,0.07057372
1747679430.6650066,0.005552302,0.2536975,0.9745816,-0.24594274,-0.33595753,0.07057372
1747679430.665562,0.005552302,0.2536975,0.9745816,-0.24594274,-0.33595753,0.07057372
1747679430.6661153,0.005552302,0.2536975,0.9745816,-0.24594274,-0.33595753,0.07057372
1747679430.6666687,0.005552302,0.2536975,0.9745816,-0.24594274,-0.33595753,0.07057372
1747679430.6672444,0.005552302,0.2536975,0.9745816,-0.24594274,-0.33595753,0.07057372
1747679430.6677957,0.005552302,0.2536975,0.9745816,-0.24594274,-0.33595753,0.07057372
1747679430.668342,0.005552302,0.2536975,0.9745816,-0.24594274,-0.33595753,0.07057372
1747679430.668898,0.005552302,0.2536975,0.9745816,-0.24594274,-0.33595753,0.07057372
1747679430.6694622,0.005552302,0.2536975,0.9745816,-0.24594274,-0.33595753,0.07057372
1747679430.6700728,0.005552302,0.2536975,0.9745816,-0.24594274,-0.33595753,0.07057372
1747679430.6706214,0.005552302,0.2536975,0.9745816,-0.24594274,-0.33595753,0.07057372
1747679430.6711655,0.005552302,0.2536975,0.9745816,-0.24594274,-0.33595753,0.07057372
1747679430.6717098,0.04753015,0.23514915,1.1908163,-0.2970754,-0.2549975,0.069508456
1747679430.6722615,0.04753015,0.23514915,1.1908163,-0.2970754,-0.2549975,0.069508456
1747679430.6728156,0.04753015,0.23514915,1.1908163,-0.2970754,-0.2549975,0.069508456
1747679430.673423,0.04753015,0.23514915,1.1908163,-0.2970754,-0.2549975,0.069508456
1747679430.6739862,0.04753015,0.23514915,1.1908163,-0.2970754,-0.2549975,0.069508456
1747679430.674547,0.04753015,0.23514915,1.1908163,-0.2970754,-0.2549975,0.069508456
1747679430.6750915,0.04753015,0.23514915,1.1908163,-0.2970754,-0.2549975,0.069508456
1747679430.6756375,0.04753015,0.23514915,1.1908163,-0.2970754,-0.2549975,0.069508456
1747679430.6761885,0.04753015,0.23514915,1.1908163,-0.2970754,-0.2549975,0.069508456
1747679430.6767497,0.04753015,0.23514915,1.1908163,-0.2970754,-0.2549975,0.069508456
1747679430.677315,0.04753015,0.23514915,1.1908163,-0.2970754,-0.2549975,0.069508456
1747679430.6778796,0.04753015,0.23514915,1.1908163,-0.2970754,-0.2549975,0.069508456
1747679430.678446,0.04753015,0.23514915,1.1908163,-0.2970754,-0.2549975,0.069508456
1747679430.6790106,0.04753015,0.23514915,1.1908163,-0.2970754,-0.2549975,0.069508456
1747679430.6795661,0.04753015,0.23514915,1.1908163,-0.2970754,-0.2549975,0.069508456
1747679430.6801293,0.04753015,0.23514915,1.1908163,-0.2970754,-0.2549975,0.069508456
1747679430.6806967,0.04753015,0.23514915,1.1908163,-0.2970754,-0.2549975,0.069508456
1747679430.6812859,0.04753015,0.23514915,1.1908163,-0.2970754,-0.2549975,0.069508456
1747679430.681839,0.04753015,0.23514915,1.1908163,-0.2970754,-0.2549975,0.069508456
1747679430.6823525,0.04753015,0.23514915,1.1908163,-0.2970754,-0.2549975,0.069508456
1747679430.682964,0.04753015,0.23514915,1.1908163,-0.2970754,-0.2549975,0.069508456
1747679430.6836977,0.04753015,0.23514915,1.1908163,-0.2970754,-0.2549975,0.069508456
1747679430.6849723,0.07974571,0.2097672,1.3392031,-0.2970754,-0.2549975,0.069508456
1747679430.6855416,0.07974571,0.2097672,1.3392031,-0.20972379,-0.031292118,0.05033371
1747679430.6861045,0.07974571,0.2097672,1.3392031,-0.20972379,-0.031292118,0.05033371
1747679430.686655,0.07974571,0.2097672,1.3392031,-0.20972379,-0.031292118,0.05033371
1747679430.6872017,0.07974571,0.2097672,1.3392031,-0.20972379,-0.031292118,0.05033371
1747679430.6877553,0.07974571,0.2097672,1.3392031,-0.20972379,-0.031292118,0.05033371
1747679430.68832,0.07974571,0.2097672,1.3392031,-0.20972379,-0.031292118,0.05033371
1747679430.6888838,0.07974571,0.2097672,1.3392031,-0.20972379,-0.031292118,0.05033371
1747679430.689881,0.07974571,0.2097672,1.3392031,-0.20972379,-0.031292118,0.05033371
1747679430.690442,0.07974571,0.2097672,1.3392031,-0.20972379,-0.031292118,0.05033371
1747679430.691026,0.07974571,0.2097672,1.3392031,-0.20972379,-0.031292118,0.05033371
1747679430.6915607,0.07974571,0.2097672,1.3392031,-0.20972379,-0.031292118,0.05033371
1747679430.6920862,0.07974571,0.2097672,1.3392031,-0.20972379,-0.031292118,0.05033371
1747679430.6926084,0.07974571,0.2097672,1.3392031,-0.20972379,-0.031292118,0.05033371
1747679430.6931527,0.07974571,0.2097672,1.3392031,-0.20972379,-0.031292118,0.05033371
1747679430.6937027,0.07974571,0.2097672,1.3392031,-0.20972379,-0.031292118,0.05033371
1747679430.6942496,0.07974571,0.2097672,1.3392031,-0.20972379,-0.031292118,0.05033371
1747679430.6947904,0.07974571,0.2097672,1.3392031,-0.20972379,-0.031292118,0.05033371
1747679430.6953633,0.07974571,0.2097672,1.3392031,-0.20972379,-0.031292118,0.05033371
1747679430.6959016,0.07974571,0.2097672,1.3392031,-0.15006901,0.07203846,0.041811597
1747679430.6964505,0.08901988,0.20390983,1.3894789,-0.15006901,0.07203846,0.041811597
1747679430.697407,0.08901988,0.20390983,1.3894789,-0.15006901,0.07203846,0.041811597
1747679430.6979783,0.08901988,0.20390983,1.3894789,-0.15006901,0.07203846,0.041811597
1747679430.698532,0.08901988,0.20390983,1.3894789,-0.15006901,0.07203846,0.041811597
1747679430.6990888,0.08901988,0.20390983,1.3894789,-0.15006901,0.07203846,0.041811597
1747679430.69965,0.08901988,0.20390983,1.3894789,-0.15006901,0.07203846,0.041811597
1747679430.700606,0.08901988,0.20390983,1.3894789,-0.15006901,0.07203846,0.041811597
1747679430.7011728,0.08901988,0.20390983,1.3894789,-0.15006901,0.07203846,0.041811597
1747679430.7017355,0.08901988,0.20390983,1.3894789,-0.15006901,0.07203846,0.041811597
1747679430.7022939,0.09438914,0.23075612,1.3904551,0.05978792,0.37457332,-0.00079894776
1747679430.7028496,0.09438914,0.23075612,1.3904551,0.05978792,0.37457332,-0.00079894776
1747679430.7041807,0.09438914,0.23075612,1.3904551,0.05978792,0.37457332,-0.00079894776
1747679430.7048397,0.09438914,0.23075612,1.3904551,0.05978792,0.37457332,-0.00079894776
1747679430.705522,0.09438914,0.23075612,1.3904551,0.05978792,0.37457332,-0.00079894776
1747679430.706105,0.09438914,0.23075612,1.3904551,0.05978792,0.37457332,-0.00079894776
1747679430.706664,0.09438914,0.23075612,1.3904551,0.05978792,0.37457332,-0.00079894776
1747679430.7072763,0.09438914,0.23075612,1.3904551,0.05978792,0.37457332,-0.00079894776
1747679430.7078483,0.09438914,0.23075612,1.3904551,0.05978792,0.37457332,-0.00079894776
1747679430.708409,0.09438914,0.23075612,1.3904551,0.05978792,0.37457332,-0.00079894776
1747679430.7089822,0.09438914,0.23075612,1.3904551,0.05978792,0.37457332,-0.00079894776
1747679430.7095282,0.09438914,0.23075612,1.3904551,0.05978792,0.37457332,-0.00079894776
1747679430.7101555,0.09438914,0.23075612,1.3904551,0.05978792,0.37457332,-0.00079894776
1747679430.7114553,0.09438914,0.23075612,1.3904551,0.05978792,0.37457332,-0.00079894776
1747679430.712103,0.09438914,0.23075612,1.3904551,0.05978792,0.37457332,-0.00079894776
1747679430.7127416,0.09438914,0.23075612,1.3904551,0.05978792,0.37457332,-0.00079894776
1747679430.713308,0.0660785,0.27566266,1.3387151,0.19933745,0.5759082,-0.049801074
1747679430.713873,0.0660785,0.27566266,1.3387151,0.19933745,0.5759082,-0.049801074
1747679430.7144396,0.0660785,0.27566266,1.3387151,0.19933745,0.5759082,-0.049801074
1747679430.7155485,0.0660785,0.27566266,1.3387151,0.19933745,0.5759082,-0.049801074
1747679430.7161138,0.0660785,0.27566266,1.3387151,0.19933745,0.5759082,-0.049801074
1747679430.7166722,0.0660785,0.27566266,1.3387151,0.19933745,0.5759082,-0.049801074
1747679430.7173297,0.0660785,0.27566266,1.3387151,0.19933745,0.5759082,-0.049801074
1747679430.7179422,0.0660785,0.27566266,1.3387151,0.19933745,0.5759082,-0.049801074
1747679430.7184894,0.0660785,0.27566266,1.3387151,0.19933745,0.5759082,-0.049801074
1747679430.7190285,0.0660785,0.27566266,1.3387151,0.19933745,0.5759082,-0.049801074
1747679430.7196677,0.0660785,0.27566266,1.3387151,0.19933745,0.5759082,-0.049801074
1747679430.720859,0.0660785,0.27566266,1.3387151,0.19933745,0.5759082,-0.049801074
1747679430.721419,0.0660785,0.27566266,1.3387151,0.19933745,0.5759082,-0.049801074
1747679430.7219665,0.0660785,0.27566266,1.3387151,0.19933745,0.5759082,-0.049801074
1747679430.722511,0.0660785,0.27566266,1.3387151,0.19933745,0.5759082,-0.049801074
1747679430.7230446,0.026541224,0.3176405,1.300154,0.19933745,0.5759082,-0.049801074
1747679430.723572,0.026541224,0.3176405,1.300154,0.19933745,0.5759082,-0.049801074
1747679430.724119,0.026541224,0.3176405,1.300154,0.26325327,0.6046703,-0.06897582
1747679430.7246604,0.026541224,0.3176405,1.300154,0.26325327,0.6046703,-0.06897582
1747679430.7251868,0.026541224,0.3176405,1.300154,0.26325327,0.6046703,-0.06897582
1747679430.725732,0.026541224,0.3176405,1.300154,0.26325327,0.6046703,-0.06897582
1747679430.7262847,0.026541224,0.3176405,1.300154,0.26325327,0.6046703,-0.06897582
1747679430.7268348,0.026541224,0.3176405,1.300154,0.26325327,0.6046703,-0.06897582
1747679430.727385,0.026541224,0.3176405,1.300154,0.26325327,0.6046703,-0.06897582
1747679430.7279305,0.026541224,0.3176405,1.300154,0.26325327,0.6046703,-0.06897582
1747679430.72848,0.026541224,0.3176405,1.300154,0.26325327,0.6046703,-0.06897582
1747679430.7290394,0.026541224,0.3176405,1.300154,0.26325327,0.6046703,-0.06897582
1747679430.72973,0.026541224,0.3176405,1.300154,0.26325327,0.6046703,-0.06897582
1747679430.7303119,0.026541224,0.3176405,1.300154,0.26325327,0.6046703,-0.06897582
1747679430.7308774,0.026541224,0.3176405,1.300154,0.26325327,0.6046703,-0.06897582
1747679430.7314363,0.026541224,0.3176405,1.300154,0.26325327,0.6046703,-0.06897582
1747679430.7319975,0.026541224,0.3176405,1.300154,0.26325327,0.6046703,-0.06897582
1747679430.7325542,0.026541224,0.3176405,1.300154,0.26325327,0.6046703,-0.06897582
1747679430.733112,0.026541224,0.3176405,1.300154,0.26325327,0.6046703,-0.06897582
1747679430.7337098,0.026541224,0.3176405,1.300154,0.26325327,0.6046703,-0.06897582
1747679430.7342727,0.026541224,0.3176405,1.300154,0.26325327,0.6046703,-0.06897582
1747679430.7348335,0.026541224,0.3176405,1.300154,0.26325327,0.6046703,-0.06897582
1747679430.7355287,0.026541224,0.3176405,1.300154,0.298407,0.4310323,-0.082824245
1747679430.7362053,-0.000793186,0.35668966,1.3016183,0.298407,0.4310323,-0.082824245
1747679430.736772,-0.000793186,0.35668966,1.3016183,0.298407,0.4310323,-0.082824245
1747679430.7374463,-0.000793186,0.35668966,1.3016183,0.298407,0.4310323,-0.082824245
1747679430.7380235,-0.000793186,0.35668966,1.3016183,0.298407,0.4310323,-0.082824245
1747679430.7385867,-0.000793186,0.35668966,1.3016183,0.298407,0.4310323,-0.082824245
1747679430.73914,-0.000793186,0.35668966,1.3016183,0.298407,0.4310323,-0.082824245
1747679430.7396712,-0.000793186,0.35668966,1.3016183,0.298407,0.4310323,-0.082824245
1747679430.7402086,-0.000793186,0.35668966,1.3016183,0.298407,0.4310323,-0.082824245
1747679430.7407606,-0.000793186,0.35668966,1.3016183,0.298407,0.4310323,-0.082824245
1747679430.7413275,-0.033008743,0.3713331,1.3631208,0.298407,0.4310323,-0.082824245
1747679430.7420385,-0.033008743,0.3713331,1.3631208,0.298407,0.4310323,-0.082824245
1747679430.7426121,-0.033008743,0.3713331,1.3631208,0.298407,0.4310323,-0.082824245
1747679430.743175,-0.033008743,0.3713331,1.3631208,0.35273543,0.101865835,-0.08815057
1747679430.7437358,-0.033008743,0.3713331,1.3631208,0.35273543,0.101865835,-0.08815057
1747679430.7444336,-0.033008743,0.3713331,1.3631208,0.35273543,0.101865835,-0.08815057
1747679430.7451794,-0.033008743,0.3713331,1.3631208,0.35273543,0.101865835,-0.08815057
1747679430.745814,-0.033008743,0.3713331,1.3631208,0.35273543,0.101865835,-0.08815057
1747679430.7470262,-0.033008743,0.3713331,1.3631208,0.35273543,0.101865835,-0.08815057
1747679430.7480164,-0.033008743,0.3713331,1.3631208,0.35273543,0.101865835,-0.08815057
1747679430.7485914,-0.033008743,0.3713331,1.3631208,0.35273543,0.101865835,-0.08815057
1747679430.7491517,-0.033008743,0.3713331,1.3631208,0.35273543,0.101865835,-0.08815057
1747679430.7497163,-0.033008743,0.3713331,1.3631208,0.35273543,0.101865835,-0.08815057
1747679430.750279,-0.033008743,0.3713331,1.3631208,0.35273543,0.101865835,-0.08815057
1747679430.7515578,-0.033008743,0.3713331,1.3631208,0.47950178,-0.31571752,-0.05619266
1747679430.752166,-0.062295612,0.3703569,1.4573269,0.47950178,-0.31571752,-0.05619266
1747679430.7527277,-0.062295612,0.3703569,1.4573269,0.47950178,-0.31571752,-0.05619266
1747679430.753285,-0.062295612,0.3703569,1.4573269,0.47950178,-0.31571752,-0.05619266
1747679430.7538452,-0.062295612,0.3703569,1.4573269,0.47950178,-0.31571752,-0.05619266
1747679430.7544446,-0.062295612,0.3703569,1.4573269,0.47950178,-0.31571752,-0.05619266
1747679430.755276,-0.062295612,0.3703569,1.4573269,0.47950178,-0.31571752,-0.05619266
1747679430.7561734,-0.062295612,0.3703569,1.4573269,0.47950178,-0.31571752,-0.05619266
1747679430.7567377,-0.062295612,0.3703569,1.4573269,0.47950178,-0.31571752,-0.05619266
1747679430.7573016,-0.062295612,0.3703569,1.4573269,0.47950178,-0.31571752,-0.05619266
1747679430.7578623,-0.062295612,0.3703569,1.4573269,0.47950178,-0.31571752,-0.05619266
1747679430.7584293,-0.062295612,0.3703569,1.4573269,0.47950178,-0.31571752,-0.05619266
1747679430.7594342,-0.062295612,0.3703569,1.4573269,0.47950178,-0.31571752,-0.05619266
1747679430.7608495,-0.062295612,0.3703569,1.4573269,0.47950178,-0.31571752,-0.05619266
1747679430.763486,-0.04374726,0.36791632,1.4944235,0.5817671,-0.47657233,-0.021038957
1747679430.7642868,-0.04374726,0.36791632,1.4944235,0.5817671,-0.47657233,-0.021038957
1747679430.764856,-0.04374726,0.36791632,1.4944235,0.5817671,-0.47657233,-0.021038957
1747679430.765416,-0.04374726,0.36791632,1.4944235,0.5817671,-0.47657233,-0.021038957
1747679430.7659788,-0.04374726,0.36791632,1.4944235,0.5817671,-0.47657233,-0.021038957
1747679430.7666247,-0.04374726,0.36791632,1.4944235,0.5817671,-0.47657233,-0.021038957
1747679430.7671862,-0.04374726,0.36791632,1.4944235,0.5817671,-0.47657233,-0.021038957
1747679430.767728,-0.04374726,0.36791632,1.4944235,0.5817671,-0.47657233,-0.021038957
1747679430.768256,-0.04374726,0.36791632,1.4944235,0.5817671,-0.47657233,-0.021038957
1747679430.7687826,-0.04374726,0.36791632,1.4944235,0.5817671,-0.47657233,-0.021038957
1747679430.7693174,-0.04374726,0.36791632,1.4944235,0.5817671,-0.47657233,-0.021038957
1747679430.7698445,-0.04374726,0.36791632,1.4944235,0.5817671,-0.47657233,-0.021038957
1747679430.7703707,-0.04374726,0.36791632,1.4944235,0.5817671,-0.47657233,-0.021038957
1747679430.770897,-0.04374726,0.36791632,1.4944235,0.5817671,-0.47657233,-0.021038957
1747679430.7714243,-0.04374726,0.36791632,1.4944235,0.5817671,-0.47657233,-0.021038957
1747679430.7719598,-0.02080588,0.36596385,1.5188292,0.6584661,-0.51705235,0.0002663159
1747679430.7724886,-0.02080588,0.36596385,1.5188292,0.6584661,-0.51705235,0.0002663159
1747679430.773019,-0.02080588,0.36596385,1.5188292,0.6584661,-0.51705235,0.0002663159
1747679430.77356,-0.02080588,0.36596385,1.5188292,0.6584661,-0.51705235,0.0002663159
1747679430.7741117,-0.02080588,0.36596385,1.5188292,0.6584661,-0.51705235,0.0002663159
1747679430.7746644,-0.02080588,0.36596385,1.5188292,0.6584661,-0.51705235,0.0002663159
1747679430.7752311,-0.02080588,0.36596385,1.5188292,0.6584661,-0.51705235,0.0002663159
1747679430.7757967,-0.02080588,0.36596385,1.5188292,0.6584661,-0.51705235,0.0002663159
1747679430.7764835,-0.02080588,0.36596385,1.5188292,0.6584661,-0.51705235,0.0002663159
1747679430.7770472,-0.02080588,0.36596385,1.5188292,0.6584661,-0.51705235,0.0002663159
1747679430.7776217,-0.02080588,0.36596385,1.5188292,0.6584661,-0.51705235,0.0002663159
1747679430.7781832,-0.02080588,0.36596385,1.5188292,0.6584661,-0.51705235,0.0002663159
1747679430.7787466,-0.02080588,0.36596385,1.5188292,0.6584661,-0.51705235,0.0002663159
1747679430.779319,-0.02080588,0.36596385,1.5188292,0.6584661,-0.51705235,0.0002663159
1747679430.7798808,-0.02080588,0.36596385,1.5188292,0.6584661,-0.51705235,0.0002663159
1747679430.7804437,-0.02080588,0.36596385,1.5188292,0.6584661,-0.51705235,0.0002663159
1747679430.781004,0.10024651,0.37719047,1.5588547,0.6584661,-0.51705235,0.0002663159
1747679430.7815616,0.10024651,0.37719047,1.5588547,0.6584661,-0.51705235,0.0002663159
1747679430.7825835,0.10024651,0.37719047,1.5588547,0.6584661,-0.51705235,0.0002663159
1747679430.7835915,0.10024651,0.37719047,1.5588547,0.6584661,-0.51705235,0.0002663159
1747679430.7841618,0.10024651,0.37719047,1.5588547,0.8544746,-0.3423491,-0.024234748
1747679430.7847283,0.10024651,0.37719047,1.5588547,0.8544746,-0.3423491,-0.024234748
1747679430.785294,0.10024651,0.37719047,1.5588547,0.8544746,-0.3423491,-0.024234748
1747679430.7858546,0.10024651,0.37719047,1.5588547,0.8544746,-0.3423491,-0.024234748
1747679430.7864182,0.10024651,0.37719047,1.5588547,0.8544746,-0.3423491,-0.024234748
1747679430.7869809,0.10024651,0.37719047,1.5588547,0.8544746,-0.3423491,-0.024234748
1747679430.7875378,0.10024651,0.37719047,1.5588547,0.8544746,-0.3423491,-0.024234748
1747679430.7880883,0.10024651,0.37719047,1.5588547,0.8544746,-0.3423491,-0.024234748
1747679430.7886417,0.10024651,0.37719047,1.5588547,0.8544746,-0.3423491,-0.024234748
1747679430.7891858,0.10024651,0.37719047,1.5588547,0.8544746,-0.3423491,-0.024234748
1747679430.7897794,0.10024651,0.37719047,1.5588547,0.8544746,-0.3423491,-0.024234748
1747679430.7903435,0.10024651,0.37719047,1.5588547,0.8544746,-0.3423491,-0.024234748
1747679430.7908978,0.10024651,0.37719047,1.5588547,0.8544746,-0.3423491,-0.024234748
1747679430.7933528,0.17785671,0.38255972,1.5500686,0.8544746,-0.3423491,-0.024234748
1747679430.7942271,0.17785671,0.38255972,1.5500686,0.96419674,-0.11225215,-0.105194785
1747679430.7953923,0.17785671,0.38255972,1.5500686,0.96419674,-0.11225215,-0.105194785
1747679430.7959573,0.17785671,0.38255972,1.5500686,0.96419674,-0.11225215,-0.105194785
1747679430.7965193,0.17785671,0.38255972,1.5500686,0.96419674,-0.11225215,-0.105194785
1747679430.7970834,0.17785671,0.38255972,1.5500686,0.96419674,-0.11225215,-0.105194785
1747679430.7976413,0.17785671,0.38255972,1.5500686,0.96419674,-0.11225215,-0.105194785
1747679430.7981973,0.17785671,0.38255972,1.5500686,0.96419674,-0.11225215,-0.105194785
1747679430.7987568,0.17785671,0.38255972,1.5500686,0.96419674,-0.11225215,-0.105194785
1747679430.7993112,0.17785671,0.38255972,1.5500686,0.96419674,-0.11225215,-0.105194785
1747679430.79986,0.17785671,0.38255972,1.5500686,0.96419674,-0.11225215,-0.105194785
1747679430.8003993,0.17785671,0.38255972,1.5500686,0.96419674,-0.11225215,-0.105194785
1747679430.8009374,0.17785671,0.38255972,1.5500686,0.96419674,-0.11225215,-0.105194785
1747679430.8014812,0.17785671,0.38255972,1.5500686,0.96419674,-0.11225215,-0.105194785
1747679430.8020391,0.17785671,0.38255972,1.5500686,0.96419674,-0.11225215,-0.105194785
1747679430.8025942,0.1939645,0.39769128,1.517853,0.96419674,-0.11225215,-0.105194785
1747679430.8031466,0.1939645,0.39769128,1.517853,1.0302432,0.10825742,-0.21491694
1747679430.8036895,0.1939645,0.39769128,1.517853,1.0302432,0.10825742,-0.21491694
1747679430.8042307,0.1939645,0.39769128,1.517853,1.0302432,0.10825742,-0.21491694
1747679430.8047628,0.1939645,0.39769128,1.517853,1.0302432,0.10825742,-0.21491694
1747679430.8052833,0.1939645,0.39769128,1.517853,1.0302432,0.10825742,-0.21491694
1747679430.8058019,0.1939645,0.39769128,1.517853,1.0302432,0.10825742,-0.21491694
1747679430.8063202,0.1939645,0.39769128,1.517853,1.0302432,0.10825742,-0.21491694
1747679430.8068633,0.1939645,0.39769128,1.517853,1.0302432,0.10825742,-0.21491694
1747679430.8074222,0.1939645,0.39769128,1.517853,1.0302432,0.10825742,-0.21491694
1747679430.8079696,0.1939645,0.39769128,1.517853,1.0302432,0.10825742,-0.21491694
1747679430.808497,0.1939645,0.39769128,1.517853,1.0302432,0.10825742,-0.21491694
1747679430.8090153,0.1939645,0.39769128,1.517853,1.0302432,0.10825742,-0.21491694
1747679430.8095336,0.1939645,0.39769128,1.517853,1.0302432,0.10825742,-0.21491694
1747679430.8100517,0.1939645,0.39769128,1.517853,1.0302432,0.10825742,-0.21491694
1747679430.8105695,0.1939645,0.39769128,1.517853,1.0302432,0.10825742,-0.21491694
1747679430.8110874,0.1939645,0.39769128,1.517853,1.0302432,0.10825742,-0.21491694
1747679430.811605,0.1939645,0.39769128,1.517853,1.0302432,0.10825742,-0.21491694
1747679430.8121233,0.1939645,0.39769128,1.517853,1.0302432,0.10825742,-0.21491694
1747679430.8126419,0.1939645,0.39769128,1.517853,1.0302432,0.10825742,-0.21491694
1747679430.8131595,0.1939645,0.39769128,1.517853,1.0302432,0.10825742,-0.21491694
1747679430.813695,0.1939645,0.39769128,1.517853,1.0302432,0.10825742,-0.21491694
1747679430.8142617,0.1939645,0.39769128,1.517853,1.0302432,0.10825742,-0.21491694
1747679430.8148136,0.1939645,0.39769128,1.517853,1.0302432,0.10825742,-0.21491694
1747679430.8153675,0.17199935,0.41038227,1.5076026,1.0323737,0.21584904,-0.30439907
1747679430.8159177,0.17199935,0.41038227,1.5076026,1.0323737,0.21584904,-0.30439907
1747679430.81645,0.17199935,0.41038227,1.5076026,1.0323737,0.21584904,-0.30439907
1747679430.8169699,0.17199935,0.41038227,1.5076026,1.0323737,0.21584904,-0.30439907
1747679430.8174887,0.17199935,0.41038227,1.5076026,1.0323737,0.21584904,-0.30439907
1747679430.8180065,0.17199935,0.41038227,1.5076026,1.0323737,0.21584904,-0.30439907
1747679430.8185248,0.17199935,0.41038227,1.5076026,1.0323737,0.21584904,-0.30439907
1747679430.8190749,0.17199935,0.41038227,1.5076026,1.0323737,0.21584904,-0.30439907
1747679430.819595,0.17199935,0.41038227,1.5076026,1.0323737,0.21584904,-0.30439907
1747679430.8201141,0.17199935,0.41038227,1.5076026,1.0323737,0.21584904,-0.30439907
1747679430.8206325,0.17199935,0.41038227,1.5076026,1.0323737,0.21584904,-0.30439907
1747679430.821153,0.17199935,0.41038227,1.5076026,1.0323737,0.21584904,-0.30439907
1747679430.8216717,0.17199935,0.41038227,1.5076026,1.0323737,0.21584904,-0.30439907
1747679430.8222246,0.17199935,0.41038227,1.5076026,1.0323737,0.21584904,-0.30439907
1747679430.8227842,0.13099772,0.41721588,1.5666645,1.0323737,0.21584904,-0.30439907
1747679430.823333,0.13099772,0.41721588,1.5666645,1.0323737,0.21584904,-0.30439907
1747679430.8238864,0.13099772,0.41721588,1.5666645,1.0323737,0.21584904,-0.30439907
1747679430.8246398,0.13099772,0.41721588,1.5666645,1.0270473,0.2755038,-0.33742225
1747679430.8251865,0.13099772,0.41721588,1.5666645,1.0270473,0.2755038,-0.33742225
1747679430.8257198,0.13099772,0.41721588,1.5666645,1.0270473,0.2755038,-0.33742225
1747679430.8262393,0.13099772,0.41721588,1.5666645,1.0270473,0.2755038,-0.33742225
1747679430.8267574,0.13099772,0.41721588,1.5666645,1.0270473,0.2755038,-0.33742225
1747679430.8272755,0.13099772,0.41721588,1.5666645,1.0270473,0.2755038,-0.33742225
1747679430.8277934,0.13099772,0.41721588,1.5666645,1.0270473,0.2755038,-0.33742225
1747679430.8283114,0.13099772,0.41721588,1.5666645,1.0270473,0.2755038,-0.33742225
1747679430.8288326,0.13099772,0.41721588,1.5666645,1.0270473,0.2755038,-0.33742225
1747679430.829377,0.13099772,0.41721588,1.5666645,1.0270473,0.2755038,-0.33742225
1747679430.8299196,0.13099772,0.41721588,1.5666645,1.0270473,0.2755038,-0.33742225
1747679430.8304524,0.13099772,0.41721588,1.5666645,1.0270473,0.2755038,-0.33742225
1747679430.8309722,0.13099772,0.41721588,1.5666645,1.0270473,0.2755038,-0.33742225
1747679430.8314905,0.13099772,0.41721588,1.5666645,1.0270473,0.2755038,-0.33742225
1747679430.832009,0.13099772,0.41721588,1.5666645,1.0270473,0.2755038,-0.33742225
1747679430.8325274,0.13099772,0.41721588,1.5666645,1.0270473,0.2755038,-0.33742225
1747679430.8330457,0.13099772,0.41721588,1.5666645,1.0270473,0.2755038,-0.33742225
1747679430.8335662,0.13099772,0.41721588,1.5666645,1.0270473,0.2755038,-0.33742225
1747679430.8340998,0.13099772,0.41721588,1.5666645,1.0270473,0.2755038,-0.33742225
1747679430.8346355,0.13099772,0.41721588,1.5666645,1.0270473,0.2755038,-0.33742225
1747679430.8351803,0.09146046,0.39769128,1.7316471,1.0270473,0.2755038,-0.33742225
1747679430.8357017,0.09146046,0.39769128,1.7316471,1.1314431,0.32344067,-0.3629886
1747679430.8362224,0.09146046,0.39769128,1.7316471,1.1314431,0.32344067,-0.3629886
1747679430.8367412,0.09146046,0.39769128,1.7316471,1.1314431,0.32344067,-0.3629886
1747679430.8372955,0.09146046,0.39769128,1.7316471,1.1314431,0.32344067,-0.3629886
1747679430.837836,0.09146046,0.39769128,1.7316471,1.1314431,0.32344067,-0.3629886
1747679430.8383856,0.09146046,0.39769128,1.7316471,1.1314431,0.32344067,-0.3629886
1747679430.8389225,0.09146046,0.39769128,1.7316471,1.1314431,0.32344067,-0.3629886
1747679430.8394463,0.09146046,0.39769128,1.7316471,1.1314431,0.32344067,-0.3629886
1747679430.8399646,0.09146046,0.39769128,1.7316471,1.1314431,0.32344067,-0.3629886
1747679430.8404827,0.09146046,0.39769128,1.7316471,1.1314431,0.32344067,-0.3629886
1747679430.8410013,0.09146046,0.39769128,1.7316471,1.1314431,0.32344067,-0.3629886
1747679430.8415194,0.09146046,0.39769128,1.7316471,1.1314431,0.32344067,-0.3629886
1747679430.8420372,0.09146046,0.39769128,1.7316471,1.1314431,0.32344067,-0.3629886
1747679430.8425548,0.09146046,0.39769128,1.7316471,1.1314431,0.32344067,-0.3629886
1747679430.8430731,0.09146046,0.39769128,1.7316471,1.1314431,0.32344067,-0.3629886
1747679430.8435907,0.09146046,0.39769128,1.7316471,1.1314431,0.32344067,-0.3629886
1747679430.8441083,0.09146046,0.39769128,1.7316471,1.1314431,0.32344067,-0.3629886
1747679430.8446753,0.09146046,0.39769128,1.7316471,1.1314431,0.32344067,-0.3629886
1747679430.8452551,0.10366331,0.3786548,1.8434254,1.3615401,0.32024488,-0.36938018
1747679430.8458061,0.10366331,0.3786548,1.8434254,1.3615401,0.32024488,-0.36938018
1747679430.8463414,0.10366331,0.3786548,1.8434254,1.3615401,0.32024488,-0.36938018
1747679430.8468633,0.10366331,0.3786548,1.8434254,1.3615401,0.32024488,-0.36938018
1747679430.8473825,0.10366331,0.3786548,1.8434254,1.3615401,0.32024488,-0.36938018
1747679430.8479006,0.10366331,0.3786548,1.8434254,1.3615401,0.32024488,-0.36938018
1747679430.8484194,0.10366331,0.3786548,1.8434254,1.3615401,0.32024488,-0.36938018
1747679430.8489394,0.10366331,0.3786548,1.8434254,1.3615401,0.32024488,-0.36938018
1747679430.8494601,0.10366331,0.3786548,1.8434254,1.3615401,0.32024488,-0.36938018
1747679430.8499804,0.10366331,0.3786548,1.8434254,1.3615401,0.32024488,-0.36938018
1747679430.8505008,0.10366331,0.3786548,1.8434254,1.3615401,0.32024488,-0.36938018
1747679430.8510199,0.1197711,0.3644995,1.8688073,1.7429044,0.3372891,-0.40559912
1747679430.8515382,0.1197711,0.3644995,1.8688073,1.7429044,0.3372891,-0.40559912
1747679430.8520563,0.1197711,0.3644995,1.8688073,1.7429044,0.3372891,-0.40559912
1747679430.8526132,0.1197711,0.3644995,1.8688073,1.7429044,0.3372891,-0.40559912
1747679430.853186,0.1197711,0.3644995,1.8688073,1.7429044,0.3372891,-0.40559912
1747679430.8537421,0.1197711,0.3644995,1.8688073,1.7429044,0.3372891,-0.40559912
1747679430.854306,0.1197711,0.3644995,1.8688073,1.7429044,0.3372891,-0.40559912
1747679430.8548534,0.1197711,0.3644995,1.8688073,1.7429044,0.3372891,-0.40559912
1747679430.855388,0.1197711,0.3644995,1.8688073,1.7429044,0.3372891,-0.40559912
1747679430.8559086,0.1197711,0.3644995,1.8688073,1.7429044,0.3372891,-0.40559912
1747679430.8564265,0.1197711,0.3644995,1.8688073,1.7429044,0.3372891,-0.40559912
1747679430.8569446,0.1197711,0.3644995,1.8688073,1.7429044,0.3372891,-0.40559912
1747679430.8574634,0.1197711,0.3644995,1.8688073,1.7429044,0.3372891,-0.40559912
1747679430.8579812,0.1197711,0.3644995,1.8688073,1.7429044,0.3372891,-0.40559912
1747679430.8584995,0.1197711,0.3644995,1.8688073,1.7429044,0.3372891,-0.40559912
1747679430.8590176,0.1197711,0.3644995,1.8688073,1.7429044,0.3372891,-0.40559912
1747679430.859536,0.1197711,0.3644995,1.8688073,1.7429044,0.3372891,-0.40559912
1747679430.8600545,0.1197711,0.3644995,1.8688073,1.7429044,0.3372891,-0.40559912
1747679430.860578,0.1197711,0.3644995,1.8688073,1.7429044,0.3372891,-0.40559912
1747679430.861138,0.11635429,0.3649876,1.7638626,1.7429044,0.3372891,-0.40559912
1747679430.8616822,0.11635429,0.3649876,1.7638626,2.040113,0.3607249,-0.44607913
1747679430.862208,0.11635429,0.3649876,1.7638626,2.040113,0.3607249,-0.44607913
1747679430.862727,0.11635429,0.3649876,1.7638626,2.040113,0.3607249,-0.44607913
1747679430.863245,0.11635429,0.3649876,1.7638626,2.040113,0.3607249,-0.44607913
1747679430.8637626,0.11635429,0.3649876,1.7638626,2.040113,0.3607249,-0.44607913
1747679430.864315,0.11635429,0.3649876,1.7638626,2.040113,0.3607249,-0.44607913
1747679430.864877,0.11635429,0.3649876,1.7638626,2.040113,0.3607249,-0.44607913
1747679430.865398,0.11635429,0.3649876,1.7638626,2.040113,0.3607249,-0.44607913
1747679430.8659167,0.11635429,0.3649876,1.7638626,2.040113,0.3607249,-0.44607913
1747679430.866435,0.11635429,0.3649876,1.7638626,2.040113,0.3607249,-0.44607913
1747679430.8669562,0.11635429,0.3649876,1.7638626,2.040113,0.3607249,-0.44607913
1747679430.8674772,0.11635429,0.3649876,1.7638626,2.040113,0.3607249,-0.44607913
1747679430.8680074,0.11635429,0.3649876,1.7638626,2.040113,0.3607249,-0.44607913
1747679430.8685424,0.11635429,0.3649876,1.7638626,2.040113,0.3607249,-0.44607913
1747679430.869071,0.11635429,0.3649876,1.7638626,2.040113,0.3607249,-0.44607913
1747679430.869593,0.11635429,0.3649876,1.7638626,2.040113,0.3607249,-0.44607913
1747679430.8701136,0.11635429,0.3649876,1.7638626,2.040113,0.3607249,-0.44607913
1747679430.8706374,0.10268708,0.3747499,1.6579418,2.1988373,0.3522028,-0.4801676
1747679430.8711586,0.10268708,0.3747499,1.6579418,2.1988373,0.3522028,-0.4801676
1747679430.8716836,0.10268708,0.3747499,1.6579418,2.1988373,0.3522028,-0.4801676
1747679430.8722043,0.10268708,0.3747499,1.6579418,2.1988373,0.3522028,-0.4801676
1747679430.872725,0.10268708,0.3747499,1.6579418,2.1988373,0.3522028,-0.4801676
1747679430.873246,0.10268708,0.3747499,1.6579418,2.1988373,0.3522028,-0.4801676
1747679430.8737967,0.10268708,0.3747499,1.6579418,2.1988373,0.3522028,-0.4801676
1747679430.8743653,0.10268708,0.3747499,1.6579418,2.1988373,0.3522028,-0.4801676
1747679430.8748875,0.10268708,0.3747499,1.6579418,2.1988373,0.3522028,-0.4801676
1747679430.87541,0.10268708,0.3747499,1.6579418,2.1988373,0.3522028,-0.4801676
1747679430.875962,0.10268708,0.3747499,1.6579418,2.1988373,0.3522028,-0.4801676
1747679430.8765106,0.10268708,0.3747499,1.6579418,2.1988373,0.3522028,-0.4801676
1747679430.8770466,0.10268708,0.3747499,1.6579418,2.1988373,0.3522028,-0.4801676
1747679430.8775682,0.10268708,0.3747499,1.6579418,2.1988373,0.3522028,-0.4801676
1747679430.878089,0.10268708,0.3747499,1.6579418,2.1988373,0.3522028,-0.4801676
1747679430.8786094,0.10268708,0.3747499,1.6579418,2.1988373,0.3522028,-0.4801676
1747679430.8791301,0.10268708,0.3747499,1.6579418,2.1988373,0.3522028,-0.4801676
1747679430.8796513,0.10268708,0.3747499,1.6579418,2.1988373,0.3522028,-0.4801676
1747679430.8801718,0.10268708,0.3747499,1.6579418,2.1988373,0.3522028,-0.4801676
1747679430.8806922,0.10268708,0.3747499,1.6579418,2.1988373,0.3522028,-0.4801676
1747679430.881213,0.10268708,0.3747499,1.6579418,2.1988373,0.3522028,-0.4801676
1747679430.8817337,0.10268708,0.3747499,1.6579418,2.1988373,0.3522028,-0.4801676
1747679430.8822577,0.08462685,0.3874409,1.5695932,2.322408,0.2669817,-0.52171284
1747679430.882765,0.08462685,0.3874409,1.5695932,2.322408,0.2669817,-0.52171284
1747679430.8833203,0.08462685,0.3874409,1.5695932,2.322408,0.2669817,-0.52171284
1747679430.883891,0.08462685,0.3874409,1.5695932,2.322408,0.2669817,-0.52171284
1747679430.884437,0.08462685,0.3874409,1.5695932,2.322408,0.2669817,-0.52171284
1747679430.8849697,0.08462685,0.3874409,1.5695932,2.322408,0.2669817,-0.52171284
1747679430.8854897,0.08462685,0.3874409,1.5695932,2.322408,0.2669817,-0.52171284
1747679430.8860078,0.08462685,0.3874409,1.5695932,2.322408,0.2669817,-0.52171284
1747679430.8865263,0.08462685,0.3874409,1.5695932,2.322408,0.2669817,-0.52171284
1747679430.8870447,0.08462685,0.3874409,1.5695932,2.322408,0.2669817,-0.52171284
1747679430.8875628,0.08462685,0.3874409,1.5695932,2.322408,0.2669817,-0.52171284
1747679430.8880808,0.08462685,0.3874409,1.5695932,2.322408,0.2669817,-0.52171284
1747679430.8885987,0.08462685,0.3874409,1.5695932,2.322408,0.2669817,-0.52171284
1747679430.8891172,0.08462685,0.3874409,1.5695932,2.322408,0.2669817,-0.52171284
1747679430.889635,0.08462685,0.3874409,1.5695932,2.322408,0.2669817,-0.52171284
1747679430.8901527,0.08462685,0.3874409,1.5695932,2.322408,0.2669817,-0.52171284
1747679430.890671,0.08462685,0.3874409,1.5695932,2.322408,0.2669817,-0.52171284
1747679430.8911927,0.087067425,0.38695276,1.5442113,2.322408,0.2669817,-0.52171284
1747679430.891739,0.087067425,0.38695276,1.5442113,2.322408,0.2669817,-0.52171284
1747679430.8922825,0.087067425,0.38695276,1.5442113,2.3980417,0.19241324,-0.5526055
1747679430.8928137,0.087067425,0.38695276,1.5442113,2.3980417,0.19241324,-0.5526055
1747679430.893333,0.087067425,0.38695276,1.5442113,2.3980417,0.19241324,-0.5526055
1747679430.8938513,0.087067425,0.38695276,1.5442113,2.3980417,0.19241324,-0.5526055
1747679430.894404,0.087067425,0.38695276,1.5442113,2.3980417,0.19241324,-0.5526055
1747679430.8949358,0.087067425,0.38695276,1.5442113,2.3980417,0.19241324,-0.5526055
1747679430.895456,0.087067425,0.38695276,1.5442113,2.3980417,0.19241324,-0.5526055
1747679430.8959744,0.087067425,0.38695276,1.5442113,2.3980417,0.19241324,-0.5526055
1747679430.896493,0.087067425,0.38695276,1.5442113,2.3980417,0.19241324,-0.5526055
1747679430.8970113,0.087067425,0.38695276,1.5442113,2.3980417,0.19241324,-0.5526055
1747679430.8975296,0.087067425,0.38695276,1.5442113,2.3980417,0.19241324,-0.5526055
1747679430.8980477,0.087067425,0.38695276,1.5442113,2.3980417,0.19241324,-0.5526055
1747679430.898598,0.087067425,0.38695276,1.5442113,2.3980417,0.19241324,-0.5526055
1747679430.8991275,0.087067425,0.38695276,1.5442113,2.3980417,0.19241324,-0.5526055
1747679430.899651,0.087067425,0.38695276,1.5442113,2.3980417,0.19241324,-0.5526055
1747679430.9001925,0.087067425,0.38695276,1.5442113,2.3980417,0.19241324,-0.5526055
1747679430.9007633,0.087067425,0.38695276,1.5442113,2.3980417,0.19241324,-0.5526055
1747679430.901326,0.087067425,0.38695276,1.5442113,2.3980417,0.19241324,-0.5526055
1747679430.9018548,0.087067425,0.38695276,1.5442113,2.3980417,0.19241324,-0.5526055
1747679430.9023745,0.087067425,0.38695276,1.5442113,2.3980417,0.19241324,-0.5526055
1747679430.9028952,0.087067425,0.38695276,1.5442113,2.3980417,0.19241324,-0.5526055
1747679430.9034164,0.087067425,0.38695276,1.5442113,2.49285,0.16897744,-0.58030236
1747679430.9039679,0.10366331,0.36986876,1.5149243,2.49285,0.16897744,-0.58030236
1747679430.9044998,0.10366331,0.36986876,1.5149243,2.49285,0.16897744,-0.58030236
1747679430.9050193,0.10366331,0.36986876,1.5149243,2.49285,0.16897744,-0.58030236
1747679430.905538,0.10366331,0.36986876,1.5149243,2.49285,0.16897744,-0.58030236
1747679430.9060564,0.10366331,0.36986876,1.5149243,2.49285,0.16897744,-0.58030236
1747679430.9065745,0.10366331,0.36986876,1.5149243,2.49285,0.16897744,-0.58030236
1747679430.9070947,0.10366331,0.36986876,1.5149243,2.49285,0.16897744,-0.58030236
1747679430.9076548,0.10366331,0.36986876,1.5149243,2.49285,0.16897744,-0.58030236
1747679430.9083018,0.10366331,0.36986876,1.5149243,2.49285,0.16897744,-0.58030236
1747679430.908843,0.10366331,0.36986876,1.5149243,2.49285,0.16897744,-0.58030236
1747679430.9093754,0.10366331,0.36986876,1.5149243,2.49285,0.16897744,-0.58030236
1747679430.909895,0.10366331,0.36986876,1.5149243,2.49285,0.16897744,-0.58030236
1747679430.910413,0.10366331,0.36986876,1.5149243,2.49285,0.16897744,-0.58030236
1747679430.9109313,0.10366331,0.36986876,1.5149243,2.49285,0.16897744,-0.58030236
1747679430.91145,0.10366331,0.36986876,1.5149243,2.49285,0.16897744,-0.58030236
1747679430.911968,0.10366331,0.36986876,1.5149243,2.49285,0.16897744,-0.58030236
1747679430.912486,0.10366331,0.36986876,1.5149243,2.49285,0.16897744,-0.58030236
1747679430.9130044,0.10366331,0.36986876,1.5149243,2.49285,0.16897744,-0.58030236
1747679430.9135225,0.10366331,0.36986876,1.5149243,2.49285,0.16897744,-0.58030236
1747679430.9140756,0.13978378,0.3620589,1.4568387,2.55357,0.19560903,-0.6122603
1747679430.9146464,0.13978378,0.3620589,1.4568387,2.55357,0.19560903,-0.6122603
1747679430.9152129,0.13978378,0.3620589,1.4568387,2.55357,0.19560903,-0.6122603
1747679430.9157767,0.13978378,0.3620589,1.4568387,2.55357,0.19560903,-0.6122603
1747679430.9163272,0.13978378,0.3620589,1.4568387,2.55357,0.19560903,-0.6122603
1747679430.9168599,0.13978378,0.3620589,1.4568387,2.55357,0.19560903,-0.6122603
1747679430.91738,0.13978378,0.3620589,1.4568387,2.55357,0.19560903,-0.6122603
1747679430.9178984,0.13978378,0.3620589,1.4568387,2.55357,0.19560903,-0.6122603
1747679430.918417,0.13978378,0.3620589,1.4568387,2.55357,0.19560903,-0.6122603
1747679430.9189348,0.13978378,0.3620589,1.4568387,2.55357,0.19560903,-0.6122603
1747679430.9194527,0.13978378,0.3620589,1.4568387,2.55357,0.19560903,-0.6122603
1747679430.919971,0.13978378,0.3620589,1.4568387,2.55357,0.19560903,-0.6122603
1747679430.9204898,0.13978378,0.3620589,1.4568387,2.55357,0.19560903,-0.6122603
1747679430.9210079,0.13978378,0.3620589,1.4568387,2.55357,0.19560903,-0.6122603
1747679430.9215255,0.13978378,0.3620589,1.4568387,2.55357,0.19560903,-0.6122603
1747679430.9220433,0.13978378,0.3620589,1.4568387,2.55357,0.19560903,-0.6122603
1747679430.9225612,0.13978378,0.3620589,1.4568387,2.55357,0.19560903,-0.6122603
1747679430.9230828,0.13978378,0.3620589,1.4568387,2.55357,0.19560903,-0.6122603
1747679430.9236498,0.13978378,0.3620589,1.4568387,2.55357,0.19560903,-0.6122603
1747679430.924205,0.13978378,0.3620589,1.4568387,2.55357,0.19560903,-0.6122603
1747679430.9247806,0.13978378,0.3620589,1.4568387,2.5674186,0.24780695,-0.6442182
1747679430.925455,0.15442722,0.35522532,1.4436597,2.5674186,0.24780695,-0.6442182
1747679430.9260077,0.15442722,0.35522532,1.4436597,2.5674186,0.24780695,-0.6442182
1747679430.926539,0.15442722,0.35522532,1.4436597,2.5674186,0.24780695,-0.6442182
1747679430.9270668,0.15442722,0.35522532,1.4436597,2.5674186,0.24780695,-0.6442182
1747679430.92759,0.15442722,0.35522532,1.4436597,2.5674186,0.24780695,-0.6442182
1747679430.9281154,0.15442722,0.35522532,1.4436597,2.5674186,0.24780695,-0.6442182
1747679430.9286385,0.15442722,0.35522532,1.4436597,2.5674186,0.24780695,-0.6442182
1747679430.929161,0.15442722,0.35522532,1.4436597,2.5674186,0.24780695,-0.6442182
1747679430.9297101,0.15442722,0.35522532,1.4436597,2.5674186,0.24780695,-0.6442182
1747679430.93027,0.15442722,0.35522532,1.4436597,2.5674186,0.24780695,-0.6442182
1747679430.9308326,0.15442722,0.35522532,1.4436597,2.5674186,0.24780695,-0.6442182
1747679430.931387,0.15442722,0.35522532,1.4436597,2.5674186,0.24780695,-0.6442182
1747679430.9319348,0.15442722,0.35522532,1.4436597,2.5674186,0.24780695,-0.6442182
1747679430.9324844,0.15442722,0.35522532,1.4436597,2.5674186,0.24780695,-0.6442182
1747679430.9330301,0.15442722,0.35522532,1.4436597,2.5674186,0.24780695,-0.6442182
1747679430.9335873,0.15442722,0.35522532,1.4436597,2.5674186,0.24780695,-0.6442182
1747679430.9341402,0.15442722,0.35522532,1.4436597,2.5674186,0.24780695,-0.6442182
1747679430.93469,0.15442722,0.35522532,1.4436597,2.5674186,0.24780695,-0.6442182
1747679430.935241,0.15442722,0.35522532,1.4436597,2.5674186,0.24780695,-0.6442182
1747679430.935797,0.15442722,0.35522532,1.4436597,2.5674186,0.24780695,-0.6442182
1747679430.936352,0.15442722,0.35522532,1.4436597,2.5674186,0.24780695,-0.6442182
1747679430.936896,0.14124812,0.34107003,1.4500052,2.5674186,0.24780695,-0.6442182
1747679430.9374447,0.14124812,0.34107003,1.4500052,2.6398566,0.42464072,-0.6974814
1747679430.9379742,0.14124812,0.34107003,1.4500052,2.6398566,0.42464072,-0.6974814
1747679430.9385257,0.14124812,0.34107003,1.4500052,2.6398566,0.42464072,-0.6974814
1747679430.939076,0.14124812,0.34107003,1.4500052,2.6398566,0.42464072,-0.6974814
1747679430.9396124,0.14124812,0.34107003,1.4500052,2.6398566,0.42464072,-0.6974814
1747679430.9401357,0.14124812,0.34107003,1.4500052,2.6398566,0.42464072,-0.6974814
1747679430.9406576,0.14124812,0.34107003,1.4500052,2.6398566,0.42464072,-0.6974814
1747679430.941179,0.14124812,0.34107003,1.4500052,2.6398566,0.42464072,-0.6974814
1747679430.9417157,0.14124812,0.34107003,1.4500052,2.6398566,0.42464072,-0.6974814
1747679430.9422498,0.14124812,0.34107003,1.4500052,2.6398566,0.42464072,-0.6974814
1747679430.9427686,0.14124812,0.34107003,1.4500052,2.6398566,0.42464072,-0.6974814
1747679430.9432871,0.14124812,0.34107003,1.4500052,2.6398566,0.42464072,-0.6974814
1747679430.9438136,0.14124812,0.34107003,1.4500052,2.6398566,0.42464072,-0.6974814
1747679430.9443536,0.14124812,0.34107003,1.4500052,2.6398566,0.42464072,-0.6974814
1747679430.9449003,0.14124812,0.34107003,1.4500052,2.6398566,0.42464072,-0.6974814
1747679430.945437,0.14124812,0.34107003,1.4500052,2.6398566,0.42464072,-0.6974814
1747679430.9459593,0.14124812,0.34107003,1.4500052,2.6398566,0.42464072,-0.6974814
1747679430.9465053,0.14124812,0.34107003,1.4500052,2.6398566,0.42464072,-0.6974814
1747679430.9470782,0.14564116,0.32154542,1.4402429,2.730404,0.55886394,-0.7145256
1747679430.9476027,0.14564116,0.32154542,1.4402429,2.730404,0.55886394,-0.7145256
1747679430.948121,0.14564116,0.32154542,1.4402429,2.730404,0.55886394,-0.7145256
1747679430.9486394,0.14564116,0.32154542,1.4402429,2.730404,0.55886394,-0.7145256
1747679430.9491587,0.14564116,0.32154542,1.4402429,2.730404,0.55886394,-0.7145256
1747679430.9496768,0.14564116,0.32154542,1.4402429,2.730404,0.55886394,-0.7145256
1747679430.9501948,0.14564116,0.32154542,1.4402429,2.730404,0.55886394,-0.7145256
1747679430.9507127,0.14564116,0.32154542,1.4402429,2.730404,0.55886394,-0.7145256
1747679430.9512303,0.14564116,0.32154542,1.4402429,2.730404,0.55886394,-0.7145256
1747679430.9517481,0.14564116,0.32154542,1.4402429,2.730404,0.55886394,-0.7145256
1747679430.952266,0.14564116,0.32154542,1.4402429,2.730404,0.55886394,-0.7145256
1747679430.9527838,0.14564116,0.32154542,1.4402429,2.730404,0.55886394,-0.7145256
1747679430.9533024,0.14564116,0.32154542,1.4402429,2.730404,0.55886394,-0.7145256
1747679430.9538236,0.14564116,0.32154542,1.4402429,2.8305387,0.68136925,-0.74541825
1747679430.9543667,0.14564116,0.32154542,1.4402429,2.8305387,0.68136925,-0.74541825
1747679430.9549105,0.16760631,0.3073901,1.4192538,2.8305387,0.68136925,-0.74541825
1747679430.9554436,0.16760631,0.3073901,1.4192538,2.8305387,0.68136925,-0.74541825
1747679430.9559634,0.16760631,0.3073901,1.4192538,2.8305387,0.68136925,-0.74541825
1747679430.956482,0.16760631,0.3073901,1.4192538,2.8305387,0.68136925,-0.74541825
1747679430.9570003,0.16760631,0.3073901,1.4192538,2.8305387,0.68136925,-0.74541825
1747679430.9575183,0.16760631,0.3073901,1.4192538,2.8305387,0.68136925,-0.74541825
1747679430.958037,0.16760631,0.3073901,1.4192538,2.8305387,0.68136925,-0.74541825
1747679430.9585552,0.16760631,0.3073901,1.4192538,2.8305387,0.68136925,-0.74541825
1747679430.959101,0.16760631,0.3073901,1.4192538,2.8305387,0.68136925,-0.74541825
1747679430.959641,0.16760631,0.3073901,1.4192538,2.8305387,0.68136925,-0.74541825
1747679430.9601734,0.16760631,0.3073901,1.4192538,2.8305387,0.68136925,-0.74541825
1747679430.9607515,0.16760631,0.3073901,1.4192538,2.940261,0.7293061,-0.7795067
1747679430.9612885,0.14808173,0.29421103,1.462208,2.940261,0.7293061,-0.7795067
1747679430.9618082,0.14808173,0.29421103,1.462208,2.940261,0.7293061,-0.7795067
1747679430.9623265,0.14808173,0.29421103,1.462208,2.940261,0.7293061,-0.7795067
1747679430.962845,0.14808173,0.29421103,1.462208,2.940261,0.7293061,-0.7795067
1747679430.9633636,0.14808173,0.29421103,1.462208,2.940261,0.7293061,-0.7795067
1747679430.9638944,0.14808173,0.29421103,1.462208,2.940261,0.7293061,-0.7795067
1747679430.964424,0.14808173,0.29421103,1.462208,2.940261,0.7293061,-0.7795067
1747679430.9649436,0.14808173,0.29421103,1.462208,2.940261,0.7293061,-0.7795067
1747679430.9654617,0.14808173,0.29421103,1.462208,2.940261,0.7293061,-0.7795067
1747679430.9659796,0.14808173,0.29421103,1.462208,2.940261,0.7293061,-0.7795067
1747679430.966498,0.14808173,0.29421103,1.462208,2.940261,0.7293061,-0.7795067
1747679430.9670188,0.14808173,0.29421103,1.462208,2.940261,0.7293061,-0.7795067
1747679430.9675398,0.14808173,0.29421103,1.462208,2.940261,0.7293061,-0.7795067
1747679430.9680605,0.14808173,0.29421103,1.462208,2.940261,0.7293061,-0.7795067
1747679430.9685812,0.14808173,0.29421103,1.462208,2.940261,0.7293061,-0.7795067
1747679430.969102,0.14808173,0.29421103,1.462208,2.940261,0.7293061,-0.7795067
1747679430.9696248,0.14808173,0.29421103,1.462208,2.940261,0.7293061,-0.7795067
1747679430.9701793,0.14808173,0.29421103,1.462208,2.940261,0.7293061,-0.7795067
1747679430.9707272,0.12855715,0.26590037,1.4636724,2.940261,0.7293061,-0.7795067
1747679430.971263,0.12855715,0.26590037,1.4636724,2.940261,0.7293061,-0.7795067
1747679430.9717858,0.12855715,0.26590037,1.4636724,3.1501176,0.741024,-0.79655087
1747679430.9723105,0.12855715,0.26590037,1.4636724,3.1501176,0.741024,-0.79655087
1747679430.9728343,0.12855715,0.26590037,1.4636724,3.1501176,0.741024,-0.79655087
1747679430.9733558,0.12855715,0.26590037,1.4636724,3.1501176,0.741024,-0.79655087
1747679430.973877,0.12855715,0.26590037,1.4636724,3.1501176,0.741024,-0.79655087
1747679430.974434,0.12855715,0.26590037,1.4636724,3.1501176,0.741024,-0.79655087
1747679430.97499,0.12855715,0.26590037,1.4636724,3.1501176,0.741024,-0.79655087
1747679430.9755223,0.12855715,0.26590037,1.4636724,3.1501176,0.741024,-0.79655087
1747679430.9760575,0.12855715,0.26590037,1.4636724,3.1501176,0.741024,-0.79655087
1747679430.9765935,0.12855715,0.26590037,1.4636724,3.1501176,0.741024,-0.79655087
1747679430.9771152,0.12855715,0.26590037,1.4636724,3.1501176,0.741024,-0.79655087
1747679430.977636,0.12855715,0.26590037,1.4636724,3.1501176,0.741024,-0.79655087
1747679430.978157,0.12855715,0.26590037,1.4636724,3.1501176,0.741024,-0.79655087
1747679430.978678,0.12855715,0.26590037,1.4636724,3.1501176,0.741024,-0.79655087
1747679430.9791985,0.12855715,0.26590037,1.4636724,3.1501176,0.741024,-0.79655087
1747679430.9797559,0.10610388,0.2229463,1.3694663,3.1501176,0.741024,-0.79655087
1747679430.9802794,0.10610388,0.2229463,1.3694663,3.1501176,0.741024,-0.79655087
1747679430.980801,0.10610388,0.2229463,1.3694663,3.1501176,0.741024,-0.79655087
1747679430.9813259,0.10610388,0.2229463,1.3694663,3.1501176,0.741024,-0.79655087
1747679430.9818497,0.10610388,0.2229463,1.3694663,3.1501176,0.741024,-0.79655087
1747679430.9823744,0.10610388,0.2229463,1.3694663,3.4036505,0.7356977,-0.7997467
1747679430.9828813,0.10610388,0.2229463,1.3694663,3.4036505,0.7356977,-0.7997467
1747679430.9834,0.10610388,0.2229463,1.3694663,3.4036505,0.7356977,-0.7997467
1747679430.983932,0.10610388,0.2229463,1.3694663,3.4036505,0.7356977,-0.7997467
1747679430.9844625,0.10610388,0.2229463,1.3694663,3.4036505,0.7356977,-0.7997467
1747679430.9849827,0.10610388,0.2229463,1.3694663,3.4036505,0.7356977,-0.7997467
1747679430.9855034,0.10610388,0.2229463,1.3694663,3.4036505,0.7356977,-0.7997467
1747679430.986052,0.10610388,0.2229463,1.3694663,3.4036505,0.7356977,-0.7997467
1747679430.9865987,0.10610388,0.2229463,1.3694663,3.4036505,0.7356977,-0.7997467
1747679430.9871314,0.10610388,0.2229463,1.3694663,3.4036505,0.7356977,-0.7997467
1747679430.9876516,0.10610388,0.2229463,1.3694663,3.4036505,0.7356977,-0.7997467
1747679430.9881704,0.10610388,0.2229463,1.3694663,3.4036505,0.7356977,-0.7997467
1747679430.988689,0.10610388,0.2229463,1.3694663,3.4036505,0.7356977,-0.7997467
1747679430.9892452,0.10610388,0.2229463,1.3694663,3.4036505,0.7356977,-0.7997467
1747679430.9897945,0.10610388,0.2229463,1.3694663,3.4036505,0.7356977,-0.7997467
1747679430.9903483,0.10610388,0.2229463,1.3694663,3.4036505,0.7356977,-0.7997467
1747679430.990874,0.081698164,0.20390983,1.2547593,3.4036505,0.7356977,-0.7997467
1747679430.9913936,0.081698164,0.20390983,1.2547593,3.4036505,0.7356977,-0.7997467
1747679430.9919124,0.081698164,0.20390983,1.2547593,3.579419,0.7325019,-0.7933551
1747679430.9924316,0.081698164,0.20390983,1.2547593,3.579419,0.7325019,-0.7933551
1747679430.9929502,0.081698164,0.20390983,1.2547593,3.579419,0.7325019,-0.7933551
1747679430.993468,0.081698164,0.20390983,1.2547593,3.579419,0.7325019,-0.7933551
1747679430.994003,0.081698164,0.20390983,1.2547593,3.579419,0.7325019,-0.7933551
1747679430.9945345,0.081698164,0.20390983,1.2547593,3.579419,0.7325019,-0.7933551
1747679430.9950545,0.081698164,0.20390983,1.2547593,3.579419,0.7325019,-0.7933551
1747679430.9955733,0.081698164,0.20390983,1.2547593,3.579419,0.7325019,-0.7933551
1747679430.9960911,0.081698164,0.20390983,1.2547593,3.579419,0.7325019,-0.7933551
1747679430.9966092,0.081698164,0.20390983,1.2547593,3.579419,0.7325019,-0.7933551
1747679430.9971275,0.081698164,0.20390983,1.2547593,3.579419,0.7325019,-0.7933551
1747679430.9976454,0.081698164,0.20390983,1.2547593,3.579419,0.7325019,-0.7933551
1747679430.9981632,0.081698164,0.20390983,1.2547593,3.579419,0.7325019,-0.7933551
1747679430.998681,0.081698164,0.20390983,1.2547593,3.579419,0.7325019,-0.7933551
1747679430.9991987,0.081698164,0.20390983,1.2547593,3.579419,0.7325019,-0.7933551
1747679430.9997168,0.081698164,0.20390983,1.2547593,3.579419,0.7325019,-0.7933551
1747679431.000235,0.081698164,0.20390983,1.2547593,3.579419,0.7325019,-0.7933551
1747679431.000753,0.081698164,0.20390983,1.2547593,3.579419,0.7325019,-0.7933551
1747679431.0012734,0.081698164,0.20390983,1.2547593,3.7349474,0.7154577,-0.7667235
1747679431.0018225,0.081698164,0.20390983,1.2547593,3.7349474,0.7154577,-0.7667235
1747679431.0023978,0.07340022,0.21220776,1.0658591,3.7349474,0.7154577,-0.7667235
1747679431.0029373,0.07340022,0.21220776,1.0658591,3.7349474,0.7154577,-0.7667235
1747679431.0034697,0.07340022,0.21220776,1.0658591,3.7349474,0.7154577,-0.7667235
1747679431.0039895,0.07340022,0.21220776,1.0658591,3.7349474,0.7154577,-0.7667235
1747679431.0045166,0.07340022,0.21220776,1.0658591,3.7349474,0.7154577,-0.7667235
1747679431.0050733,0.07340022,0.21220776,1.0658591,3.7349474,0.7154577,-0.7667235
1747679431.0056238,0.07340022,0.21220776,1.0658591,3.7349474,0.7154577,-0.7667235
1747679431.006152,0.07340022,0.21220776,1.0658591,3.7349474,0.7154577,-0.7667235
1747679431.0066833,0.07340022,0.21220776,1.0658591,3.7349474,0.7154577,-0.7667235
1747679431.0072162,0.07340022,0.21220776,1.0658591,3.7349474,0.7154577,-0.7667235
1747679431.0077353,0.07340022,0.21220776,1.0658591,3.7349474,0.7154577,-0.7667235
1747679431.0082538,0.07340022,0.21220776,1.0658591,3.7349474,0.7154577,-0.7667235
1747679431.0087721,0.07340022,0.21220776,1.0658591,3.7349474,0.7154577,-0.7667235
1747679431.0092902,0.07340022,0.21220776,1.0658591,3.7349474,0.7154577,-0.7667235
1747679431.0098085,0.07340022,0.21220776,1.0658591,3.7349474,0.7154577,-0.7667235
1747679431.0103269,0.07340022,0.21220776,1.0658591,3.7349474,0.7154577,-0.7667235
1747679431.0108447,0.07340022,0.21220776,1.0658591,3.7349474,0.7154577,-0.7667235
1747679431.011363,0.07340022,0.21220776,1.0658591,3.7626443,0.7335672,-0.74541825
1747679431.0118816,0.07340022,0.21220776,1.0658591,3.7626443,0.7335672,-0.74541825
1747679431.0124002,0.07340022,0.21220776,1.0658591,3.7626443,0.7335672,-0.74541825
1747679431.0129185,0.06314981,0.21708892,0.95066404,3.7626443,0.7335672,-0.74541825
1747679431.0134373,0.06314981,0.21708892,0.95066404,3.7626443,0.7335672,-0.74541825
1747679431.0139744,0.06314981,0.21708892,0.95066404,3.7626443,0.7335672,-0.74541825
1747679431.014506,0.06314981,0.21708892,0.95066404,3.7626443,0.7335672,-0.74541825
1747679431.0150263,0.06314981,0.21708892,0.95066404,3.7626443,0.7335672,-0.74541825
1747679431.0155447,0.06314981,0.21708892,0.95066404,3.7626443,0.7335672,-0.74541825
1747679431.0160651,0.06314981,0.21708892,0.95066404,3.7626443,0.7335672,-0.74541825
1747679431.0166125,0.06314981,0.21708892,0.95066404,3.7626443,0.7335672,-0.74541825
1747679431.017159,0.06314981,0.21708892,0.95066404,3.7626443,0.7335672,-0.74541825
1747679431.017692,0.06314981,0.21708892,0.95066404,3.7626443,0.7335672,-0.74541825
1747679431.0182114,0.06314981,0.21708892,0.95066404,3.7626443,0.7335672,-0.74541825
1747679431.0187294,0.06314981,0.21708892,0.95066404,3.7626443,0.7335672,-0.74541825
1747679431.0192482,0.06314981,0.21708892,0.95066404,3.7626443,0.7335672,-0.74541825
1747679431.0197666,0.06314981,0.21708892,0.95066404,3.7626443,0.7335672,-0.74541825
1747679431.0203164,0.06314981,0.21708892,0.95066404,3.7626443,0.7335672,-0.74541825
1747679431.0208695,0.06314981,0.21708892,0.95066404,3.7626443,0.7335672,-0.74541825
1747679431.021402,0.06314981,0.21708892,0.95066404,3.7626443,0.7335672,-0.74541825
1747679431.021921,0.06314981,0.21708892,0.95066404,3.7626443,0.7335672,-0.74541825
1747679431.02244,0.06314981,0.21708892,0.95066404,3.7626443,0.7335672,-0.74541825
1747679431.0229583,0.06314981,0.21708892,0.95066404,3.7626443,0.7335672,-0.74541825
1747679431.0234761,0.06314981,0.21708892,0.95066404,3.7626443,0.7335672,-0.74541825
1747679431.0239947,0.051923178,0.21074343,0.89355457,3.7626443,0.7335672,-0.74541825
1747679431.0245328,0.051923178,0.21074343,0.89355457,3.7626443,0.7335672,-0.74541825
1747679431.0250654,0.051923178,0.21074343,0.89355457,3.7605138,0.77724296,-0.72091717
1747679431.0255852,0.051923178,0.21074343,0.89355457,3.7605138,0.77724296,-0.72091717
1747679431.0261035,0.051923178,0.21074343,0.89355457,3.7605138,0.77724296,-0.72091717
1747679431.0266216,0.051923178,0.21074343,0.89355457,3.7605138,0.77724296,-0.72091717
1747679431.0271397,0.051923178,0.21074343,0.89355457,3.7605138,0.77724296,-0.72091717
1747679431.0276577,0.051923178,0.21074343,0.89355457,3.7605138,0.77724296,-0.72091717
1747679431.0281754,0.051923178,0.21074343,0.89355457,3.7605138,0.77724296,-0.72091717
1747679431.0286934,0.051923178,0.21074343,0.89355457,3.7605138,0.77724296,-0.72091717
1747679431.0292113,0.051923178,0.21074343,0.89355457,3.7605138,0.77724296,-0.72091717
1747679431.0297296,0.051923178,0.21074343,0.89355457,3.7605138,0.77724296,-0.72091717
1747679431.0302472,0.051923178,0.21074343,0.89355457,3.7605138,0.77724296,-0.72091717
1747679431.0307653,0.051923178,0.21074343,0.89355457,3.7605138,0.77724296,-0.72091717
1747679431.0312831,0.051923178,0.21074343,0.89355457,3.7605138,0.77724296,-0.72091717
1747679431.0318038,0.051923178,0.21074343,0.89355457,3.7605138,0.77724296,-0.72091717
1747679431.0323527,0.051923178,0.21074343,0.89355457,3.7605138,0.77724296,-0.72091717
1747679431.0328922,0.051923178,0.21074343,0.89355457,3.7605138,0.77724296,-0.72091717
1747679431.033424,0.01726705,0.20000492,0.81838495,3.7466655,0.7910914,-0.6697845
1747679431.0339708,0.01726705,0.20000492,0.81838495,3.7466655,0.7910914,-0.6697845
1747679431.034506,0.01726705,0.20000492,0.81838495,3.7466655,0.7910914,-0.6697845
1747679431.0350373,0.01726705,0.20000492,0.81838495,3.7466655,0.7910914,-0.6697845
1747679431.0356145,0.01726705,0.20000492,0.81838495,3.7466655,0.7910914,-0.6697845
1747679431.036169,0.01726705,0.20000492,0.81838495,3.7466655,0.7910914,-0.6697845
1747679431.0367095,0.01726705,0.20000492,0.81838495,3.7466655,0.7910914,-0.6697845
1747679431.0374444,0.01726705,0.20000492,0.81838495,3.7466655,0.7910914,-0.6697845
1747679431.0379984,0.01726705,0.20000492,0.81838495,3.7466655,0.7910914,-0.6697845
1747679431.038522,0.01726705,0.20000492,0.81838495,3.7466655,0.7910914,-0.6697845
1747679431.039041,0.01726705,0.20000492,0.81838495,3.7466655,0.7910914,-0.6697845
1747679431.0395594,0.01726705,0.20000492,0.81838495,3.7466655,0.7910914,-0.6697845
1747679431.0400772,0.01726705,0.20000492,0.81838495,3.7466655,0.7910914,-0.6697845
1747679431.040596,0.01726705,0.20000492,0.81838495,3.7466655,0.7910914,-0.6697845
1747679431.0411139,0.01726705,0.20000492,0.81838495,3.7466655,0.7910914,-0.6697845
1747679431.041632,0.01726705,0.20000492,0.81838495,3.7466655,0.7910914,-0.6697845
1747679431.0421505,0.01726705,0.20000492,0.81838495,3.7466655,0.7910914,-0.6697845
1747679431.0426683,0.01726705,0.20000492,0.81838495,3.7466655,0.7910914,-0.6697845
1747679431.0431864,0.01726705,0.20000492,0.81838495,3.7466655,0.7910914,-0.6697845
1747679431.0437052,0.01726705,0.20000492,0.81838495,3.7466655,0.7910914,-0.6697845
1747679431.0443053,0.0070166457,0.21513647,0.77250224,3.7424042,0.66112924,-0.6175866
1747679431.0448458,0.0070166457,0.21513647,0.77250224,3.7424042,0.66112924,-0.6175866
1747679431.045372,0.0070166457,0.21513647,0.77250224,3.7424042,0.66112924,-0.6175866
1747679431.0458908,0.0070166457,0.21513647,0.77250224,3.7424042,0.66112924,-0.6175866
1747679431.046409,0.0070166457,0.21513647,0.77250224,3.7424042,0.66112924,-0.6175866
1747679431.0469277,0.0070166457,0.21513647,0.77250224,3.7424042,0.66112924,-0.6175866
1747679431.0474486,0.0070166457,0.21513647,0.77250224,3.7424042,0.66112924,-0.6175866
1747679431.047992,0.0070166457,0.21513647,0.77250224,3.7424042,0.66112924,-0.6175866
1747679431.0485356,0.0070166457,0.21513647,0.77250224,3.7424042,0.66112924,-0.6175866
1747679431.0490687,0.0070166457,0.21513647,0.77250224,3.7424042,0.66112924,-0.6175866
1747679431.0495882,0.0070166457,0.21513647,0.77250224,3.7424042,0.66112924,-0.6175866
1747679431.0501065,0.0070166457,0.21513647,0.77250224,3.7424042,0.66112924,-0.6175866
1747679431.0506248,0.0070166457,0.21513647,0.77250224,3.7424042,0.66112924,-0.6175866
1747679431.0511725,0.0070166457,0.21513647,0.77250224,3.7424042,0.66112924,-0.6175866
1747679431.0517278,0.0070166457,0.21513647,0.77250224,3.7424042,0.66112924,-0.6175866
1747679431.052253,0.0070166457,0.21513647,0.77250224,3.7424042,0.66112924,-0.6175866
1747679431.0527716,0.0070166457,0.21513647,0.77250224,3.7424042,0.66112924,-0.6175866
1747679431.0533156,0.0070166457,0.21513647,0.77250224,3.7424042,0.66112924,-0.6175866
1747679431.0538654,0.0070166457,0.21513647,0.77250224,3.7424042,0.66112924,-0.6175866
1747679431.0543864,0.0070166457,0.21513647,0.77250224,3.7424042,0.66112924,-0.6175866
1747679431.0549052,0.0070166457,0.21513647,0.77250224,3.744535,0.5162534,-0.5653887
1747679431.055424,-0.014948507,0.22441064,0.73979855,3.744535,0.5162534,-0.5653887
1747679431.055943,-0.014948507,0.22441064,0.73979855,3.744535,0.5162534,-0.5653887
1747679431.0564609,-0.014948507,0.22441064,0.73979855,3.744535,0.5162534,-0.5653887
1747679431.0569787,-0.014948507,0.22441064,0.73979855,3.744535,0.5162534,-0.5653887
1747679431.0574965,-0.014948507,0.22441064,0.73979855,3.744535,0.5162534,-0.5653887
1747679431.0580146,-0.014948507,0.22441064,0.73979855,3.744535,0.5162534,-0.5653887
1747679431.0585327,-0.014948507,0.22441064,0.73979855,3.744535,0.5162534,-0.5653887
1747679431.0590508,-0.014948507,0.22441064,0.73979855,3.744535,0.5162534,-0.5653887
1747679431.0595684,-0.014948507,0.22441064,0.73979855,3.744535,0.5162534,-0.5653887
1747679431.060086,-0.014948507,0.22441064,0.73979855,3.744535,0.5162534,-0.5653887
1747679431.060604,-0.014948507,0.22441064,0.73979855,3.744535,0.5162534,-0.5653887
1747679431.0611217,-0.014948507,0.22441064,0.73979855,3.744535,0.5162534,-0.5653887
1747679431.0616403,-0.014948507,0.22441064,0.73979855,3.744535,0.5162534,-0.5653887
1747679431.062158,-0.014948507,0.22441064,0.73979855,3.744535,0.5162534,-0.5653887
1747679431.062677,0.002135501,0.22489876,0.71392846,3.744535,0.5162534,-0.5653887
1747679431.0631974,0.002135501,0.22489876,0.71392846,3.744535,0.5162534,-0.5653887
1747679431.0637364,0.002135501,0.22489876,0.71392846,3.7647748,0.4512723,-0.51319075
1747679431.0642803,0.002135501,0.22489876,0.71392846,3.7647748,0.4512723,-0.51319075
1747679431.0648196,0.002135501,0.22489876,0.71392846,3.7647748,0.4512723,-0.51319075
1747679431.065351,0.002135501,0.22489876,0.71392846,3.7647748,0.4512723,-0.51319075
1747679431.065919,0.002135501,0.22489876,0.71392846,3.7647748,0.4512723,-0.51319075
1747679431.0664785,0.002135501,0.22489876,0.71392846,3.7647748,0.4512723,-0.51319075
1747679431.0670187,0.002135501,0.22489876,0.71392846,3.7647748,0.4512723,-0.51319075
1747679431.067559,0.002135501,0.22489876,0.71392846,3.7647748,0.4512723,-0.51319075
1747679431.0681124,0.002135501,0.22489876,0.71392846,3.7647748,0.4512723,-0.51319075
1747679431.0686548,0.002135501,0.22489876,0.71392846,3.7647748,0.4512723,-0.51319075
1747679431.06919,0.002135501,0.22489876,0.71392846,3.7647748,0.4512723,-0.51319075
1747679431.0697126,0.002135501,0.22489876,0.71392846,3.7647748,0.4512723,-0.51319075
1747679431.070234,0.002135501,0.22489876,0.71392846,3.7647748,0.4512723,-0.51319075
1747679431.0707562,0.02166008,0.21171965,0.6119125,3.7647748,0.4512723,-0.51319075
1747679431.0712771,0.02166008,0.21171965,0.6119125,3.7647748,0.4512723,-0.51319075
1747679431.0717988,0.02166008,0.21171965,0.6119125,3.7850149,0.49707866,-0.49295074
1747679431.0723202,0.02166008,0.21171965,0.6119125,3.7850149,0.49707866,-0.49295074
1747679431.0728414,0.02166008,0.21171965,0.6119125,3.7850149,0.49707866,-0.49295074
1747679431.0733624,0.02166008,0.21171965,0.6119125,3.7850149,0.49707866,-0.49295074
1747679431.0738974,0.02166008,0.21171965,0.6119125,3.7850149,0.49707866,-0.49295074
1747679431.0744376,0.02166008,0.21171965,0.6119125,3.7850149,0.49707866,-0.49295074
1747679431.0749605,0.02166008,0.21171965,0.6119125,3.7850149,0.49707866,-0.49295074
1747679431.0754814,0.02166008,0.21171965,0.6119125,3.7850149,0.49707866,-0.49295074
1747679431.0760024,0.02166008,0.21171965,0.6119125,3.7850149,0.49707866,-0.49295074
1747679431.076523,0.02166008,0.21171965,0.6119125,3.7850149,0.49707866,-0.49295074
1747679431.0770438,0.02166008,0.21171965,0.6119125,3.7850149,0.49707866,-0.49295074
1747679431.0775645,0.02166008,0.21171965,0.6119125,3.7850149,0.49707866,-0.49295074
1747679431.0780852,0.02166008,0.21171965,0.6119125,3.7850149,0.49707866,-0.49295074
1747679431.0786078,0.02166008,0.21171965,0.6119125,3.7850149,0.49707866,-0.49295074
1747679431.0791512,0.02166008,0.21171965,0.6119125,3.7850149,0.49707866,-0.49295074
1747679431.0797007,0.02166008,0.21171965,0.6119125,3.7850149,0.49707866,-0.49295074
1747679431.0802557,0.02166008,0.21171965,0.6119125,3.7850149,0.49707866,-0.49295074
1747679431.0807967,0.02166008,0.21171965,0.6119125,3.7850149,0.49707866,-0.49295074
1747679431.0813644,0.02166008,0.21171965,0.6119125,3.7850149,0.49707866,-0.49295074
1747679431.0819187,0.014826477,0.20732662,0.45132285,3.7189686,0.71758825,-0.47058022
1747679431.0824623,0.014826477,0.20732662,0.45132285,3.7189686,0.71758825,-0.47058022
1747679431.0829754,0.014826477,0.20732662,0.45132285,3.7189686,0.71758825,-0.47058022
1747679431.0835083,0.014826477,0.20732662,0.45132285,3.7189686,0.71758825,-0.47058022
1747679431.0840433,0.014826477,0.20732662,0.45132285,3.7189686,0.71758825,-0.47058022
1747679431.0845768,0.014826477,0.20732662,0.45132285,3.7189686,0.71758825,-0.47058022
1747679431.0851097,0.014826477,0.20732662,0.45132285,3.7189686,0.71758825,-0.47058022
1747679431.0856414,0.014826477,0.20732662,0.45132285,3.7189686,0.71758825,-0.47058022
1747679431.0861726,0.014826477,0.20732662,0.45132285,3.7189686,0.71758825,-0.47058022
1747679431.0867045,0.014826477,0.20732662,0.45132285,3.7189686,0.71758825,-0.47058022
1747679431.087236,0.014826477,0.20732662,0.45132285,3.7189686,0.71758825,-0.47058022
1747679431.087769,0.014826477,0.20732662,0.45132285,3.7189686,0.71758825,-0.47058022
1747679431.0883114,0.014826477,0.20732662,0.45132285,3.7189686,0.71758825,-0.47058022
1747679431.0889094,0.014826477,0.20732662,0.45132285,3.7189686,0.71758825,-0.47058022
1747679431.089442,0.014826477,0.20732662,0.45132285,3.7189686,0.71758825,-0.47058022
1747679431.0899615,0.014826477,0.20732662,0.45132285,3.7189686,0.71758825,-0.47058022
1747679431.09048,0.014826477,0.20732662,0.45132285,3.7189686,0.71758825,-0.47058022
1747679431.0909991,0.014826477,0.20732662,0.45132285,3.7189686,0.71758825,-0.47058022
1747679431.091518,0.0016473864,0.23563726,0.29268566,3.7189686,0.71758825,-0.47058022
1747679431.0920367,0.0016473864,0.23563726,0.29268566,3.7189686,0.71758825,-0.47058022
1747679431.092555,0.0016473864,0.23563726,0.29268566,3.5368085,0.9562073,-0.4301002
1747679431.0930738,0.0016473864,0.23563726,0.29268566,3.5368085,0.9562073,-0.4301002
1747679431.0935922,0.0016473864,0.23563726,0.29268566,3.5368085,0.9562073,-0.4301002
1747679431.094124,0.0016473864,0.23563726,0.29268566,3.5368085,0.9562073,-0.4301002
1747679431.0946548,0.0016473864,0.23563726,0.29268566,3.5368085,0.9562073,-0.4301002
1747679431.0952003,0.0016473864,0.23563726,0.29268566,3.5368085,0.9562073,-0.4301002
1747679431.0957491,0.0016473864,0.23563726,0.29268566,3.5368085,0.9562073,-0.4301002
1747679431.096318,0.0016473864,0.23563726,0.29268566,3.5368085,0.9562073,-0.4301002
1747679431.0968719,0.0016473864,0.23563726,0.29268566,3.5368085,0.9562073,-0.4301002
1747679431.0974097,0.0016473864,0.23563726,0.29268566,3.5368085,0.9562073,-0.4301002
1747679431.0979462,0.0016473864,0.23563726,0.29268566,3.5368085,0.9562073,-0.4301002
1747679431.098493,0.0016473864,0.23563726,0.29268566,3.5368085,0.9562073,-0.4301002
1747679431.0992558,0.0016473864,0.23563726,0.29268566,3.5368085,0.9562073,-0.4301002
1747679431.0998075,0.0016473864,0.23563726,0.29268566,3.5368085,0.9562073,-0.4301002
1747679431.1003392,-0.015436621,0.28835365,0.13502468,3.5368085,0.9562073,-0.4301002
1747679431.1008594,-0.015436621,0.28835365,0.13502468,3.5368085,0.9562073,-0.4301002
1747679431.1013775,-0.015436621,0.28835365,0.13502468,3.5368085,0.9562073,-0.4301002
1747679431.1018963,-0.015436621,0.28835365,0.13502468,3.5368085,0.9562073,-0.4301002
1747679431.1024146,-0.015436621,0.28835365,0.13502468,3.5368085,0.9562073,-0.4301002
1747679431.1029358,-0.015436621,0.28835365,0.13502468,3.2694273,1.1713905,-0.3917507
1747679431.103454,-0.015436621,0.28835365,0.13502468,3.2694273,1.1713905,-0.3917507
1747679431.1039722,-0.015436621,0.28835365,0.13502468,3.2694273,1.1713905,-0.3917507
1747679431.1045084,-0.015436621,0.28835365,0.13502468,3.2694273,1.1713905,-0.3917507
1747679431.105045,-0.015436621,0.28835365,0.13502468,3.2694273,1.1713905,-0.3917507
1747679431.1055648,-0.015436621,0.28835365,0.13502468,3.2694273,1.1713905,-0.3917507
1747679431.1060832,-0.015436621,0.28835365,0.13502468,3.2694273,1.1713905,-0.3917507
1747679431.1066012,-0.015436621,0.28835365,0.13502468,3.2694273,1.1713905,-0.3917507
1747679431.107119,-0.015436621,0.28835365,0.13502468,3.2694273,1.1713905,-0.3917507
1747679431.107637,-0.015436621,0.28835365,0.13502468,3.2694273,1.1713905,-0.3917507
1747679431.1081548,-0.015436621,0.28835365,0.13502468,3.2694273,1.1713905,-0.3917507
1747679431.108673,-0.015436621,0.28835365,0.13502468,3.2694273,1.1713905,-0.3917507
1747679431.1091912,-0.015436621,0.28835365,0.13502468,3.2694273,1.1713905,-0.3917507
1747679431.1097093,-0.015436621,0.28835365,0.13502468,3.2694273,1.1713905,-0.3917507
1747679431.11023,-0.015436621,0.28835365,0.13502468,3.2694273,1.1713905,-0.3917507
1747679431.1107695,-0.015436621,0.28835365,0.13502468,3.2694273,1.1713905,-0.3917507
1747679431.1113303,-0.015436621,0.28835365,0.13502468,3.2694273,1.1713905,-0.3917507
1747679431.1119413,-0.015436621,0.28835365,0.13502468,3.2694273,1.1713905,-0.3917507
1747679431.1125028,-0.015436621,0.26150733,0.054973897,2.8646271,1.036102,-0.316117
1747679431.113055,-0.015436621,0.26150733,0.054973897,2.8646271,1.036102,-0.316117
1747679431.1136,-0.015436621,0.26150733,0.054973897,2.8646271,1.036102,-0.316117
1747679431.114145,-0.015436621,0.26150733,0.054973897,2.8646271,1.036102,-0.316117
1747679431.1146798,-0.015436621,0.26150733,0.054973897,2.8646271,1.036102,-0.316117
1747679431.1152117,-0.015436621,0.26150733,0.054973897,2.8646271,1.036102,-0.316117
1747679431.11576,-0.015436621,0.26150733,0.054973897,2.8646271,1.036102,-0.316117
1747679431.1163075,-0.015436621,0.26150733,0.054973897,2.8646271,1.036102,-0.316117
1747679431.1168559,-0.015436621,0.26150733,0.054973897,2.8646271,1.036102,-0.316117
1747679431.1173954,-0.015436621,0.26150733,0.054973897,2.8646271,1.036102,-0.316117
1747679431.1179295,-0.015436621,0.26150733,0.054973897,2.8646271,1.036102,-0.316117
1747679431.1184654,-0.015436621,0.26150733,0.054973897,2.8646271,1.036102,-0.316117
1747679431.1189947,-0.015436621,0.26150733,0.054973897,2.8646271,1.036102,-0.316117
1747679431.1195135,-0.015436621,0.26150733,0.054973897,2.8646271,1.036102,-0.316117
1747679431.1200323,-0.015436621,0.26150733,0.054973897,2.8646271,1.036102,-0.316117
1747679431.1205535,-0.015436621,0.26150733,0.054973897,2.8646271,1.036102,-0.316117
1747679431.1210723,-0.015436621,0.26150733,0.054973897,2.8646271,1.036102,-0.316117
1747679431.1215925,-0.015436621,0.26150733,0.054973897,2.8646271,1.036102,-0.316117
1747679431.1221132,-0.015436621,0.26150733,0.054973897,2.8646271,1.036102,-0.316117
1747679431.122632,-0.015436621,0.26150733,0.054973897,2.8646271,1.036102,-0.316117
1747679431.12315,-0.015436621,0.26150733,0.054973897,2.8646271,1.036102,-0.316117
1747679431.1236794,-0.015436621,0.26150733,0.054973897,2.8646271,1.036102,-0.316117
1747679431.12421,-0.015436621,0.26150733,0.054973897,2.8646271,1.036102,-0.316117
1747679431.1247296,-0.015436621,0.26150733,0.054973897,2.8646271,1.036102,-0.316117
1747679431.125252,-0.015436621,0.26150733,0.054973897,2.8646271,1.036102,-0.316117
1747679431.125796,-0.042771034,0.39183393,0.10769027,2.6036375,0.3788344,-0.4098602
1747679431.1263354,-0.042771034,0.39183393,0.10769027,2.6036375,0.3788344,-0.4098602
1747679431.1269534,-0.042771034,0.39183393,0.10769027,2.6036375,0.3788344,-0.4098602
1747679431.1275187,-0.042771034,0.39183393,0.10769027,2.6036375,0.3788344,-0.4098602
1747679431.1280682,-0.042771034,0.39183393,0.10769027,2.6036375,0.3788344,-0.4098602
1747679431.1286192,-0.042771034,0.39183393,0.10769027,2.6036375,0.3788344,-0.4098602
1747679431.1291692,-0.042771034,0.39183393,0.10769027,2.6036375,0.3788344,-0.4098602
1747679431.1297312,-0.042771034,0.39183393,0.10769027,2.6036375,0.3788344,-0.4098602
1747679431.1304498,-0.042771034,0.39183393,0.10769027,2.6036375,0.3788344,-0.4098602
1747679431.1310155,-0.042771034,0.39183393,0.10769027,2.6036375,0.3788344,-0.4098602
1747679431.1315715,-0.042771034,0.39183393,0.10769027,2.6036375,0.3788344,-0.4098602
1747679431.1321304,-0.042771034,0.39183393,0.10769027,2.6036375,0.3788344,-0.4098602
1747679431.1326857,-0.23411192,0.4113585,0.12672672,2.4811323,-0.0611195,-0.40240335
1747679431.133225,-0.23411192,0.4113585,0.12672672,2.4811323,-0.0611195,-0.40240335
1747679431.133761,-0.23411192,0.4113585,0.12672672,2.4811323,-0.0611195,-0.40240335
1747679431.1343079,-0.23411192,0.4113585,0.12672672,2.4811323,-0.0611195,-0.40240335
1747679431.1348534,-0.23411192,0.4113585,0.12672672,2.4811323,-0.0611195,-0.40240335
1747679431.1353862,-0.23411192,0.4113585,0.12672672,2.4811323,-0.0611195,-0.40240335
1747679431.135905,-0.23411192,0.4113585,0.12672672,2.4811323,-0.0611195,-0.40240335
1747679431.1364236,-0.23411192,0.4113585,0.12672672,2.4811323,-0.0611195,-0.40240335
1747679431.1369421,-0.23411192,0.4113585,0.12672672,2.4811323,-0.0611195,-0.40240335
1747679431.1374598,-0.23411192,0.4113585,0.12672672,2.4811323,-0.0611195,-0.40240335
1747679431.1379778,-0.23411192,0.4113585,0.12672672,2.4811323,-0.0611195,-0.40240335
1747679431.1384962,-0.23411192,0.4113585,0.12672672,2.4811323,-0.0611195,-0.40240335
1747679431.1390142,-0.23411192,0.4113585,0.12672672,2.4811323,-0.0611195,-0.40240335
1747679431.1395323,-0.23411192,0.4113585,0.12672672,2.4811323,-0.0611195,-0.40240335
1747679431.1400502,-0.23411192,0.4113585,0.12672672,2.4811323,-0.0611195,-0.40240335
1747679431.1405683,-0.23411192,0.4113585,0.12672672,2.4811323,-0.0611195,-0.40240335
1747679431.1410866,-0.23411192,0.4113585,0.12672672,2.4811323,-0.0611195,-0.40240335
1747679431.1416075,-0.23411192,0.4113585,0.12672672,2.4811323,-0.0611195,-0.40240335
1747679431.1421673,-0.23411192,0.4113585,0.12672672,2.4811323,-0.0611195,-0.40240335
1747679431.1427217,-0.23411192,0.4113585,0.12672672,2.4811323,-0.0611195,-0.40240335
1747679431.1432586,-0.23411192,0.4113585,0.12672672,2.4811323,-0.0611195,-0.40240335
1747679431.1437995,-0.23411192,0.4113585,0.12672672,2.4811323,-0.0611195,-0.40240335
1747679431.1443484,-0.23411192,0.4113585,0.12672672,2.4811323,-0.0611195,-0.40240335
1747679431.1448762,-0.23411192,0.4113585,0.12672672,2.4811323,-0.0611195,-0.40240335
1747679431.145399,-0.23411192,0.4113585,0.12672672,2.4811323,-0.0611195,-0.40240335
1747679431.145921,-0.23411192,0.4113585,0.12672672,2.4811323,-0.0611195,-0.40240335
1747679431.1464436,-0.23411192,0.4113585,0.12672672,2.4811323,-0.0611195,-0.40240335
1747679431.1469653,-0.23411192,0.4113585,0.12672672,2.4811323,-0.0611195,-0.40240335
1747679431.1475124,-0.2741373,0.37230933,0.14381073,2.4246733,-0.44674495,-0.27883276
1747679431.148055,-0.2741373,0.37230933,0.14381073,2.4246733,-0.44674495,-0.27883276
1747679431.1485877,-0.2741373,0.37230933,0.14381073,2.4246733,-0.44674495,-0.27883276
1747679431.1491797,-0.2741373,0.37230933,0.14381073,2.4246733,-0.44674495,-0.27883276
1747679431.1497138,-0.2741373,0.37230933,0.14381073,2.4246733,-0.44674495,-0.27883276
1747679431.1502516,-0.2741373,0.37230933,0.14381073,2.4246733,-0.44674495,-0.27883276
1747679431.1507843,-0.2741373,0.37230933,0.14381073,2.4246733,-0.44674495,-0.27883276
1747679431.1513035,-0.2741373,0.37230933,0.14381073,2.4246733,-0.44674495,-0.27883276
1747679431.1518216,-0.2741373,0.37230933,0.14381073,2.4246733,-0.44674495,-0.27883276
1747679431.15234,-0.2741373,0.37230933,0.14381073,2.4246733,-0.44674495,-0.27883276
1747679431.1528578,-0.2741373,0.37230933,0.14381073,2.4246733,-0.44674495,-0.27883276
1747679431.153376,-0.2741373,0.37230933,0.14381073,2.4246733,-0.44674495,-0.27883276
1747679431.153925,-0.2741373,0.37230933,0.14381073,2.4246733,-0.44674495,-0.27883276
1747679431.1544821,-0.2741373,0.37230933,0.14381073,2.4246733,-0.44674495,-0.27883276
1747679431.1550345,-0.2741373,0.37230933,0.14381073,2.4246733,-0.44674495,-0.27883276
1747679431.1555657,-0.2741373,0.37230933,0.14381073,2.4246733,-0.44674495,-0.27883276
1747679431.1560867,-0.2741373,0.37230933,0.14381073,2.3564963,-0.8856336,-0.07430214
1747679431.1566164,-0.2741373,0.37230933,0.14381073,2.3564963,-0.8856336,-0.07430214
1747679431.1571748,-0.23704061,0.25906676,0.08816568,2.3564963,-0.8856336,-0.07430214
1747679431.157728,-0.23704061,0.25906676,0.08816568,2.3564963,-0.8856336,-0.07430214
1747679431.1582844,-0.23704061,0.25906676,0.08816568,2.3564963,-0.8856336,-0.07430214
1747679431.1588275,-0.23704061,0.25906676,0.08816568,2.3564963,-0.8856336,-0.07430214
1747679431.159359,-0.23704061,0.25906676,0.08816568,2.3564963,-0.8856336,-0.07430214
1747679431.1603692,-0.23704061,0.25906676,0.08816568,2.3564963,-0.8856336,-0.07430214
1747679431.160929,-0.23704061,0.25906676,0.08816568,2.3564963,-0.8856336,-0.07430214
1747679431.1614623,-0.23704061,0.25906676,0.08816568,2.3564963,-0.8856336,-0.07430214
1747679431.1619816,-0.23704061,0.25906676,0.08816568,2.3564963,-0.8856336,-0.07430214
1747679431.1625,-0.23704061,0.25906676,0.08816568,2.3564963,-0.8856336,-0.07430214
1747679431.1630177,-0.23704061,0.25906676,0.08816568,2.3564963,-0.8856336,-0.07430214
1747679431.1635356,-0.23704061,0.25906676,0.08816568,2.3564963,-0.8856336,-0.07430214
1747679431.1640732,-0.23704061,0.25906676,0.08816568,2.3564963,-0.8856336,-0.07430214
1747679431.1646092,-0.23704061,0.25906676,0.08816568,2.3564963,-0.8856336,-0.07430214
1747679431.1651301,-0.23704061,0.25906676,0.08816568,2.3564963,-0.8856336,-0.07430214
1747679431.1656492,-0.13648902,0.27468643,0.07010544,2.3564963,-0.8856336,-0.07430214
1747679431.1661675,-0.13648902,0.27468643,0.07010544,2.3564963,-0.8856336,-0.07430214
1747679431.1666865,-0.13648902,0.27468643,0.07010544,2.2307951,-0.7247788,0.04820318
1747679431.1672075,-0.13648902,0.27468643,0.07010544,2.2307951,-0.7247788,0.04820318
1747679431.1677287,-0.13648902,0.27468643,0.07010544,2.2307951,-0.7247788,0.04820318
1747679431.1682498,-0.13648902,0.27468643,0.07010544,2.2307951,-0.7247788,0.04820318
1747679431.1687703,-0.13648902,0.27468643,0.07010544,2.2307951,-0.7247788,0.04820318
1747679431.1692905,-0.13648902,0.27468643,0.07010544,2.2307951,-0.7247788,0.04820318
1747679431.1698117,-0.13648902,0.27468643,0.07010544,2.2307951,-0.7247788,0.04820318
1747679431.1703327,-0.13648902,0.27468643,0.07010544,2.2307951,-0.7247788,0.04820318
1747679431.1708539,0.022148196,0.38841712,0.18774104,2.2307951,-0.7247788,0.04820318
1747679431.1713755,0.022148196,0.38841712,0.18774104,2.0848541,-0.3487407,0.067377925
1747679431.1718965,0.022148196,0.38841712,0.18774104,2.0848541,-0.3487407,0.067377925
1747679431.172443,0.022148196,0.38841712,0.18774104,2.0848541,-0.3487407,0.067377925
1747679431.1730034,0.022148196,0.38841712,0.18774104,2.0848541,-0.3487407,0.067377925
1747679431.1735575,0.022148196,0.38841712,0.18774104,2.0848541,-0.3487407,0.067377925
1747679431.1740937,0.022148196,0.38841712,0.18774104,2.0848541,-0.3487407,0.067377925
1747679431.1746497,0.022148196,0.38841712,0.18774104,2.0848541,-0.3487407,0.067377925
1747679431.175193,0.022148196,0.38841712,0.18774104,2.0848541,-0.3487407,0.067377925
1747679431.175724,0.022148196,0.38841712,0.18774104,2.0848541,-0.3487407,0.067377925
1747679431.1762524,0.022148196,0.38841712,0.18774104,2.0848541,-0.3487407,0.067377925
1747679431.1767814,0.022148196,0.38841712,0.18774104,2.0848541,-0.3487407,0.067377925
1747679431.1773093,0.022148196,0.38841712,0.18774104,2.0848541,-0.3487407,0.067377925
1747679431.1778371,0.022148196,0.38841712,0.18774104,2.0848541,-0.3487407,0.067377925
1747679431.178365,0.022148196,0.38841712,0.18774104,2.0848541,-0.3487407,0.067377925
1747679431.1788929,0.022148196,0.38841712,0.18774104,2.0848541,-0.3487407,0.067377925
1747679431.1794207,0.022148196,0.38841712,0.18774104,2.0848541,-0.3487407,0.067377925
1747679431.1799536,0.022148196,0.38841712,0.18774104,2.0848541,-0.3487407,0.067377925
1747679431.1804833,0.15882026,0.45382446,0.31611514,2.035852,0.26485118,-0.0039947387
1747679431.1810114,0.15882026,0.45382446,0.31611514,2.035852,0.26485118,-0.0039947387
1747679431.181539,0.15882026,0.45382446,0.31611514,2.035852,0.26485118,-0.0039947387
1747679431.1820712,0.15882026,0.45382446,0.31611514,2.035852,0.26485118,-0.0039947387
1747679431.1825993,0.15882026,0.45382446,0.31611514,2.035852,0.26485118,-0.0039947387
1747679431.183112,0.15882026,0.45382446,0.31611514,2.035852,0.26485118,-0.0039947387
1747679431.1836398,0.15882026,0.45382446,0.31611514,2.035852,0.26485118,-0.0039947387
1747679431.184171,0.15882026,0.45382446,0.31611514,2.035852,0.26485118,-0.0039947387
1747679431.1847167,0.15882026,0.45382446,0.31611514,2.035852,0.26485118,-0.0039947387
1747679431.1852381,0.15882026,0.45382446,0.31611514,2.035852,0.26485118,-0.0039947387
1747679431.1857564,0.15882026,0.45382446,0.31611514,2.035852,0.26485118,-0.0039947387
1747679431.1862748,0.15882026,0.45382446,0.31611514,2.035852,0.26485118,-0.0039947387
1747679431.1867933,0.15882026,0.45382446,0.31611514,2.035852,0.26485118,-0.0039947387
1747679431.1873114,0.15882026,0.45382446,0.31611514,2.035852,0.26485118,-0.0039947387
1747679431.1878524,0.15882026,0.45382446,0.31611514,2.035852,0.26485118,-0.0039947387
1747679431.1884298,0.15882026,0.45382446,0.31611514,2.035852,0.26485118,-0.0039947387
1747679431.1889937,0.15882026,0.45382446,0.31611514,2.035852,0.26485118,-0.0039947387
1747679431.1895456,0.15882026,0.45382446,0.31611514,2.035852,0.26485118,-0.0039947387
1747679431.1901147,0.29939723,0.41428718,0.3512594,2.035852,0.26485118,-0.0039947387
1747679431.190654,0.29939723,0.41428718,0.3512594,2.0869846,0.9572725,-0.19361167
1747679431.1912053,0.29939723,0.41428718,0.3512594,2.0869846,0.9572725,-0.19361167
1747679431.1917567,0.29939723,0.41428718,0.3512594,2.0869846,0.9572725,-0.19361167
1747679431.1923018,0.29939723,0.41428718,0.3512594,2.0869846,0.9572725,-0.19361167
1747679431.1928422,0.29939723,0.41428718,0.3512594,2.0869846,0.9572725,-0.19361167
1747679431.1933825,0.29939723,0.41428718,0.3512594,2.0869846,0.9572725,-0.19361167
1747679431.193913,0.29939723,0.41428718,0.3512594,2.0869846,0.9572725,-0.19361167
1747679431.1944337,0.29939723,0.41428718,0.3512594,2.0869846,0.9572725,-0.19361167
1747679431.1949522,0.29939723,0.41428718,0.3512594,2.0869846,0.9572725,-0.19361167
1747679431.1954706,0.29939723,0.41428718,0.3512594,2.0869846,0.9572725,-0.19361167
1747679431.1959884,0.29939723,0.41428718,0.3512594,2.0869846,0.9572725,-0.19361167
1747679431.196507,0.29939723,0.41428718,0.3512594,2.0869846,0.9572725,-0.19361167
1747679431.197025,0.29939723,0.41428718,0.3512594,2.0869846,0.9572725,-0.19361167
1747679431.1975434,0.29939723,0.41428718,0.3512594,2.0869846,0.9572725,-0.19361167
1747679431.1980615,0.29939723,0.41428718,0.3512594,2.0869846,0.9572725,-0.19361167
1747679431.1985798,0.29939723,0.41428718,0.3512594,2.0869846,0.9572725,-0.19361167
1747679431.1990976,0.29939723,0.41428718,0.3512594,2.0869846,0.9572725,-0.19361167
1747679431.1996155,0.29939723,0.41428718,0.3512594,2.0869846,0.9572725,-0.19361167
1747679431.2001333,0.29939723,0.41428718,0.3512594,2.0869846,0.9572725,-0.19361167
1747679431.2006524,0.29939723,0.41428718,0.3512594,2.0869846,0.9572725,-0.19361167
1747679431.2011707,0.29939723,0.41428718,0.3512594,2.0869846,0.9572725,-0.19361167
1747679431.2016883,0.29939723,0.41428718,0.3512594,2.0869846,0.9572725,-0.19361167
1747679431.2022066,0.29939723,0.41428718,0.3512594,2.0869846,0.9572725,-0.19361167
1747679431.2027256,0.33795828,0.3942745,0.3659028,2.0869846,0.9572725,-0.19361167
1747679431.2032878,0.33795828,0.3942745,0.3659028,2.1466393,1.2182621,-0.39388123
1747679431.2038565,0.33795828,0.3942745,0.3659028,2.1466393,1.2182621,-0.39388123
1747679431.2044015,0.33795828,0.3942745,0.3659028,2.1466393,1.2182621,-0.39388123
1747679431.2049463,0.33795828,0.3942745,0.3659028,2.1466393,1.2182621,-0.39388123
1747679431.2054834,0.33795828,0.3942745,0.3659028,2.1466393,1.2182621,-0.39388123
1747679431.2060254,0.33795828,0.3942745,0.3659028,2.1466393,1.2182621,-0.39388123
1747679431.206565,0.33795828,0.3942745,0.3659028,2.1466393,1.2182621,-0.39388123
1747679431.2070975,0.33795828,0.3942745,0.3659028,2.1466393,1.2182621,-0.39388123
1747679431.207617,0.33795828,0.3942745,0.3659028,2.1466393,1.2182621,-0.39388123
1747679431.2081354,0.33795828,0.3942745,0.3659028,2.1466393,1.2182621,-0.39388123
1747679431.208654,0.33795828,0.3942745,0.3659028,2.1466393,1.2182621,-0.39388123
1747679431.209172,0.33795828,0.3942745,0.3659028,2.1466393,1.2182621,-0.39388123
1747679431.20969,0.33795828,0.3942745,0.3659028,2.1466393,1.2182621,-0.39388123
1747679431.2102082,0.33795828,0.3942745,0.3659028,2.1466393,1.2182621,-0.39388123
1747679431.2107263,0.33795828,0.3942745,0.3659028,2.1466393,1.2182621,-0.39388123
1747679431.2112439,0.33795828,0.3942745,0.3659028,2.1466393,1.2182621,-0.39388123
1747679431.2117622,0.33795828,0.3942745,0.3659028,2.1466393,1.2182621,-0.39388123
1747679431.2122805,0.33795828,0.3942745,0.3659028,2.1466393,1.2182621,-0.39388123
1747679431.212799,0.33795828,0.3942745,0.3659028,2.1466393,1.2182621,-0.39388123
1747679431.2133172,0.33795828,0.3942745,0.3659028,2.1466393,1.2182621,-0.39388123
1747679431.2138357,0.33795828,0.3942745,0.3659028,2.2989721,1.3120053,-0.65593606
1747679431.214368,0.33795828,0.3942745,0.3659028,2.2989721,1.3120053,-0.65593606
1747679431.2148972,0.33795828,0.3942745,0.3659028,2.2989721,1.3120053,-0.65593606
1747679431.2154176,0.33795828,0.3942745,0.3659028,2.2989721,1.3120053,-0.65593606
1747679431.215936,0.33795828,0.3942745,0.3659028,2.2989721,1.3120053,-0.65593606
1747679431.2164538,0.33795828,0.3942745,0.3659028,2.2989721,1.3120053,-0.65593606
1747679431.216972,0.33795828,0.3942745,0.3659028,2.2989721,1.3120053,-0.65593606
1747679431.2175193,0.33795828,0.3942745,0.3659028,2.2989721,1.3120053,-0.65593606
1747679431.2180378,0.33795828,0.3942745,0.3659028,2.2989721,1.3120053,-0.65593606
1747679431.2185884,0.33795828,0.3942745,0.3659028,2.2989721,1.3120053,-0.65593606
1747679431.2191472,0.33795828,0.3942745,0.3659028,2.2989721,1.3120053,-0.65593606
1747679431.219706,0.33795828,0.3942745,0.3659028,2.2989721,1.3120053,-0.65593606
1747679431.2202654,0.33795828,0.3942745,0.3659028,2.2989721,1.3120053,-0.65593606
1747679431.220811,0.33795828,0.3942745,0.3659028,2.2989721,1.3120053,-0.65593606
1747679431.221343,0.33795828,0.3942745,0.3659028,2.2989721,1.3120053,-0.65593606
1747679431.2218628,0.33795828,0.3942745,0.3659028,2.2989721,1.3120053,-0.65593606
1747679431.222381,0.33795828,0.3942745,0.3659028,2.2989721,1.3120053,-0.65593606
1747679431.2228994,0.33795828,0.3942745,0.3659028,2.2989721,1.3120053,-0.65593606
1747679431.223451,0.33795828,0.3942745,0.3659028,2.2989721,1.3120053,-0.65593606
1747679431.224006,0.33795828,0.3942745,0.3659028,2.2989721,1.3120053,-0.65593606
1747679431.2245266,0.33795828,0.3942745,0.3659028,2.2989721,1.3120053,-0.65593606
1747679431.225045,0.33795828,0.3942745,0.3659028,2.2989721,1.3120053,-0.65593606
1747679431.2255638,0.17443992,0.4250257,0.24777912,2.4214773,1.2012179,-0.8444877
1747679431.2260823,0.17443992,0.4250257,0.24777912,2.4214773,1.2012179,-0.8444877
1747679431.2266006,0.17443992,0.4250257,0.24777912,2.4214773,1.2012179,-0.8444877
1747679431.2271187,0.17443992,0.4250257,0.24777912,2.4214773,1.2012179,-0.8444877
1747679431.2276373,0.17443992,0.4250257,0.24777912,2.4214773,1.2012179,-0.8444877
1747679431.2281554,0.17443992,0.4250257,0.24777912,2.4214773,1.2012179,-0.8444877
1747679431.2286735,0.17443992,0.4250257,0.24777912,2.4214773,1.2012179,-0.8444877
1747679431.2291923,0.17443992,0.4250257,0.24777912,2.4214773,1.2012179,-0.8444877
1747679431.2297103,0.17443992,0.4250257,0.24777912,2.4214773,1.2012179,-0.8444877
1747679431.2302284,0.17443992,0.4250257,0.24777912,2.4214773,1.2012179,-0.8444877
1747679431.2307472,0.090484224,0.45040768,0.1594304,2.4214773,1.2012179,-0.8444877
1747679431.2312653,0.090484224,0.45040768,0.1594304,2.4214773,1.2012179,-0.8444877
1747679431.2317843,0.090484224,0.45040768,0.1594304,2.4619575,1.2992221,-0.93823093
1747679431.2323027,0.090484224,0.45040768,0.1594304,2.4619575,1.2992221,-0.93823093
1747679431.2328205,0.090484224,0.45040768,0.1594304,2.4619575,1.2992221,-0.93823093
1747679431.2333386,0.090484224,0.45040768,0.1594304,2.4619575,1.2992221,-0.93823093
1747679431.2339046,0.090484224,0.45040768,0.1594304,2.4619575,1.2992221,-0.93823093
1747679431.2344513,0.090484224,0.45040768,0.1594304,2.4619575,1.2992221,-0.93823093
1747679431.2349842,0.090484224,0.45040768,0.1594304,2.4619575,1.2992221,-0.93823093
1747679431.235507,0.090484224,0.45040768,0.1594304,2.4619575,1.2992221,-0.93823093
1747679431.2360523,0.090484224,0.45040768,0.1594304,2.4619575,1.2992221,-0.93823093
1747679431.236605,0.090484224,0.45040768,0.1594304,2.4619575,1.2992221,-0.93823093
1747679431.2371612,0.090484224,0.45040768,0.1594304,2.4619575,1.2992221,-0.93823093
1747679431.2376857,0.090484224,0.45040768,0.1594304,2.4619575,1.2992221,-0.93823093
1747679431.2382076,0.090484224,0.45040768,0.1594304,2.4619575,1.2992221,-0.93823093
1747679431.2387292,0.090484224,0.45040768,0.1594304,2.4619575,1.2992221,-0.93823093
1747679431.2392516,0.090484224,0.45040768,0.1594304,2.4619575,1.2992221,-0.93823093
1747679431.2397735,0.090484224,0.45040768,0.1594304,2.4619575,1.2992221,-0.93823093
1747679431.2402947,0.090484224,0.45040768,0.1594304,2.4619575,1.2992221,-0.93823093
1747679431.2408164,0.090484224,0.45040768,0.1594304,2.4619575,1.2992221,-0.93823093
1747679431.2413378,0.090484224,0.45040768,0.1594304,2.4619575,1.2992221,-0.93823093
1747679431.2418854,0.002135501,0.46016994,0.109154604,2.4566312,1.3780516,-0.9872331
1747679431.242428,0.002135501,0.46016994,0.109154604,2.4566312,1.3780516,-0.9872331
1747679431.242954,0.002135501,0.46016994,0.109154604,2.4566312,1.3780516,-0.9872331
1747679431.2434776,0.002135501,0.46016994,0.109154604,2.4566312,1.3780516,-0.9872331
1747679431.244014,0.002135501,0.46016994,0.109154604,2.4566312,1.3780516,-0.9872331
1747679431.2445455,0.002135501,0.46016994,0.109154604,2.4566312,1.3780516,-0.9872331
1747679431.2450657,0.002135501,0.46016994,0.109154604,2.4566312,1.3780516,-0.9872331
1747679431.2455847,0.002135501,0.46016994,0.109154604,2.4566312,1.3780516,-0.9872331
1747679431.2461028,0.002135501,0.46016994,0.109154604,2.4566312,1.3780516,-0.9872331
1747679431.2466211,0.002135501,0.46016994,0.109154604,2.4566312,1.3780516,-0.9872331
1747679431.247139,0.002135501,0.46016994,0.109154604,2.4566312,1.3780516,-0.9872331
1747679431.2476573,0.002135501,0.46016994,0.109154604,2.4566312,1.3780516,-0.9872331
1747679431.2481754,0.002135501,0.46016994,0.109154604,2.4566312,1.3780516,-0.9872331
1747679431.2486932,0.002135501,0.46016994,0.109154604,2.4566312,1.3780516,-0.9872331
1747679431.2493043,0.002135501,0.46016994,0.109154604,2.4566312,1.3780516,-0.9872331
1747679431.2498696,0.002135501,0.46016994,0.109154604,2.4566312,1.3780516,-0.9872331
1747679431.2504177,0.002135501,0.46016994,0.109154604,2.4566312,1.3780516,-0.9872331
1747679431.2509701,0.002135501,0.46016994,0.109154604,2.4566312,1.3780516,-0.9872331
1747679431.2528658,0.002135501,0.46016994,0.109154604,2.4566312,1.3780516,-0.9872331
1747679431.2534459,0.002135501,0.46016994,0.109154604,2.4566312,1.3780516,-0.9872331
1747679431.2539797,0.002135501,0.46016994,0.109154604,2.4566312,1.3780516,-0.9872331
1747679431.2545147,0.002135501,0.46016994,0.109154604,2.4566312,1.3780516,-0.9872331
1747679431.255047,0.002135501,0.46016994,0.109154604,2.4566312,1.3780516,-0.9872331
1747679431.2555678,0.002135501,0.46016994,0.109154604,2.4566312,1.3780516,-0.9872331
1747679431.2560863,0.002135501,0.46016994,0.109154604,2.4566312,1.3780516,-0.9872331
1747679431.2566092,0.002135501,0.46016994,0.109154604,2.4566312,1.3780516,-0.9872331
1747679431.25713,0.002135501,0.46016994,0.109154604,2.4960458,1.1000179,-1.0053426
1747679431.257649,-0.12819107,0.5094695,-0.015314593,2.4960458,1.1000179,-1.0053426
1747679431.2581673,-0.12819107,0.5094695,-0.015314593,2.4960458,1.1000179,-1.0053426
1747679431.258685,-0.12819107,0.5094695,-0.015314593,2.4960458,1.1000179,-1.0053426
1747679431.259203,-0.12819107,0.5094695,-0.015314593,2.4960458,1.1000179,-1.0053426
1747679431.2597213,-0.12819107,0.5094695,-0.015314593,2.4960458,1.1000179,-1.0053426
1747679431.2602394,-0.12819107,0.5094695,-0.015314593,2.4960458,1.1000179,-1.0053426
1747679431.2607572,-0.12819107,0.5094695,-0.015314593,2.4960458,1.1000179,-1.0053426
1747679431.261275,-0.12819107,0.5094695,-0.015314593,2.4960458,1.1000179,-1.0053426
1747679431.2617934,-0.12819107,0.5094695,-0.015314593,2.4960458,1.1000179,-1.0053426
1747679431.2623115,-0.12819107,0.5094695,-0.015314593,2.4960458,1.1000179,-1.0053426
1747679431.2628295,-0.12819107,0.5094695,-0.015314593,2.4960458,1.1000179,-1.0053426
1747679431.2633505,-0.12819107,0.5094695,-0.015314593,2.4960458,1.1000179,-1.0053426
1747679431.2638795,-0.12819107,0.5094695,-0.015314593,2.4960458,1.1000179,-1.0053426
1747679431.2644584,-0.12819107,0.5094695,-0.015314593,2.4960458,1.1000179,-1.0053426
1747679431.2649956,-0.28243527,0.55437607,-0.11098503,2.4747405,0.7623293,-0.95314467
1747679431.2655158,-0.28243527,0.55437607,-0.11098503,2.4747405,0.7623293,-0.95314467
1747679431.2660367,-0.28243527,0.55437607,-0.11098503,2.4747405,0.7623293,-0.95314467
1747679431.2665908,-0.28243527,0.55437607,-0.11098503,2.4747405,0.7623293,-0.95314467
1747679431.2671497,-0.28243527,0.55437607,-0.11098503,2.4747405,0.7623293,-0.95314467
1747679431.267686,-0.28243527,0.55437607,-0.11098503,2.4747405,0.7623293,-0.95314467
1747679431.2682076,-0.28243527,0.55437607,-0.11098503,2.4747405,0.7623293,-0.95314467
1747679431.2687283,-0.28243527,0.55437607,-0.11098503,2.4747405,0.7623293,-0.95314467
1747679431.269249,-0.28243527,0.55437607,-0.11098503,2.4747405,0.7623293,-0.95314467
1747679431.2697692,-0.28243527,0.55437607,-0.11098503,2.4747405,0.7623293,-0.95314467
1747679431.2702901,-0.28243527,0.55437607,-0.11098503,2.4747405,0.7623293,-0.95314467
1747679431.2708106,-0.28243527,0.55437607,-0.11098503,2.4747405,0.7623293,-0.95314467
1747679431.271331,-0.28243527,0.55437607,-0.11098503,2.4747405,0.7623293,-0.95314467
1747679431.2718513,-0.28243527,0.55437607,-0.11098503,2.4747405,0.7623293,-0.95314467
1747679431.272372,-0.28243527,0.55437607,-0.11098503,2.4747405,0.7623293,-0.95314467
1747679431.2728927,-0.28243527,0.55437607,-0.11098503,2.4747405,0.7623293,-0.95314467
1747679431.2734134,-0.28243527,0.55437607,-0.11098503,2.4747405,0.7623293,-0.95314467
1747679431.2739468,-0.28243527,0.55437607,-0.11098503,2.4747405,0.7623293,-0.95314467
1747679431.2744887,-0.28243527,0.55437607,-0.11098503,2.4747405,0.7623293,-0.95314467
1747679431.2750108,-0.28243527,0.55437607,-0.11098503,2.4747405,0.7623293,-0.95314467
1747679431.2755322,-0.28243527,0.55437607,-0.11098503,2.4747405,0.7623293,-0.95314467
1747679431.276053,-0.28243527,0.55437607,-0.11098503,2.4747405,0.7623293,-0.95314467
1747679431.2765744,-0.28243527,0.55437607,-0.11098503,2.4939153,0.53010184,-0.7134603
1747679431.2770963,-0.4757286,0.54070884,-0.14856985,2.4939153,0.53010184,-0.7134603
1747679431.2776175,-0.4757286,0.54070884,-0.14856985,2.4939153,0.53010184,-0.7134603
1747679431.2781382,-0.4757286,0.54070884,-0.14856985,2.4939153,0.53010184,-0.7134603
1747679431.278659,-0.4757286,0.54070884,-0.14856985,2.4939153,0.53010184,-0.7134603
1747679431.2792768,-0.4757286,0.54070884,-0.14856985,2.4939153,0.53010184,-0.7134603
1747679431.2798533,-0.4757286,0.54070884,-0.14856985,2.4939153,0.53010184,-0.7134603
1747679431.2804105,-0.4757286,0.54070884,-0.14856985,2.4939153,0.53010184,-0.7134603
1747679431.2809517,-0.4757286,0.54070884,-0.14856985,2.4939153,0.53010184,-0.7134603
1747679431.2814834,-0.4757286,0.54070884,-0.14856985,2.4939153,0.53010184,-0.7134603
1747679431.2820122,-0.4757286,0.54070884,-0.14856985,2.4939153,0.53010184,-0.7134603
1747679431.282565,-0.4757286,0.54070884,-0.14856985,2.3714101,0.45872915,-0.58243287
1747679431.2831035,-0.4757286,0.54070884,-0.14856985,2.3714101,0.45872915,-0.58243287
1747679431.2836542,-0.45425153,0.5187437,-0.37066194,2.3714101,0.45872915,-0.58243287
1747679431.284207,-0.45425153,0.5187437,-0.37066194,2.3714101,0.45872915,-0.58243287
1747679431.2847497,-0.45425153,0.5187437,-0.37066194,2.3714101,0.45872915,-0.58243287
1747679431.2852743,-0.45425153,0.5187437,-0.37066194,2.3714101,0.45872915,-0.58243287
1747679431.2857933,-0.45425153,0.5187437,-0.37066194,2.3714101,0.45872915,-0.58243287
1747679431.2863114,-0.45425153,0.5187437,-0.37066194,2.3714101,0.45872915,-0.58243287
1747679431.2868297,-0.45425153,0.5187437,-0.37066194,2.3714101,0.45872915,-0.58243287
1747679431.287348,-0.45425153,0.5187437,-0.37066194,2.3714101,0.45872915,-0.58243287
1747679431.2878656,-0.45425153,0.5187437,-0.37066194,2.3714101,0.45872915,-0.58243287
1747679431.2883832,-0.45425153,0.5187437,-0.37066194,2.3714101,0.45872915,-0.58243287
1747679431.2889013,-0.45425153,0.5187437,-0.37066194,2.3714101,0.45872915,-0.58243287
1747679431.2894192,-0.45425153,0.5187437,-0.37066194,2.3714101,0.45872915,-0.58243287
1747679431.2899375,-0.45425153,0.5187437,-0.37066194,2.3714101,0.45872915,-0.58243287
1747679431.290455,-0.45425153,0.5187437,-0.37066194,2.3714101,0.45872915,-0.58243287
1747679431.2909727,-0.45425153,0.5187437,-0.37066194,2.3714101,0.45872915,-0.58243287
1747679431.2914903,-0.45425153,0.5187437,-0.37066194,2.3714101,0.45872915,-0.58243287
1747679431.2920082,-0.45425153,0.5187437,-0.37066194,2.3714101,0.45872915,-0.58243287
1747679431.292527,-0.41666675,0.46553922,-0.5346684,2.121073,0.78469986,-0.48655918
1747679431.2930453,-0.41666675,0.46553922,-0.5346684,2.121073,0.78469986,-0.48655918
1747679431.2935731,-0.41666675,0.46553922,-0.5346684,2.121073,0.78469986,-0.48655918
1747679431.2941072,-0.41666675,0.46553922,-0.5346684,2.121073,0.78469986,-0.48655918
1747679431.2946525,-0.41666675,0.46553922,-0.5346684,2.121073,0.78469986,-0.48655918
1747679431.2952633,-0.41666675,0.46553922,-0.5346684,2.121073,0.78469986,-0.48655918
1747679431.2957962,-0.41666675,0.46553922,-0.5346684,2.121073,0.78469986,-0.48655918
1747679431.2963154,-0.41666675,0.46553922,-0.5346684,2.121073,0.78469986,-0.48655918
1747679431.2968366,-0.41666675,0.46553922,-0.5346684,2.121073,0.78469986,-0.48655918
1747679431.2973552,-0.41666675,0.46553922,-0.5346684,2.121073,0.78469986,-0.48655918
1747679431.2978754,-0.41666675,0.46553922,-0.5346684,2.121073,0.78469986,-0.48655918
1747679431.298407,-0.41666675,0.46553922,-0.5346684,2.121073,0.78469986,-0.48655918
1747679431.2989547,-0.41666675,0.46553922,-0.5346684,2.121073,0.78469986,-0.48655918
1747679431.299488,-0.41666675,0.46553922,-0.5346684,2.121073,0.78469986,-0.48655918
1747679431.3000069,-0.41666675,0.46553922,-0.5346684,2.121073,0.78469986,-0.48655918
1747679431.3005257,-0.3619979,0.4055011,-0.71380645,2.121073,0.78469986,-0.48655918
1747679431.3010442,-0.3619979,0.4055011,-0.71380645,2.121073,0.78469986,-0.48655918
1747679431.301563,-0.3619979,0.4055011,-0.71380645,1.8110813,1.3077443,-0.43436125
1747679431.302082,-0.3619979,0.4055011,-0.71380645,1.8110813,1.3077443,-0.43436125
1747679431.3026001,-0.3619979,0.4055011,-0.71380645,1.8110813,1.3077443,-0.43436125
1747679431.3031178,-0.3619979,0.4055011,-0.71380645,1.8110813,1.3077443,-0.43436125
1747679431.3036463,-0.3619979,0.4055011,-0.71380645,1.8110813,1.3077443,-0.43436125
1747679431.3041801,-0.3619979,0.4055011,-0.71380645,1.8110813,1.3077443,-0.43436125
1747679431.3046997,-0.3619979,0.4055011,-0.71380645,1.8110813,1.3077443,-0.43436125
1747679431.3052177,-0.3619979,0.4055011,-0.71380645,1.8110813,1.3077443,-0.43436125
1747679431.3057356,-0.3619979,0.4055011,-0.71380645,1.8110813,1.3077443,-0.43436125
1747679431.3062537,-0.3619979,0.4055011,-0.71380645,1.8110813,1.3077443,-0.43436125
1747679431.3067718,-0.3619979,0.4055011,-0.71380645,1.8110813,1.3077443,-0.43436125
1747679431.3072896,-0.3619979,0.4055011,-0.71380645,1.8110813,1.3077443,-0.43436125
1747679431.3078077,-0.3619979,0.4055011,-0.71380645,1.8110813,1.3077443,-0.43436125
1747679431.3083255,-0.3619979,0.4055011,-0.71380645,1.8110813,1.3077443,-0.43436125
1747679431.3088439,-0.3619979,0.4055011,-0.71380645,1.8110813,1.3077443,-0.43436125
1747679431.3093615,-0.3619979,0.4055011,-0.71380645,1.8110813,1.3077443,-0.43436125
1747679431.309933,-0.3619979,0.4055011,-0.71380645,1.8110813,1.3077443,-0.43436125
1747679431.3105023,-0.3619979,0.4055011,-0.71380645,1.8110813,1.3077443,-0.43436125
1747679431.3110657,-0.3619979,0.4055011,-0.71380645,1.8110813,1.3077443,-0.43436125
1747679431.3116255,-0.3619979,0.4055011,-0.71380645,1.8110813,1.3077443,-0.43436125
1747679431.3121867,-0.3619979,0.4055011,-0.71380645,1.8110813,1.3077443,-0.43436125
1747679431.3127198,-0.3815225,0.41575152,-0.86756253,1.8110813,1.3077443,-0.43436125
1747679431.313242,-0.3815225,0.41575152,-0.86756253,1.8110813,1.3077443,-0.43436125
1747679431.3137925,-0.3815225,0.41575152,-0.86756253,1.8110813,1.3077443,-0.43436125
1747679431.314344,-0.3815225,0.41575152,-0.86756253,1.8110813,1.3077443,-0.43436125
1747679431.3148797,-0.3815225,0.41575152,-0.86756253,1.4765886,1.7466329,-0.46312338
1747679431.315401,-0.3815225,0.41575152,-0.86756253,1.4765886,1.7466329,-0.46312338
1747679431.3159204,-0.3815225,0.41575152,-0.86756253,1.4765886,1.7466329,-0.46312338
1747679431.3164392,-0.3815225,0.41575152,-0.86756253,1.4765886,1.7466329,-0.46312338
1747679431.316958,-0.3815225,0.41575152,-0.86756253,1.4765886,1.7466329,-0.46312338
1747679431.3174763,-0.3815225,0.41575152,-0.86756253,1.4765886,1.7466329,-0.46312338
1747679431.3179946,-0.3815225,0.41575152,-0.86756253,1.4765886,1.7466329,-0.46312338
1747679431.3185124,-0.3815225,0.41575152,-0.86756253,1.4765886,1.7466329,-0.46312338
1747679431.31903,-0.3815225,0.41575152,-0.86756253,1.4765886,1.7466329,-0.46312338
1747679431.319548,-0.3815225,0.41575152,-0.86756253,1.4765886,1.7466329,-0.46312338
1747679431.320066,-0.3815225,0.41575152,-0.86756253,1.4765886,1.7466329,-0.46312338
1747679431.3205848,-0.3815225,0.41575152,-0.86756253,1.4765886,1.7466329,-0.46312338
1747679431.3211029,-0.3815225,0.41575152,-0.86756253,1.4765886,1.7466329,-0.46312338
1747679431.321621,-0.3815225,0.41575152,-0.86756253,1.4765886,1.7466329,-0.46312338
1747679431.3221388,-0.3815225,0.41575152,-0.86756253,1.4765886,1.7466329,-0.46312338
1747679431.3226607,-0.3815225,0.41575152,-0.86756253,1.4765886,1.7466329,-0.46312338
1747679431.3231814,-0.3815225,0.41575152,-0.86756253,1.4765886,1.7466329,-0.46312338
1747679431.3236997,-0.5142897,0.44796705,-1.0769637,1.0313084,1.953294,-0.51638657
1747679431.3242278,-0.5142897,0.44796705,-1.0769637,1.0313084,1.953294,-0.51638657
1747679431.3247619,-0.5142897,0.44796705,-1.0769637,1.0313084,1.953294,-0.51638657
1747679431.3253005,-0.5142897,0.44796705,-1.0769637,1.0313084,1.953294,-0.51638657
1747679431.325842,-0.5142897,0.44796705,-1.0769637,1.0313084,1.953294,-0.51638657
1747679431.3263674,-0.5142897,0.44796705,-1.0769637,1.0313084,1.953294,-0.51638657
1747679431.3268862,-0.5142897,0.44796705,-1.0769637,1.0313084,1.953294,-0.51638657
1747679431.3274047,-0.5142897,0.44796705,-1.0769637,1.0313084,1.953294,-0.51638657
1747679431.3279226,-0.5142897,0.44796705,-1.0769637,1.0313084,1.953294,-0.51638657
1747679431.3284438,-0.5142897,0.44796705,-1.0769637,1.0313084,1.953294,-0.51638657
1747679431.3289824,-0.5142897,0.44796705,-1.0769637,1.0313084,1.953294,-0.51638657
1747679431.3295295,-0.5142897,0.44796705,-1.0769637,1.0313084,1.953294,-0.51638657
1747679431.3300624,-0.5142897,0.44796705,-1.0769637,1.0313084,1.953294,-0.51638657
1747679431.3305817,-0.5142897,0.44796705,-1.0769637,1.0313084,1.953294,-0.51638657
1747679431.3310997,-0.5142897,0.44796705,-1.0769637,1.0313084,1.953294,-0.51638657
1747679431.331618,-0.5142897,0.44796705,-1.0769637,1.0313084,1.953294,-0.51638657
1747679431.3321366,-0.7114879,0.47432527,-1.2863648,1.0313084,1.953294,-0.51638657
1747679431.3326554,-0.7114879,0.47432527,-1.2863648,1.0313084,1.953294,-0.51638657
1747679431.3331742,-0.7114879,0.47432527,-1.2863648,0.63503027,1.9980351,-0.46738443
1747679431.3337028,-0.7114879,0.47432527,-1.2863648,0.63503027,1.9980351,-0.46738443
1747679431.3342373,-0.7114879,0.47432527,-1.2863648,0.63503027,1.9980351,-0.46738443
1747679431.334757,-0.7114879,0.47432527,-1.2863648,0.63503027,1.9980351,-0.46738443
1747679431.335275,-0.7114879,0.47432527,-1.2863648,0.63503027,1.9980351,-0.46738443
1747679431.3357928,-0.7114879,0.47432527,-1.2863648,0.63503027,1.9980351,-0.46738443
1747679431.3363109,-0.7114879,0.47432527,-1.2863648,0.63503027,1.9980351,-0.46738443
1747679431.3368285,-0.7114879,0.47432527,-1.2863648,0.63503027,1.9980351,-0.46738443
1747679431.3373463,-0.7114879,0.47432527,-1.2863648,0.63503027,1.9980351,-0.46738443
1747679431.3378644,-0.7114879,0.47432527,-1.2863648,0.63503027,1.9980351,-0.46738443
1747679431.3383822,-0.7114879,0.47432527,-1.2863648,0.63503027,1.9980351,-0.46738443
1747679431.3389006,-0.7114879,0.47432527,-1.2863648,0.63503027,1.9980351,-0.46738443
1747679431.3394184,-0.7114879,0.47432527,-1.2863648,0.63503027,1.9980351,-0.46738443
1747679431.339936,-0.7114879,0.47432527,-1.2863648,0.63503027,1.9980351,-0.46738443
1747679431.3404896,-0.7114879,0.47432527,-1.2863648,0.63503027,1.9980351,-0.46738443
1747679431.341046,-0.7114879,0.47432527,-1.2863648,0.63503027,1.9980351,-0.46738443
1747679431.3415825,-0.7114879,0.47432527,-1.2863648,0.63503027,1.9980351,-0.46738443
1747679431.3421962,-0.7114879,0.47432527,-1.2863648,0.63503027,1.9980351,-0.46738443
1747679431.3427482,-0.7114879,0.47432527,-1.2863648,0.63503027,1.9980351,-0.46738443
1747679431.3432808,-0.7114879,0.47432527,-1.2863648,0.63503027,1.9980351,-0.46738443
1747679431.343814,-0.7114879,0.47432527,-1.2863648,0.63503027,1.9980351,-0.46738443
1747679431.3443506,-0.7114879,0.47432527,-1.2863648,0.63503027,1.9980351,-0.46738443
1747679431.3448758,-0.7114879,0.47432527,-1.2863648,0.63503027,1.9980351,-0.46738443
1747679431.3454304,-0.80081284,0.5016597,-1.3576294,0.15246587,2.005492,-0.29587698
1747679431.345985,-0.80081284,0.5016597,-1.3576294,0.15246587,2.005492,-0.29587698
1747679431.346518,-0.80081284,0.5016597,-1.3576294,0.15246587,2.005492,-0.29587698
1747679431.3470376,-0.80081284,0.5016597,-1.3576294,0.15246587,2.005492,-0.29587698
1747679431.3475559,-0.80081284,0.5016597,-1.3576294,0.15246587,2.005492,-0.29587698
1747679431.3480737,-0.80081284,0.5016597,-1.3576294,0.15246587,2.005492,-0.29587698
1747679431.3485918,-0.80081284,0.5016597,-1.3576294,0.15246587,2.005492,-0.29587698
1747679431.3491104,-0.80081284,0.5016597,-1.3576294,0.15246587,2.005492,-0.29587698
1747679431.3496284,-0.80081284,0.5016597,-1.3576294,0.15246587,2.005492,-0.29587698
1747679431.350146,-0.80081284,0.5016597,-1.3576294,0.15246587,2.005492,-0.29587698
1747679431.3506641,-0.80081284,0.5016597,-1.3576294,0.15246587,2.005492,-0.29587698
1747679431.3511822,-0.80081284,0.5016597,-1.3576294,0.15246587,2.005492,-0.29587698
1747679431.3517003,-0.80081284,0.5016597,-1.3576294,0.15246587,2.005492,-0.29587698
1747679431.3522184,-0.80081284,0.5016597,-1.3576294,0.15246587,2.005492,-0.29587698
1747679431.3527362,-0.80081284,0.5016597,-1.3576294,0.15246587,2.005492,-0.29587698
1747679431.3532548,-0.80081284,0.5016597,-1.3576294,0.15246587,2.005492,-0.29587698
1747679431.3537736,-0.80081284,0.5016597,-1.3576294,0.15246587,2.005492,-0.29587698
1747679431.3543057,-0.80081284,0.5016597,-1.3576294,0.15246587,2.005492,-0.29587698
1747679431.3548427,-0.80081284,0.5016597,-1.3576294,0.15246587,2.005492,-0.29587698
1747679431.355363,-0.80081284,0.5016597,-1.3576294,-0.481366,1.8925741,0.038615808
1747679431.3558986,-0.80081284,0.5016597,-1.3576294,-0.481366,1.8925741,0.038615808
1747679431.3564613,-0.80081284,0.5016597,-1.3576294,-0.481366,1.8925741,0.038615808
1747679431.357004,-0.8545055,0.55828094,-1.2951508,-0.481366,1.8925741,0.038615808
1747679431.357533,-0.8545055,0.55828094,-1.2951508,-0.481366,1.8925741,0.038615808
1747679431.3580585,-0.8545055,0.55828094,-1.2951508,-0.481366,1.8925741,0.038615808
1747679431.358581,-0.8545055,0.55828094,-1.2951508,-0.481366,1.8925741,0.038615808
1747679431.3591027,-0.8545055,0.55828094,-1.2951508,-0.481366,1.8925741,0.038615808
1747679431.3596241,-0.8545055,0.55828094,-1.2951508,-0.481366,1.8925741,0.038615808
1747679431.360161,-0.8545055,0.55828094,-1.2951508,-0.481366,1.8925741,0.038615808
1747679431.3607209,-0.8545055,0.55828094,-1.2951508,-0.481366,1.8925741,0.038615808
1747679431.3612883,-0.8545055,0.55828094,-1.2951508,-0.481366,1.8925741,0.038615808
1747679431.3618355,-0.8545055,0.55828094,-1.2951508,-0.481366,1.8925741,0.038615808
1747679431.3623722,-0.8545055,0.55828094,-1.2951508,-0.481366,1.8925741,0.038615808
1747679431.362895,-0.8545055,0.55828094,-1.2951508,-0.481366,1.8925741,0.038615808
1747679431.3634338,-0.8545055,0.55828094,-1.2951508,-0.481366,1.8925741,0.038615808
1747679431.3639665,-0.8545055,0.55828094,-1.2951508,-0.481366,1.8925741,0.038615808
1747679431.3645053,-0.8545055,0.55828094,-1.2951508,-0.481366,1.8925741,0.038615808
1747679431.3650346,-0.8545055,0.55828094,-1.2951508,-0.481366,1.8925741,0.038615808
1747679431.3655539,-0.8545055,0.55828094,-1.2951508,-0.481366,1.8925741,0.038615808
1747679431.3660836,-0.8545055,0.55828094,-1.2951508,-1.015063,1.6965655,0.4732434
1747679431.366612,-0.8545055,0.55828094,-1.2951508,-1.015063,1.6965655,0.4732434
1747679431.367131,-0.8545055,0.55828094,-1.2951508,-1.015063,1.6965655,0.4732434
1747679431.3676524,-0.76713294,0.6241764,-0.99691284,-1.015063,1.6965655,0.4732434
1747679431.3681736,-0.76713294,0.6241764,-0.99691284,-1.015063,1.6965655,0.4732434
1747679431.3686943,-0.76713294,0.6241764,-0.99691284,-1.015063,1.6965655,0.4732434
1747679431.3692148,-0.76713294,0.6241764,-0.99691284,-1.015063,1.6965655,0.4732434
1747679431.3697355,-0.76713294,0.6241764,-0.99691284,-1.015063,1.6965655,0.4732434
1747679431.370259,-0.76713294,0.6241764,-0.99691284,-1.015063,1.6965655,0.4732434
1747679431.3707979,-0.76713294,0.6241764,-0.99691284,-1.015063,1.6965655,0.4732434
1747679431.3713546,-0.76713294,0.6241764,-0.99691284,-1.015063,1.6965655,0.4732434
1747679431.3718917,-0.76713294,0.6241764,-0.99691284,-1.015063,1.6965655,0.4732434
1747679431.3724203,-0.76713294,0.6241764,-0.99691284,-1.015063,1.6965655,0.4732434
1747679431.3729582,-0.76713294,0.6241764,-0.99691284,-1.015063,1.6965655,0.4732434
1747679431.3735027,-0.76713294,0.6241764,-0.99691284,-1.015063,1.6965655,0.4732434
1747679431.3740385,-0.76713294,0.6241764,-0.99691284,-1.015063,1.6965655,0.4732434
1747679431.3745615,-0.76713294,0.6241764,-0.99691284,-1.015063,1.6965655,0.4732434
1747679431.3750825,-0.76713294,0.6241764,-0.99691284,-1.015063,1.6965655,0.4732434
1747679431.375606,-0.76713294,0.6241764,-0.99691284,-1.015063,1.6965655,0.4732434
1747679431.3761613,-0.76713294,0.6241764,-0.99691284,-1.015063,1.6965655,0.4732434
1747679431.376747,-0.5811613,0.6817739,-0.7430933,-1.015063,1.6965655,0.4732434
1747679431.3773038,-0.5811613,0.6817739,-0.7430933,-1.015063,1.6965655,0.4732434
1747679431.3778293,-0.5811613,0.6817739,-0.7430933,-1.015063,1.6965655,0.4732434
1747679431.3783503,-0.5811613,0.6817739,-0.7430933,-1.015063,1.6965655,0.4732434
1747679431.3788748,-0.5811613,0.6817739,-0.7430933,-1.015063,1.6965655,0.4732434
1747679431.379398,-0.5811613,0.6817739,-0.7430933,-1.1620694,1.4132054,0.7736477
1747679431.3799734,-0.5811613,0.6817739,-0.7430933,-1.1620694,1.4132054,0.7736477
1747679431.3804944,-0.5811613,0.6817739,-0.7430933,-1.1620694,1.4132054,0.7736477
1747679431.3810148,-0.5811613,0.6817739,-0.7430933,-1.1620694,1.4132054,0.7736477
1747679431.3815358,-0.5811613,0.6817739,-0.7430933,-1.1620694,1.4132054,0.7736477
1747679431.382057,-0.5811613,0.6817739,-0.7430933,-1.0576737,0.9061399,0.93663305
1747679431.3825803,-0.5811613,0.6817739,-0.7430933,-1.0576737,0.9061399,0.93663305
1747679431.383088,-0.32636556,0.76963454,-0.54589504,-1.0576737,0.9061399,0.93663305
1747679431.3836164,-0.32636556,0.76963454,-0.54589504,-1.0576737,0.9061399,0.93663305
1747679431.384151,-0.32636556,0.76963454,-0.54589504,-1.0576737,0.9061399,0.93663305
1747679431.384671,-0.32636556,0.76963454,-0.54589504,-1.0576737,0.9061399,0.93663305
1747679431.385189,-0.32636556,0.76963454,-0.54589504,-1.0576737,0.9061399,0.93663305
1747679431.3857074,-0.32636556,0.76963454,-0.54589504,-1.0576737,0.9061399,0.93663305
1747679431.3862534,-0.32636556,0.76963454,-0.54589504,-1.0576737,0.9061399,0.93663305
1747679431.386798,-0.32636556,0.76963454,-0.54589504,-1.0576737,0.9061399,0.93663305
1747679431.3873239,-0.32636556,0.76963454,-0.54589504,-1.0576737,0.9061399,0.93663305
1747679431.3878436,-0.32636556,0.76963454,-0.54589504,-1.0576737,0.9061399,0.93663305
1747679431.3883622,-0.32636556,0.76963454,-0.54589504,-1.0576737,0.9061399,0.93663305
1747679431.3888805,-0.32636556,0.76963454,-0.54589504,-1.0576737,0.9061399,0.93663305
1747679431.3894007,-0.32636556,0.76963454,-0.54589504,-1.0576737,0.9061399,0.93663305
1747679431.3899238,-0.19115783,0.83064884,-0.507334,-1.0576737,0.9061399,0.93663305
1747679431.3904457,-0.19115783,0.83064884,-0.507334,-0.8978841,0.5013397,0.93876356
1747679431.3909664,-0.19115783,0.83064884,-0.507334,-0.8978841,0.5013397,0.93876356
1747679431.3915164,-0.19115783,0.83064884,-0.507334,-0.8978841,0.5013397,0.93876356
