timestamp,acc_x,acc_y,acc_z,gyro_x,gyro_y,gyro_z
1747679336.4449902,0.16467762,0.40647733,0.7988604,-0.44607913,-0.86339617,-0.8221172
1747679336.4455295,0.16467762,0.40647733,0.7988604,-0.44607913,-0.86339617,-0.8221172
1747679336.446054,0.16467762,0.40647733,0.7988604,-0.44607913,-0.86339617,-0.8221172
1747679336.446573,0.16467762,0.40647733,0.7988604,-0.44607913,-0.86339617,-0.8221172
1747679336.4470918,0.16467762,0.40647733,0.7988604,-0.44607913,-0.86339617,-0.8221172
1747679336.447611,0.16467762,0.40647733,0.7988604,-0.44607913,-0.86339617,-0.8221172
1747679336.44813,0.16467762,0.40647733,0.7988604,-0.44607913,-0.86339617,-0.8221172
1747679336.4486485,0.16467762,0.40647733,0.7988604,-0.44607913,-0.86339617,-0.8221172
1747679336.449167,0.16467762,0.40647733,0.7988604,-0.44607913,-0.86339617,-0.8221172
1747679336.4496865,0.16467762,0.40647733,0.7988604,-0.44607913,-0.86339617,-0.8221172
1747679336.4502048,0.16467762,0.40647733,0.7988604,-0.44607913,-0.86339617,-0.8221172
1747679336.4507234,0.16467762,0.40647733,0.7988604,-0.44607913,-0.86339617,-0.8221172
1747679336.4512475,0.16467762,0.40647733,0.7988604,-0.44607913,-0.86339617,-0.8221172
1747679336.4517741,0.14564116,0.39671504,0.81106323,-0.46099284,-1.0785794,-0.87005407
1747679336.4522963,0.14564116,0.39671504,0.81106323,-0.46099284,-1.0785794,-0.87005407
1747679336.452815,0.14564116,0.39671504,0.81106323,-0.46099284,-1.0785794,-0.87005407
1747679336.4539256,0.14564116,0.39671504,0.81106323,-0.46099284,-1.0785794,-0.87005407
1747679336.4545841,0.14564116,0.39671504,0.81106323,-0.46099284,-1.0785794,-0.87005407
1747679336.4554112,0.14564116,0.39671504,0.81106323,-0.46099284,-1.0785794,-0.87005407
1747679336.4559543,0.14564116,0.39671504,0.81106323,-0.46099284,-1.0785794,-0.87005407
1747679336.4564788,0.14564116,0.39671504,0.81106323,-0.46099284,-1.0785794,-0.87005407
1747679336.4569974,0.14564116,0.39671504,0.81106323,-0.46099284,-1.0785794,-0.87005407
1747679336.457516,0.14564116,0.39671504,0.81106323,-0.46099284,-1.0785794,-0.87005407
1747679336.4580345,0.14564116,0.39671504,0.81106323,-0.46099284,-1.0785794,-0.87005407
1747679336.458553,0.14564116,0.39671504,0.81106323,-0.46099284,-1.0785794,-0.87005407
1747679336.459074,0.14564116,0.39671504,0.81106323,-0.46099284,-1.0785794,-0.87005407
1747679336.4595928,0.14564116,0.39671504,0.81106323,-0.46099284,-1.0785794,-0.87005407
1747679336.460123,0.14564116,0.39671504,0.81106323,-0.46099284,-1.0785794,-0.87005407
1747679336.4606698,0.14564116,0.39671504,0.81106323,-0.46099284,-1.0785794,-0.87005407
1747679336.4613197,0.24521652,0.3781667,0.85108864,-0.46099284,-1.0785794,-0.87005407
1747679336.461871,0.24521652,0.3781667,0.85108864,-0.46099284,-1.0785794,-0.87005407
1747679336.462409,0.24521652,0.3781667,0.85108864,-0.46099284,-1.0785794,-0.87005407
1747679336.4629378,0.24521652,0.3781667,0.85108864,-0.46099284,-1.0785794,-0.87005407
1747679336.4634678,0.24521652,0.3781667,0.85108864,-0.46099284,-1.0785794,-0.87005407
1747679336.4640033,0.24521652,0.3781667,0.85108864,-0.4886897,-1.0711226,-0.9243825
1747679336.4645288,0.24521652,0.3781667,0.85108864,-0.4886897,-1.0711226,-0.9243825
1747679336.465051,0.24521652,0.3781667,0.85108864,-0.4886897,-1.0711226,-0.9243825
1747679336.4655724,0.24521652,0.3781667,0.85108864,-0.4886897,-1.0711226,-0.9243825
1747679336.4660938,0.24521652,0.3781667,0.85108864,-0.4886897,-1.0711226,-0.9243825
1747679336.466615,0.24521652,0.3781667,0.85108864,-0.4886897,-1.0711226,-0.9243825
1747679336.4671361,0.24521652,0.3781667,0.85108864,-0.4886897,-1.0711226,-0.9243825
1747679336.4676588,0.24521652,0.3781667,0.85108864,-0.4886897,-1.0711226,-0.9243825
1747679336.4681797,0.24521652,0.3781667,0.85108864,-0.4886897,-1.0711226,-0.9243825
1747679336.4688501,0.24521652,0.3781667,0.85108864,-0.4886897,-1.0711226,-0.9243825
1747679336.471101,0.24521652,0.3781667,0.85108864,-0.4886897,-1.0711226,-0.9243825
1747679336.471681,0.24521652,0.3781667,0.85108864,-0.4886897,-1.0711226,-0.9243825
1747679336.4722745,0.24521652,0.3781667,0.85108864,-0.4886897,-1.0711226,-0.9243825
1747679336.4728343,0.30379027,0.3845122,0.89257836,-0.5270392,-0.8548741,-1.0277131
1747679336.4733822,0.30379027,0.3845122,0.89257836,-0.5270392,-0.8548741,-1.0277131
1747679336.4739385,0.30379027,0.3845122,0.89257836,-0.5270392,-0.8548741,-1.0277131
1747679336.4744968,0.30379027,0.3845122,0.89257836,-0.5270392,-0.8548741,-1.0277131
1747679336.4750435,0.30379027,0.3845122,0.89257836,-0.5270392,-0.8548741,-1.0277131
1747679336.4755893,0.30379027,0.3845122,0.89257836,-0.5270392,-0.8548741,-1.0277131
1747679336.4761083,0.30379027,0.3845122,0.89257836,-0.5270392,-0.8548741,-1.0277131
1747679336.4766493,0.30379027,0.3845122,0.89257836,-0.5270392,-0.8548741,-1.0277131
1747679336.4772003,0.30379027,0.3845122,0.89257836,-0.5270392,-0.8548741,-1.0277131
1747679336.506,0.27401528,0.3439987,1.0058209,-0.6463487,0.47777075,-1.2929637
1747679336.5069168,0.27401528,0.3439987,1.0058209,-0.6463487,0.47777075,-1.2929637
1747679336.5080237,0.27401528,0.3439987,1.0058209,-0.6463487,0.47777075,-1.2929637
1747679336.5085895,0.27401528,0.3439987,1.0058209,-0.6463487,0.47777075,-1.2929637
1747679336.5095444,0.27401528,0.3439987,1.0058209,-0.6463487,0.47777075,-1.2929637
1747679336.5101533,0.27401528,0.3439987,1.0058209,-0.6463487,0.47777075,-1.2929637
1747679336.51069,0.27401528,0.3439987,1.0058209,-0.6463487,0.47777075,-1.2929637
1747679336.5112102,0.27401528,0.3439987,1.0058209,-0.6463487,0.47777075,-1.2929637
1747679336.5117292,0.27401528,0.3439987,1.0058209,-0.6463487,0.47777075,-1.2929637
1747679336.512256,0.27401528,0.3439987,1.0058209,-0.6463487,0.47777075,-1.2929637
1747679336.512775,0.27401528,0.3439987,1.0058209,-0.6463487,0.47777075,-1.2929637
1747679336.5132987,0.27401528,0.3439987,1.0058209,-0.6463487,0.47777075,-1.2929637
1747679336.5138397,0.27401528,0.3439987,1.0058209,-0.6463487,0.47777075,-1.2929637
1747679336.5143623,0.27401528,0.3439987,1.0058209,-0.6463487,0.47777075,-1.2929637
1747679336.5148818,0.27401528,0.3439987,1.0058209,-0.6463487,0.47777075,-1.2929637
1747679336.5154006,0.27401528,0.3439987,1.0058209,-0.6463487,0.47777075,-1.2929637
1747679336.5159507,0.27401528,0.3439987,1.0058209,-0.6261087,0.7579351,-1.3046817
1747679336.5176604,0.27401528,0.3439987,1.0058209,-0.6261087,0.7579351,-1.3046817
1747679336.5182402,0.062173583,0.2932348,1.0985627,-0.6261087,0.7579351,-1.3046817
1747679336.5187836,0.062173583,0.2932348,1.0985627,-0.6261087,0.7579351,-1.3046817
1747679336.519322,0.062173583,0.2932348,1.0985627,-0.6261087,0.7579351,-1.3046817
1747679336.5198648,0.062173583,0.2932348,1.0985627,-0.6261087,0.7579351,-1.3046817
1747679336.5204003,0.062173583,0.2932348,1.0985627,-0.6261087,0.7579351,-1.3046817
1747679336.5209355,0.062173583,0.2932348,1.0985627,-0.6261087,0.7579351,-1.3046817
1747679336.5214694,0.062173583,0.2932348,1.0985627,-0.6261087,0.7579351,-1.3046817
1747679336.522004,0.062173583,0.2932348,1.0985627,-0.6261087,0.7579351,-1.3046817
1747679336.522538,0.062173583,0.2932348,1.0985627,-0.6261087,0.7579351,-1.3046817
1747679336.5230725,0.062173583,0.2932348,1.0985627,-0.6261087,0.7579351,-1.3046817
1747679336.5236125,0.062173583,0.2932348,1.0985627,-0.6261087,0.7579351,-1.3046817
1747679336.5241513,0.062173583,0.2932348,1.0985627,-0.6261087,0.7579351,-1.3046817
1747679336.5246854,0.062173583,0.2932348,1.0985627,-0.6261087,0.7579351,-1.3046817
1747679336.5252182,0.062173583,0.2932348,1.0985627,-0.6261087,0.7579351,-1.3046817
1747679336.525757,0.062173583,0.2932348,1.0985627,-0.6261087,0.7579351,-1.3046817
1747679336.5263107,0.062173583,0.2932348,1.0985627,-0.6261087,0.7579351,-1.3046817
1747679336.526866,0.062173583,0.2932348,1.0985627,-0.6261087,0.7579351,-1.3046817
1747679336.5274315,0.062173583,0.2932348,1.0985627,-0.6261087,0.7579351,-1.3046817
1747679336.5279715,0.062173583,0.2932348,1.0985627,-0.56006235,0.6279729,-1.1331742
1747679336.5285063,0.062173583,0.2932348,1.0985627,-0.56006235,0.6279729,-1.1331742
1747679336.5290298,-0.18530047,0.30934256,1.0927052,-0.56006235,0.6279729,-1.1331742
1747679336.529551,-0.18530047,0.30934256,1.0927052,-0.56006235,0.6279729,-1.1331742
1747679336.5300703,-0.18530047,0.30934256,1.0927052,-0.56006235,0.6279729,-1.1331742
1747679336.5305922,-0.18530047,0.30934256,1.0927052,-0.56006235,0.6279729,-1.1331742
1747679336.5312726,-0.18530047,0.30934256,1.0927052,-0.56006235,0.6279729,-1.1331742
1747679336.5327399,-0.18530047,0.30934256,1.0927052,-0.56006235,0.6279729,-1.1331742
1747679336.537443,-0.21800414,0.28249624,1.1122298,-0.42051283,0.046338968,-0.83596563
1747679336.5387423,-0.21800414,0.28249624,1.1122298,-0.42051283,0.046338968,-0.83596563
1747679336.539299,-0.21800414,0.28249624,1.1122298,-0.42051283,0.046338968,-0.83596563
1747679336.539854,-0.21800414,0.28249624,1.1122298,-0.42051283,0.046338968,-0.83596563
1747679336.5403936,-0.21800414,0.28249624,1.1122298,-0.42051283,0.046338968,-0.83596563
1747679336.5409153,-0.21800414,0.28249624,1.1122298,-0.42051283,0.046338968,-0.83596563
1747679336.541447,-0.19652711,0.30006838,1.129802,-0.27883276,-0.44794336,-0.66552347
1747679336.5419729,-0.19652711,0.30006838,1.129802,-0.27883276,-0.44794336,-0.66552347
1747679336.5424995,-0.19652711,0.30006838,1.129802,-0.27883276,-0.44794336,-0.66552347
1747679336.543029,-0.19652711,0.30006838,1.129802,-0.27883276,-0.44794336,-0.66552347
1747679336.543548,-0.19652711,0.30006838,1.129802,-0.27883276,-0.44794336,-0.66552347
1747679336.544072,-0.19652711,0.30006838,1.129802,-0.27883276,-0.44794336,-0.66552347
1747679336.5446,-0.19652711,0.30006838,1.129802,-0.27883276,-0.44794336,-0.66552347
1747679336.545122,-0.19652711,0.30006838,1.129802,-0.27883276,-0.44794336,-0.66552347
1747679336.545641,-0.19652711,0.30006838,1.129802,-0.27883276,-0.44794336,-0.66552347
1747679336.5461595,-0.19652711,0.30006838,1.129802,-0.27883276,-0.44794336,-0.66552347
1747679336.54669,-0.19652711,0.30006838,1.129802,-0.27883276,-0.44794336,-0.66552347
1747679336.5472274,-0.19652711,0.30006838,1.129802,-0.27883276,-0.44794336,-0.66552347
1747679336.5477536,-0.19652711,0.30006838,1.129802,-0.27883276,-0.44794336,-0.66552347
1747679336.5482893,-0.19652711,0.30006838,1.129802,-0.27883276,-0.44794336,-0.66552347
1747679336.5492072,-0.19652711,0.30006838,1.129802,-0.27883276,-0.44794336,-0.66552347
1747679336.5497696,-0.13648902,0.3176405,1.1512791,-0.09028109,-0.8623309,-0.4833634
1747679336.5503166,-0.13648902,0.3176405,1.1512791,-0.09028109,-0.8623309,-0.4833634
1747679336.5508504,-0.13648902,0.3176405,1.1512791,-0.09028109,-0.8623309,-0.4833634
1747679336.5513704,-0.13648902,0.3176405,1.1512791,-0.09028109,-0.8623309,-0.4833634
1747679336.55189,-0.13648902,0.3176405,1.1512791,-0.09028109,-0.8623309,-0.4833634
1747679336.5524092,-0.13648902,0.3176405,1.1512791,-0.09028109,-0.8623309,-0.4833634
1747679336.552928,-0.13648902,0.3176405,1.1512791,-0.09028109,-0.8623309,-0.4833634
1747679336.5534463,-0.13648902,0.3176405,1.1512791,-0.09028109,-0.8623309,-0.4833634
1747679336.5539737,-0.13648902,0.3176405,1.1512791,-0.09028109,-0.8623309,-0.4833634
1747679336.5544977,-0.13648902,0.3176405,1.1512791,-0.09028109,-0.8623309,-0.4833634
1747679336.5550263,-0.13648902,0.3176405,1.1512791,-0.09028109,-0.8623309,-0.4833634
1747679336.5555482,-0.13648902,0.3176405,1.1512791,-0.09028109,-0.8623309,-0.4833634
1747679336.5560675,-0.13648902,0.3176405,1.1512791,-0.09028109,-0.8623309,-0.4833634
1747679336.5565865,-0.13648902,0.3176405,1.1512791,-0.09028109,-0.8623309,-0.4833634
1747679336.5571053,-0.13648902,0.3176405,1.1512791,-0.09028109,-0.8623309,-0.4833634
1747679336.557624,-0.13648902,0.3176405,1.1512791,-0.09028109,-0.8623309,-0.4833634
1747679336.5581427,-0.13648902,0.3176405,1.1512791,-0.09028109,-0.8623309,-0.4833634
1747679336.5586612,-0.13648902,0.3176405,1.1512791,-0.09028109,-0.8623309,-0.4833634
1747679336.5591795,-0.13648902,0.3176405,1.1512791,-0.09028109,-0.8623309,-0.4833634
1747679336.5596979,-0.13648902,0.3176405,1.1512791,-0.09028109,-0.8623309,-0.4833634
1747679336.5602164,-0.13648902,0.3176405,1.1512791,-0.09028109,-0.8623309,-0.4833634
1747679336.5607376,-0.13648902,0.3176405,1.1512791,-0.09028109,-0.8623309,-0.4833634
1747679336.561266,-0.062295612,0.33862945,1.1093012,0.10785794,-1.0434257,-0.34914017
1747679336.5620155,-0.062295612,0.33862945,1.1093012,0.10785794,-1.0434257,-0.34914017
1747679336.5625827,-0.062295612,0.33862945,1.1093012,0.10785794,-1.0434257,-0.34914017
1747679336.5676632,-0.062295612,0.33862945,1.1093012,0.10785794,-1.0434257,-0.34914017
1747679336.568229,-0.062295612,0.33862945,1.1093012,0.10785794,-1.0434257,-0.34914017
1747679336.5687575,-0.062295612,0.33862945,1.1093012,0.10785794,-1.0434257,-0.34914017
1747679336.5692937,-0.062295612,0.33862945,1.1093012,0.10785794,-1.0434257,-0.34914017
1747679336.5698154,-0.062295612,0.33862945,1.1093012,0.10785794,-1.0434257,-0.34914017
1747679336.5703368,-0.062295612,0.33862945,1.1093012,0.10785794,-1.0434257,-0.34914017
1747679336.570858,-0.062295612,0.33862945,1.1093012,0.10785794,-1.0434257,-0.34914017
1747679336.5713792,-0.062295612,0.33862945,1.1093012,0.10785794,-1.0434257,-0.34914017
1747679336.5719051,-0.062295612,0.33862945,1.1093012,0.10785794,-1.0434257,-0.34914017
1747679336.5724344,0.019707624,0.36742818,0.96091443,0.21544957,-1.0402299,-0.27137592
1747679336.5729601,0.019707624,0.36742818,0.96091443,0.21544957,-1.0402299,-0.27137592
1747679336.5734816,0.019707624,0.36742818,0.96091443,0.21544957,-1.0402299,-0.27137592
1747679336.574009,0.019707624,0.36742818,0.96091443,0.21544957,-1.0402299,-0.27137592
1747679336.5745413,0.019707624,0.36742818,0.96091443,0.21544957,-1.0402299,-0.27137592
1747679336.5750651,0.019707624,0.36742818,0.96091443,0.21544957,-1.0402299,-0.27137592
1747679336.57559,0.019707624,0.36742818,0.96091443,0.21544957,-1.0402299,-0.27137592
1747679336.576099,0.019707624,0.36742818,0.96091443,0.21544957,-1.0402299,-0.27137592
1747679336.5766208,0.019707624,0.36742818,0.96091443,0.21544957,-1.0402299,-0.27137592
1747679336.5771496,0.019707624,0.36742818,0.96091443,0.21544957,-1.0402299,-0.27137592
1747679336.5776908,0.019707624,0.36742818,0.96091443,0.21544957,-1.0402299,-0.27137592
1747679336.5782251,0.019707624,0.36742818,0.96091443,0.21544957,-1.0402299,-0.27137592
1747679336.5787632,0.019707624,0.36742818,0.96091443,0.21544957,-1.0402299,-0.27137592
1747679336.5793092,0.019707624,0.36742818,0.96091443,0.21544957,-1.0402299,-0.27137592
1747679336.5805013,0.019707624,0.36742818,0.96091443,0.21544957,-1.0402299,-0.27137592
1747679336.5812385,0.019707624,0.36742818,0.96091443,0.21544957,-1.0402299,-0.27137592
1747679336.58179,0.019707624,0.36742818,0.96091443,0.21544957,-1.0402299,-0.27137592
1747679336.5823238,0.019707624,0.36742818,0.96091443,0.21544957,-1.0402299,-0.27137592
1747679336.58285,0.019707624,0.36742818,0.96091443,0.21544957,-1.0402299,-0.27137592
1747679336.583369,0.019707624,0.36742818,0.96091443,0.21544957,-1.0402299,-0.27137592
1747679336.5838876,0.019707624,0.36742818,0.96091443,0.21544957,-1.0402299,-0.27137592
1747679336.5844114,0.019707624,0.36742818,0.96091443,0.21544957,-1.0402299,-0.27137592
1747679336.5849552,0.019707624,0.36742818,0.96091443,0.21544957,-1.0402299,-0.27137592
1747679336.5854793,0.019707624,0.36742818,0.96091443,0.21544957,-1.0402299,-0.27137592
1747679336.5859985,0.019707624,0.36742818,0.96091443,0.21544957,-1.0402299,-0.27137592
1747679336.5865176,0.019707624,0.36742818,0.96091443,0.21544957,-1.0402299,-0.27137592
1747679336.5870361,0.019707624,0.36742818,0.96091443,0.21544957,-1.0402299,-0.27137592
1747679336.5875554,0.019707624,0.36742818,0.96091443,0.21544957,-1.0402299,-0.27137592
1747679336.5880737,0.019707624,0.36742818,0.96091443,0.21544957,-1.0402299,-0.27137592
1747679336.5885923,0.019707624,0.36742818,0.96091443,0.21544957,-1.0402299,-0.27137592
1747679336.589111,0.019707624,0.36742818,0.96091443,0.21544957,-1.0402299,-0.27137592
1747679336.5896292,0.019707624,0.36742818,0.96091443,0.21544957,-1.0402299,-0.27137592
1747679336.5901475,0.019707624,0.36742818,0.96091443,0.21544957,-1.0402299,-0.27137592
1747679336.590666,0.019707624,0.36742818,0.96091443,0.21544957,-1.0402299,-0.27137592
1747679336.5911844,0.019707624,0.36742818,0.96091443,0.21544957,-1.0402299,-0.27137592
1747679336.5917027,0.019707624,0.36742818,0.96091443,0.21544957,-1.0402299,-0.27137592
1747679336.5922856,0.019707624,0.36742818,0.96091443,0.21544957,-1.0402299,-0.27137592
1747679336.592843,0.019707624,0.36742818,0.96091443,0.21544957,-1.0402299,-0.27137592
1747679336.5933857,0.20909604,0.41428718,0.771526,0.111053735,-0.9102678,-0.29800752
1747679336.5939257,0.20909604,0.41428718,0.771526,0.111053735,-0.9102678,-0.29800752
1747679336.5967493,0.20909604,0.41428718,0.771526,0.111053735,-0.9102678,-0.29800752
1747679336.597323,0.20909604,0.41428718,0.771526,0.111053735,-0.9102678,-0.29800752
1747679336.5978765,0.20909604,0.41428718,0.771526,0.111053735,-0.9102678,-0.29800752
1747679336.5984178,0.20909604,0.41428718,0.771526,0.111053735,-0.9102678,-0.29800752
1747679336.5989568,0.20909604,0.41428718,0.771526,0.111053735,-0.9102678,-0.29800752
1747679336.5994954,0.20909604,0.41428718,0.771526,0.111053735,-0.9102678,-0.29800752
1747679336.600046,0.20909604,0.41428718,0.771526,0.111053735,-0.9102678,-0.29800752
1747679336.6005838,0.20909604,0.41428718,0.771526,0.111053735,-0.9102678,-0.29800752
1747679336.6011236,0.20909604,0.41428718,0.771526,0.111053735,-0.9102678,-0.29800752
1747679336.6016612,0.20909604,0.41428718,0.771526,0.111053735,-0.9102678,-0.29800752
1747679336.6022782,0.20909604,0.41428718,0.771526,0.111053735,-0.9102678,-0.29800752
1747679336.6028347,0.20909604,0.41428718,0.771526,0.111053735,-0.9102678,-0.29800752
1747679336.6033902,0.20909604,0.41428718,0.771526,0.111053735,-0.9102678,-0.29800752
1747679336.6039555,0.20909604,0.41428718,0.771526,0.111053735,-0.9102678,-0.29800752
1747679336.6045115,0.20909604,0.41428718,0.771526,0.111053735,-0.9102678,-0.29800752
1747679336.6050503,0.20909604,0.41428718,0.771526,0.111053735,-0.9102678,-0.29800752
1747679336.6055732,0.20909604,0.41428718,0.771526,0.111053735,-0.9102678,-0.29800752
1747679336.606092,0.20909604,0.41428718,0.771526,0.111053735,-0.9102678,-0.29800752
1747679336.6066113,0.20909604,0.41428718,0.771526,0.111053735,-0.9102678,-0.29800752
1747679336.6071668,0.20909604,0.41428718,0.771526,0.111053735,-0.9102678,-0.29800752
1747679336.6077173,0.20909604,0.41428718,0.771526,0.111053735,-0.9102678,-0.29800752
1747679336.6082542,0.39799634,0.43771666,0.7598112,0.0087884255,-0.94116044,-0.5355613
1747679336.6087773,0.39799634,0.43771666,0.7598112,0.0087884255,-0.94116044,-0.5355613
1747679336.6092963,0.39799634,0.43771666,0.7598112,0.0087884255,-0.94116044,-0.5355613
1747679336.6098154,0.39799634,0.43771666,0.7598112,0.0087884255,-0.94116044,-0.5355613
1747679336.6103473,0.39799634,0.43771666,0.7598112,0.0087884255,-0.94116044,-0.5355613
1747679336.6121519,0.39799634,0.43771666,0.7598112,0.0087884255,-0.94116044,-0.5355613
1747679336.6127174,0.39799634,0.43771666,0.7598112,0.0087884255,-0.94116044,-0.5355613
1747679336.6132655,0.39799634,0.43771666,0.7598112,-0.043409493,-0.97311836,-0.744353
1747679336.613851,0.39799634,0.43771666,0.7598112,-0.043409493,-0.97311836,-0.744353
1747679336.6144958,0.40531808,0.43332362,0.76664484,-0.043409493,-0.97311836,-0.744353
1747679336.6151092,0.40531808,0.43332362,0.76664484,-0.043409493,-0.97311836,-0.744353
1747679336.6156695,0.40531808,0.43332362,0.76664484,-0.043409493,-0.97311836,-0.744353
1747679336.6162221,0.40531808,0.43332362,0.76664484,-0.043409493,-0.97311836,-0.744353
1747679336.6167562,0.40531808,0.43332362,0.76664484,-0.043409493,-0.97311836,-0.744353
1747679336.6172767,0.40531808,0.43332362,0.76664484,-0.043409493,-0.97311836,-0.744353
1747679336.617795,0.40531808,0.43332362,0.76664484,-0.043409493,-0.97311836,-0.744353
1747679336.618314,0.40531808,0.43332362,0.76664484,-0.043409493,-0.97311836,-0.744353
1747679336.6188755,0.40531808,0.43332362,0.76664484,-0.043409493,-0.97311836,-0.744353
1747679336.6193943,0.40531808,0.43332362,0.76664484,-0.043409493,-0.97311836,-0.744353
1747679336.6199124,0.40531808,0.43332362,0.76664484,-0.043409493,-0.97311836,-0.744353
1747679336.6204312,0.40531808,0.43332362,0.76664484,-0.043409493,-0.97311836,-0.744353
1747679336.620955,0.40531808,0.43332362,0.76664484,-0.043409493,-0.97311836,-0.744353
1747679336.6214964,0.40531808,0.43332362,0.76664484,-0.043409493,-0.97311836,-0.744353
1747679336.6220183,0.40531808,0.43332362,0.76664484,-0.043409493,-0.97311836,-0.744353
1747679336.6226099,0.40531808,0.43332362,0.76664484,-0.043409493,-0.97311836,-0.744353
1747679336.6231663,0.40531808,0.43332362,0.76664484,-0.043409493,-0.97311836,-0.744353
1747679336.6237142,0.40531808,0.43332362,0.76664484,-0.043409493,-0.97311836,-0.744353
1747679336.6242573,0.40531808,0.43332362,0.76664484,-0.116912685,-0.9773794,-0.99895096
1747679336.6286213,0.27596775,0.42649004,0.7441915,-0.116912685,-0.9773794,-0.99895096
1747679336.6291888,0.27596775,0.42649004,0.7441915,-0.116912685,-0.9773794,-0.99895096
1747679336.6297374,0.27596775,0.42649004,0.7441915,-0.116912685,-0.9773794,-0.99895096
1747679336.6304083,0.27596775,0.42649004,0.7441915,-0.18615483,-0.95287836,-1.0767152
1747679336.6309571,0.27596775,0.42649004,0.7441915,-0.18615483,-0.95287836,-1.0767152
1747679336.6314926,0.27596775,0.42649004,0.7441915,-0.18615483,-0.95287836,-1.0767152
1747679336.6320293,0.27596775,0.42649004,0.7441915,-0.18615483,-0.95287836,-1.0767152
1747679336.6325667,0.15101042,0.42258513,0.7383342,-0.18615483,-0.95287836,-1.0767152
1747679336.633105,0.15101042,0.42258513,0.7383342,-0.18615483,-0.95287836,-1.0767152
1747679336.6336415,0.15101042,0.42258513,0.7383342,-0.18615483,-0.95287836,-1.0767152
1747679336.6341763,0.15101042,0.42258513,0.7383342,-0.18615483,-0.95287836,-1.0767152
1747679336.6347117,0.15101042,0.42258513,0.7383342,-0.18615483,-0.95287836,-1.0767152
1747679336.6352654,0.15101042,0.42258513,0.7383342,-0.18615483,-0.95287836,-1.0767152
1747679336.6358202,0.15101042,0.42258513,0.7383342,-0.18615483,-0.95287836,-1.0767152
1747679336.6363597,0.15101042,0.42258513,0.7383342,-0.18615483,-0.95287836,-1.0767152
1747679336.636893,0.15101042,0.42258513,0.7383342,-0.18615483,-0.95287836,-1.0767152
1747679336.6374528,0.15101042,0.42258513,0.7383342,-0.18615483,-0.95287836,-1.0767152
1747679336.6379852,0.15101042,0.42258513,0.7383342,-0.18615483,-0.95287836,-1.0767152
1747679336.6385257,0.15101042,0.42258513,0.7383342,-0.18615483,-0.95287836,-1.0767152
1747679336.6390476,0.15101042,0.42258513,0.7383342,-0.18615483,-0.95287836,-1.0767152
1747679336.63957,0.15101042,0.42258513,0.7383342,-0.18615483,-0.95287836,-1.0767152
1747679336.640089,0.15101042,0.42258513,0.7383342,-0.18615483,-0.95287836,-1.0767152
1747679336.640612,0.15101042,0.42258513,0.7383342,-0.18615483,-0.95287836,-1.0767152
1747679336.6411352,0.04997072,0.422097,0.7793358,-0.18615483,-0.95287836,-1.0767152
1747679336.6416936,0.04997072,0.422097,0.7793358,-0.18615483,-0.95287836,-1.0767152
1747679336.6422462,0.04997072,0.422097,0.7793358,-0.20746009,-1.0125331,-1.071389
1747679336.6427798,0.04997072,0.422097,0.7793358,-0.20746009,-1.0125331,-1.071389
1747679336.6433,0.04997072,0.422097,0.7793358,-0.20746009,-1.0125331,-1.071389
1747679336.6438556,0.04997072,0.422097,0.7793358,-0.20746009,-1.0125331,-1.071389
1747679336.6444283,0.04997072,0.422097,0.7793358,-0.20746009,-1.0125331,-1.071389
1747679336.6449575,0.04997072,0.422097,0.7793358,-0.20746009,-1.0125331,-1.071389
1747679336.6454778,0.04997072,0.422097,0.7793358,-0.20746009,-1.0125331,-1.071389
1747679336.6459973,0.04997072,0.422097,0.7793358,-0.20746009,-1.0125331,-1.071389
1747679336.6465163,0.04997072,0.422097,0.7793358,-0.20746009,-1.0125331,-1.071389
1747679336.647035,0.04997072,0.422097,0.7793358,-0.20746009,-1.0125331,-1.071389
1747679336.6475537,0.04997072,0.422097,0.7793358,-0.20746009,-1.0125331,-1.071389
1747679336.6480722,0.04997072,0.422097,0.7793358,-0.20746009,-1.0125331,-1.071389
1747679336.6485903,0.04997072,0.422097,0.7793358,-0.20746009,-1.0125331,-1.071389
1747679336.6491084,0.04997072,0.422097,0.7793358,-0.20746009,-1.0125331,-1.071389
1747679336.649627,0.04997072,0.422097,0.7793358,-0.20746009,-1.0125331,-1.071389
1747679336.650145,0.04997072,0.422097,0.7793358,-0.20746009,-1.0125331,-1.071389
1747679336.6506639,0.056316208,0.41428718,0.81106323,-0.20746009,-1.0125331,-1.071389
1747679336.6511831,0.056316208,0.41428718,0.81106323,-0.15206638,-1.1776489,-1.0618016
1747679336.6517017,0.056316208,0.41428718,0.81106323,-0.15206638,-1.1776489,-1.0618016
1747679336.6522202,0.056316208,0.41428718,0.81106323,-0.15206638,-1.1776489,-1.0618016
1747679336.6527386,0.056316208,0.41428718,0.81106323,-0.15206638,-1.1776489,-1.0618016
1747679336.6533282,0.056316208,0.41428718,0.81106323,-0.15206638,-1.1776489,-1.0618016
1747679336.65388,0.056316208,0.41428718,0.81106323,-0.15206638,-1.1776489,-1.0618016
1747679336.654436,0.056316208,0.41428718,0.81106323,-0.15206638,-1.1776489,-1.0618016
1747679336.6550066,0.056316208,0.41428718,0.81106323,-0.15206638,-1.1776489,-1.0618016
1747679336.6555676,0.056316208,0.41428718,0.81106323,-0.15206638,-1.1776489,-1.0618016
1747679336.656134,0.056316208,0.41428718,0.81106323,-0.15206638,-1.1776489,-1.0618016
1747679336.6571481,0.056316208,0.41428718,0.81106323,-0.15206638,-1.1776489,-1.0618016
1747679336.65774,0.056316208,0.41428718,0.81106323,-0.15206638,-1.1776489,-1.0618016
1747679336.6583016,0.056316208,0.41428718,0.81106323,-0.15206638,-1.1776489,-1.0618016
1747679336.6588511,0.056316208,0.41428718,0.81106323,-0.15206638,-1.1776489,-1.0618016
1747679336.659384,0.056316208,0.41428718,0.81106323,-0.15206638,-1.1776489,-1.0618016
1747679336.6599045,0.056316208,0.41428718,0.81106323,-0.15206638,-1.1776489,-1.0618016
1747679336.6604269,0.056316208,0.41428718,0.81106323,-0.15206638,-1.1776489,-1.0618016
1747679336.660949,0.056316208,0.41428718,0.81106323,-0.03062633,-1.3811144,-1.0841721
1747679336.6614716,0.08121005,0.39622694,0.8457194,-0.03062633,-1.3811144,-1.0841721
1747679336.6619935,0.08121005,0.39622694,0.8457194,-0.03062633,-1.3811144,-1.0841721
1747679336.6625152,0.08121005,0.39622694,0.8457194,-0.03062633,-1.3811144,-1.0841721
1747679336.6630368,0.08121005,0.39622694,0.8457194,-0.03062633,-1.3811144,-1.0841721
1747679336.6635904,0.08121005,0.39622694,0.8457194,-0.03062633,-1.3811144,-1.0841721
1747679336.6641414,0.08121005,0.39622694,0.8457194,-0.03062633,-1.3811144,-1.0841721
1747679336.6646662,0.08121005,0.39622694,0.8457194,-0.03062633,-1.3811144,-1.0841721
1747679336.6651876,0.08121005,0.39622694,0.8457194,-0.03062633,-1.3811144,-1.0841721
1747679336.665709,0.08121005,0.39622694,0.8457194,-0.03062633,-1.3811144,-1.0841721
1747679336.6662304,0.08121005,0.39622694,0.8457194,-0.03062633,-1.3811144,-1.0841721
1747679336.6667519,0.08121005,0.39622694,0.8457194,-0.03062633,-1.3811144,-1.0841721
1747679336.667273,0.08121005,0.39622694,0.8457194,-0.03062633,-1.3811144,-1.0841721
1747679336.6677942,0.08121005,0.39622694,0.8457194,-0.03062633,-1.3811144,-1.0841721
1747679336.6683328,0.08121005,0.39622694,0.8457194,-0.03062633,-1.3811144,-1.0841721
1747679336.6688898,0.08121005,0.39622694,0.8457194,-0.03062633,-1.3811144,-1.0841721
1747679336.6694534,0.08121005,0.39622694,0.8457194,-0.03062633,-1.3811144,-1.0841721
1747679336.6700041,0.08121005,0.39622694,0.8457194,-0.03062633,-1.3811144,-1.0841721
1747679336.6705475,0.08121005,0.39622694,0.8457194,-0.03062633,-1.3811144,-1.0841721
1747679336.67109,0.08121005,0.39622694,0.8457194,-0.03062633,-1.3811144,-1.0841721
1747679336.6716297,0.075840786,0.387929,0.8427907,0.16005586,-1.6431692,-1.1310437
1747679336.67217,0.075840786,0.387929,0.8427907,0.16005586,-1.6431692,-1.1310437
1747679336.6727238,0.075840786,0.387929,0.8427907,0.16005586,-1.6431692,-1.1310437
1747679336.6733694,0.075840786,0.387929,0.8427907,0.16005586,-1.6431692,-1.1310437
1747679336.6739407,0.075840786,0.387929,0.8427907,0.16005586,-1.6431692,-1.1310437
1747679336.674491,0.075840786,0.387929,0.8427907,0.16005586,-1.6431692,-1.1310437
1747679336.6750207,0.075840786,0.387929,0.8427907,0.16005586,-1.6431692,-1.1310437
1747679336.6755512,0.075840786,0.387929,0.8427907,0.16005586,-1.6431692,-1.1310437
1747679336.6760628,0.075840786,0.387929,0.8427907,0.16005586,-1.6431692,-1.1310437
1747679336.6765895,0.075840786,0.387929,0.8427907,0.16005586,-1.6431692,-1.1310437
1747679336.6771128,0.075840786,0.387929,0.8427907,0.16005586,-1.6431692,-1.1310437
1747679336.677635,0.075840786,0.387929,0.8427907,0.16005586,-1.6431692,-1.1310437
1747679336.6781578,0.075840786,0.387929,0.8427907,0.16005586,-1.6431692,-1.1310437
1747679336.6786797,0.075840786,0.387929,0.8427907,0.16005586,-1.6431692,-1.1310437
1747679336.6792023,0.075840786,0.387929,0.8427907,0.16005586,-1.6431692,-1.1310437
1747679336.6797254,0.075840786,0.387929,0.8427907,0.16005586,-1.6431692,-1.1310437
1747679336.6802573,0.03679163,0.38597652,0.7446797,0.36032543,-1.9595525,-1.1779152
1747679336.6807892,0.03679163,0.38597652,0.7446797,0.36032543,-1.9595525,-1.1779152
1747679336.681314,0.03679163,0.38597652,0.7446797,0.36032543,-1.9595525,-1.1779152
1747679336.681837,0.03679163,0.38597652,0.7446797,0.36032543,-1.9595525,-1.1779152
1747679336.6823597,0.03679163,0.38597652,0.7446797,0.36032543,-1.9595525,-1.1779152
1747679336.6828823,0.03679163,0.38597652,0.7446797,0.36032543,-1.9595525,-1.1779152
1747679336.6834047,0.03679163,0.38597652,0.7446797,0.36032543,-1.9595525,-1.1779152
1747679336.6840606,0.03679163,0.38597652,0.7446797,0.36032543,-1.9595525,-1.1779152
1747679336.6846666,0.03679163,0.38597652,0.7446797,0.36032543,-1.9595525,-1.1779152
1747679336.6852295,0.03679163,0.38597652,0.7446797,0.36032543,-1.9595525,-1.1779152
1747679336.6857774,0.03679163,0.38597652,0.7446797,0.36032543,-1.9595525,-1.1779152
1747679336.6863184,0.03679163,0.38597652,0.7446797,0.36032543,-1.9595525,-1.1779152
1747679336.6868577,0.03679163,0.38597652,0.7446797,0.36032543,-1.9595525,-1.1779152
1747679336.6874208,0.03679163,0.38597652,0.7446797,0.36032543,-1.9595525,-1.1779152
1747679336.6879952,0.03679163,0.38597652,0.7446797,0.36032543,-1.9595525,-1.1779152
1747679336.688769,0.03679163,0.38597652,0.7446797,0.36032543,-1.9595525,-1.1779152
1747679336.6893277,0.03679163,0.38597652,0.7446797,0.36032543,-1.9595525,-1.1779152
1747679336.689866,0.03679163,0.38597652,0.7446797,0.36032543,-1.9595525,-1.1779152
1747679336.6903903,0.03679163,0.38597652,0.7446797,0.36032543,-1.9595525,-1.1779152
1747679336.6909132,0.03679163,0.38597652,0.7446797,0.36032543,-1.9595525,-1.1779152
1747679336.691436,0.03679163,0.38597652,0.7446797,0.36032543,-1.9595525,-1.1779152
1747679336.6919584,0.03679163,0.38597652,0.7446797,0.36032543,-1.9595525,-1.1779152
1747679336.6924856,0.03679163,0.38597652,0.7446797,0.36032543,-1.9595525,-1.1779152
1747679336.6930087,0.03679163,0.38597652,0.7446797,0.36032543,-1.9595525,-1.1779152
1747679336.6935313,0.03679163,0.38597652,0.7446797,0.36032543,-1.9595525,-1.1779152
1747679336.6940997,-0.016900964,0.3815835,0.6841535,0.46152547,-2.1939104,-1.1821764
1747679336.6946373,-0.016900964,0.3815835,0.6841535,0.46152547,-2.1939104,-1.1821764
1747679336.6951632,-0.016900964,0.3815835,0.6841535,0.46152547,-2.1939104,-1.1821764
1747679336.6956863,-0.016900964,0.3815835,0.6841535,0.46152547,-2.1939104,-1.1821764
1747679336.6962092,-0.016900964,0.3815835,0.6841535,0.46152547,-2.1939104,-1.1821764
1747679336.6967332,-0.016900964,0.3815835,0.6841535,0.46152547,-2.1939104,-1.1821764
1747679336.697256,-0.016900964,0.3815835,0.6841535,0.46152547,-2.1939104,-1.1821764
1747679336.6977787,-0.016900964,0.3815835,0.6841535,0.46152547,-2.1939104,-1.1821764
1747679336.6983008,-0.016900964,0.3815835,0.6841535,0.46152547,-2.1939104,-1.1821764
1747679336.698823,-0.016900964,0.3815835,0.6841535,0.46152547,-2.1939104,-1.1821764
1747679336.6993756,-0.016900964,0.3815835,0.6841535,0.46152547,-2.1939104,-1.1821764
1747679336.6999254,-0.016900964,0.3815835,0.6841535,0.46152547,-2.1939104,-1.1821764
1747679336.700455,-0.016900964,0.3815835,0.6841535,0.46152547,-2.1939104,-1.1821764
1747679336.7009773,-0.016900964,0.3815835,0.6841535,0.46152547,-2.1939104,-1.1821764
1747679336.7015288,-0.016900964,0.3815835,0.6841535,0.46152547,-2.1939104,-1.1821764
1747679336.7020693,-0.09988043,0.35864213,0.53430235,0.46152547,-2.1939104,-1.1821764
1747679336.7026021,-0.09988043,0.35864213,0.53430235,0.6245108,-2.777675,-1.0692583
1747679336.7031293,-0.09988043,0.35864213,0.53430235,0.6245108,-2.777675,-1.0692583
1747679336.7036552,-0.09988043,0.35864213,0.53430235,0.6245108,-2.777675,-1.0692583
1747679336.7041929,-0.09988043,0.35864213,0.53430235,0.6245108,-2.777675,-1.0692583
1747679336.7047539,-0.09988043,0.35864213,0.53430235,0.6245108,-2.777675,-1.0692583
1747679336.7053096,-0.09988043,0.35864213,0.53430235,0.6245108,-2.777675,-1.0692583
1747679336.705847,-0.09988043,0.35864213,0.53430235,0.6245108,-2.777675,-1.0692583
1747679336.7063708,-0.09988043,0.35864213,0.53430235,0.6245108,-2.777675,-1.0692583
1747679336.7068932,-0.09988043,0.35864213,0.53430235,0.6245108,-2.777675,-1.0692583
1747679336.7074158,-0.09988043,0.35864213,0.53430235,0.6245108,-2.777675,-1.0692583
1747679336.7079382,-0.09988043,0.35864213,0.53430235,0.6245108,-2.777675,-1.0692583
1747679336.7084608,-0.09988043,0.35864213,0.53430235,0.6245108,-2.777675,-1.0692583
1747679336.708983,-0.09988043,0.35864213,0.53430235,0.6245108,-2.777675,-1.0692583
1747679336.7095053,-0.09988043,0.35864213,0.53430235,0.6245108,-2.777675,-1.0692583
1747679336.7100277,-0.09988043,0.35864213,0.53430235,0.6245108,-2.777675,-1.0692583
1747679336.71055,-0.09988043,0.35864213,0.53430235,0.6245108,-2.777675,-1.0692583
1747679336.7110722,-0.09988043,0.35864213,0.53430235,0.6245108,-2.777675,-1.0692583
1747679336.7115943,-0.09988043,0.35864213,0.53430235,0.6245108,-2.777675,-1.0692583
1747679336.7121165,-0.09988043,0.35864213,0.53430235,0.6245108,-2.777675,-1.0692583
1747679336.7126555,-0.09988043,0.35864213,0.53430235,0.6245108,-2.777675,-1.0692583
1747679336.7131844,-0.09988043,0.35864213,0.53430235,0.6245108,-2.777675,-1.0692583
1747679336.713732,-0.09988043,0.35864213,0.53430235,0.6245108,-2.777675,-1.0692583
1747679336.7142782,-0.09988043,0.35864213,0.53430235,0.6245108,-2.777675,-1.0692583
1747679336.7148337,-0.09597551,0.34692737,0.4210598,0.62877184,-3.045056,-0.94355726
1747679336.7153802,-0.09597551,0.34692737,0.4210598,0.62877184,-3.045056,-0.94355726
1747679336.715922,-0.09597551,0.34692737,0.4210598,0.62877184,-3.045056,-0.94355726
1747679336.7164598,-0.09597551,0.34692737,0.4210598,0.62877184,-3.045056,-0.94355726
1747679336.7169838,-0.09597551,0.34692737,0.4210598,0.62877184,-3.045056,-0.94355726
1747679336.7175066,-0.09597551,0.34692737,0.4210598,0.62877184,-3.045056,-0.94355726
1747679336.718029,-0.09597551,0.34692737,0.4210598,0.62877184,-3.045056,-0.94355726
1747679336.7185514,-0.09597551,0.34692737,0.4210598,0.62877184,-3.045056,-0.94355726
1747679336.7190888,-0.09597551,0.34692737,0.4210598,0.62877184,-3.045056,-0.94355726
1747679336.7196512,-0.09597551,0.34692737,0.4210598,0.62877184,-3.045056,-0.94355726
1747679336.7202125,-0.09597551,0.34692737,0.4210598,0.62877184,-3.045056,-0.94355726
1747679336.7207499,-0.09597551,0.34692737,0.4210598,0.62877184,-3.045056,-0.94355726
1747679336.7212734,-0.09597551,0.34692737,0.4210598,0.62877184,-3.045056,-0.94355726
1747679336.721796,-0.09597551,0.34692737,0.4210598,0.62877184,-3.045056,-0.94355726
1747679336.722319,-0.09597551,0.34692737,0.4210598,0.62877184,-3.045056,-0.94355726
1747679336.7228415,-0.09597551,0.34692737,0.4210598,0.62877184,-3.045056,-0.94355726
1747679336.7233644,-0.09597551,0.34692737,0.4210598,0.62877184,-3.045056,-0.94355726
1747679336.7238917,-0.09597551,0.34692737,0.4210598,0.62877184,-3.045056,-0.94355726
1747679336.724435,-0.09597551,0.34692737,0.4210598,0.62877184,-3.045056,-0.94355726
1747679336.7249672,-0.09597551,0.34692737,0.4210598,0.62877184,-3.045056,-0.94355726
1747679336.7254982,-0.0652243,0.32252166,0.26925614,0.46152547,-3.2357383,-0.7773761
1747679336.7260568,-0.0652243,0.32252166,0.26925614,0.46152547,-3.2357383,-0.7773761
1747679336.726589,-0.0652243,0.32252166,0.26925614,0.46152547,-3.2357383,-0.7773761
1747679336.7271116,-0.0652243,0.32252166,0.26925614,0.46152547,-3.2357383,-0.7773761
1747679336.727634,-0.0652243,0.32252166,0.26925614,0.46152547,-3.2357383,-0.7773761
1747679336.728156,-0.0652243,0.32252166,0.26925614,0.46152547,-3.2357383,-0.7773761
1747679336.7286782,-0.0652243,0.32252166,0.26925614,0.46152547,-3.2357383,-0.7773761
1747679336.7292004,-0.0652243,0.32252166,0.26925614,0.46152547,-3.2357383,-0.7773761
1747679336.7297502,-0.0652243,0.32252166,0.26925614,0.46152547,-3.2357383,-0.7773761
1747679336.7302926,-0.0652243,0.32252166,0.26925614,0.46152547,-3.2357383,-0.7773761
1747679336.7308214,-0.0652243,0.32252166,0.26925614,0.46152547,-3.2357383,-0.7773761
1747679336.7313445,-0.0652243,0.32252166,0.26925614,0.46152547,-3.2357383,-0.7773761
1747679336.7318666,-0.0652243,0.32252166,0.26925614,0.46152547,-3.2357383,-0.7773761
1747679336.732389,-0.0652243,0.32252166,0.26925614,0.46152547,-3.2357383,-0.7773761
1747679336.732911,-0.0652243,0.32252166,0.26925614,0.46152547,-3.2357383,-0.7773761
1747679336.7334332,-0.0652243,0.32252166,0.26925614,0.46152547,-3.2357383,-0.7773761
1747679336.7339604,-0.0652243,0.32252166,0.26925614,0.46152547,-3.2357383,-0.7773761
1747679336.734496,-0.0652243,0.32252166,0.26925614,0.46152547,-3.2357383,-0.7773761
1747679336.7350698,-0.0652243,0.32252166,0.26925614,0.46152547,-3.2357383,-0.7773761
1747679336.7356327,-0.0652243,0.32252166,0.26925614,0.46152547,-3.2357383,-0.7773761
1747679336.7361863,-0.01201982,0.29177046,0.16577588,0.46152547,-3.2357383,-0.7773761
1747679336.7367237,-0.01201982,0.29177046,0.16577588,0.46152547,-3.2357383,-0.7773761
1747679336.7372684,-0.01201982,0.29177046,0.16577588,0.040746335,-3.1356034,-0.5589971
1747679336.7377982,-0.01201982,0.29177046,0.16577588,0.040746335,-3.1356034,-0.5589971
1747679336.7383213,-0.01201982,0.29177046,0.16577588,0.040746335,-3.1356034,-0.5589971
1747679336.7388442,-0.01201982,0.29177046,0.16577588,0.040746335,-3.1356034,-0.5589971
1747679336.7393663,-0.01201982,0.29177046,0.16577588,0.040746335,-3.1356034,-0.5589971
1747679336.739889,-0.01201982,0.29177046,0.16577588,0.040746335,-3.1356034,-0.5589971
1747679336.740411,-0.01201982,0.29177046,0.16577588,0.040746335,-3.1356034,-0.5589971
1747679336.7409334,-0.01201982,0.29177046,0.16577588,0.040746335,-3.1356034,-0.5589971
1747679336.7414556,-0.01201982,0.29177046,0.16577588,0.040746335,-3.1356034,-0.5589971
1747679336.741978,-0.01201982,0.29177046,0.16577588,0.040746335,-3.1356034,-0.5589971
1747679336.7424998,-0.01201982,0.29177046,0.16577588,0.040746335,-3.1356034,-0.5589971
1747679336.743022,-0.01201982,0.29177046,0.16577588,0.040746335,-3.1356034,-0.5589971
1747679336.743555,-0.01201982,0.29177046,0.16577588,0.040746335,-3.1356034,-0.5589971
1747679336.7440822,-0.01201982,0.29177046,0.16577588,0.040746335,-3.1356034,-0.5589971
1747679336.7446368,-0.01201982,0.29177046,0.16577588,0.040746335,-3.1356034,-0.5589971
1747679336.745192,-0.01201982,0.29177046,0.16577588,0.040746335,-3.1356034,-0.5589971
1747679336.7457442,-0.01201982,0.29177046,0.16577588,0.040746335,-3.1356034,-0.5589971
1747679336.7462914,-0.01201982,0.29177046,0.16577588,0.040746335,-3.1356034,-0.5589971
1747679336.7468288,0.13490264,0.26101923,0.17358571,-0.39068544,-2.8149593,-0.4066644
1747679336.7473626,0.13490264,0.26101923,0.17358571,-0.39068544,-2.8149593,-0.4066644
1747679336.7478845,0.13490264,0.26101923,0.17358571,-0.39068544,-2.8149593,-0.4066644
1747679336.748407,0.13490264,0.26101923,0.17358571,-0.39068544,-2.8149593,-0.4066644
1747679336.7489262,0.13490264,0.26101923,0.17358571,-0.39068544,-2.8149593,-0.4066644
1747679336.7494452,0.13490264,0.26101923,0.17358571,-0.39068544,-2.8149593,-0.4066644
1747679336.7499645,0.13490264,0.26101923,0.17358571,-0.39068544,-2.8149593,-0.4066644
1747679336.7504838,0.13490264,0.26101923,0.17358571,-0.39068544,-2.8149593,-0.4066644
1747679336.7510052,0.13490264,0.26101923,0.17358571,-0.39068544,-2.8149593,-0.4066644
1747679336.7515497,0.13490264,0.26101923,0.17358571,-0.39068544,-2.8149593,-0.4066644
1747679336.7520936,0.13490264,0.26101923,0.17358571,-0.39068544,-2.8149593,-0.4066644
1747679336.752627,0.13490264,0.26101923,0.17358571,-0.39068544,-2.8149593,-0.4066644
1747679336.7531474,0.13490264,0.26101923,0.17358571,-0.39068544,-2.8149593,-0.4066644
1747679336.7536666,0.13490264,0.26101923,0.17358571,-0.39068544,-2.8149593,-0.4066644
1747679336.7542202,0.13490264,0.26101923,0.17358571,-0.39068544,-2.8149593,-0.4066644
1747679336.7547843,0.13490264,0.26101923,0.17358571,-0.39068544,-2.8149593,-0.4066644
1747679336.7553132,0.13490264,0.26101923,0.17358571,-0.39068544,-2.8149593,-0.4066644
1747679336.7558336,0.13490264,0.26101923,0.17358571,-0.39068544,-2.8149593,-0.4066644
1747679336.7563524,0.13490264,0.26101923,0.17358571,-0.39068544,-2.8149593,-0.4066644
1747679336.7568712,0.13490264,0.26101923,0.17358571,-0.39068544,-2.8149593,-0.4066644
1747679336.7573898,0.13490264,0.26101923,0.17358571,-0.39068544,-2.8149593,-0.4066644
1747679336.7579086,0.13490264,0.26101923,0.17358571,-0.39068544,-2.8149593,-0.4066644
1747679336.7584274,0.13490264,0.26101923,0.17358571,-0.39068544,-2.8149593,-0.4066644
1747679336.758946,0.13490264,0.26101923,0.17358571,-0.39068544,-2.8149593,-0.4066644
1747679336.7594647,0.13490264,0.26101923,0.17358571,-0.39068544,-2.8149593,-0.4066644
1747679336.7600234,0.13490264,0.26101923,0.17358571,-0.39068544,-2.8149593,-0.4066644
1747679336.7605774,0.13490264,0.26101923,0.17358571,-0.39068544,-2.8149593,-0.4066644
1747679336.7611048,0.13490264,0.26101923,0.17358571,-0.39068544,-2.8149593,-0.4066644
1747679336.7616274,0.43802178,0.18780205,0.3776176,-1.1404979,-2.2056284,-0.49614653
1747679336.7621498,0.43802178,0.18780205,0.3776176,-1.1404979,-2.2056284,-0.49614653
1747679336.7626739,0.43802178,0.18780205,0.3776176,-1.1404979,-2.2056284,-0.49614653
1747679336.7631958,0.43802178,0.18780205,0.3776176,-1.1404979,-2.2056284,-0.49614653
1747679336.7637305,0.43802178,0.18780205,0.3776176,-1.1404979,-2.2056284,-0.49614653
1747679336.7642832,0.43802178,0.18780205,0.3776176,-1.1404979,-2.2056284,-0.49614653
1747679336.7648113,0.43802178,0.18780205,0.3776176,-1.1404979,-2.2056284,-0.49614653
1747679336.7653391,0.43802178,0.18780205,0.3776176,-1.1404979,-2.2056284,-0.49614653
1747679336.7659018,0.43802178,0.18780205,0.3776176,-1.1404979,-2.2056284,-0.49614653
1747679336.7664535,0.43802178,0.18780205,0.3776176,-1.1404979,-2.2056284,-0.49614653
1747679336.7669985,0.43802178,0.18780205,0.3776176,-1.1404979,-2.2056284,-0.49614653
1747679336.7675352,0.43802178,0.18780205,0.3776176,-1.1404979,-2.2056284,-0.49614653
1747679336.7680576,0.43802178,0.18780205,0.3776176,-1.1404979,-2.2056284,-0.49614653
1747679336.7685788,0.43802178,0.18780205,0.3776176,-1.1404979,-2.2056284,-0.49614653
1747679336.7691,0.43802178,0.18780205,0.3776176,-1.1404979,-2.2056284,-0.49614653
1747679336.7696216,0.43802178,0.18780205,0.3776176,-1.1404979,-2.2056284,-0.49614653
1747679336.770143,0.43802178,0.18780205,0.3776176,-1.1404979,-2.2056284,-0.49614653
1747679336.7706647,0.43802178,0.18780205,0.3776176,-1.1404979,-2.2056284,-0.49614653
1747679336.7711866,0.43802178,0.18780205,0.3776176,-1.1404979,-2.2056284,-0.49614653
1747679336.771709,0.43802178,0.18780205,0.3776176,-1.302418,-2.1044283,-0.66232765
1747679336.7722304,0.43802178,0.18780205,0.3776176,-1.302418,-2.1044283,-0.66232765
1747679336.7727523,0.4599869,0.17511107,0.5606605,-1.302418,-2.1044283,-0.66232765
1747679336.7732742,0.4599869,0.17511107,0.5606605,-1.302418,-2.1044283,-0.66232765
1747679336.7738097,0.4599869,0.17511107,0.5606605,-1.302418,-2.1044283,-0.66232765
1747679336.7743642,0.4599869,0.17511107,0.5606605,-1.302418,-2.1044283,-0.66232765
1747679336.7750793,0.4599869,0.17511107,0.5606605,-1.302418,-2.1044283,-0.66232765
1747679336.7756333,0.4599869,0.17511107,0.5606605,-1.302418,-2.1044283,-0.66232765
1747679336.7761586,0.4599869,0.17511107,0.5606605,-1.302418,-2.1044283,-0.66232765
1747679336.7767258,0.4599869,0.17511107,0.5606605,-1.302418,-2.1044283,-0.66232765
1747679336.7772675,0.4599869,0.17511107,0.5606605,-1.302418,-2.1044283,-0.66232765
1747679336.7778134,0.4599869,0.17511107,0.5606605,-1.302418,-2.1044283,-0.66232765
1747679336.778334,0.4599869,0.17511107,0.5606605,-1.302418,-2.1044283,-0.66232765
1747679336.7788527,0.4599869,0.17511107,0.5606605,-1.302418,-2.1044283,-0.66232765
1747679336.7793715,0.4599869,0.17511107,0.5606605,-1.302418,-2.1044283,-0.66232765
1747679336.7798905,0.4599869,0.17511107,0.5606605,-1.302418,-2.1044283,-0.66232765
1747679336.7804093,0.4599869,0.17511107,0.5606605,-1.302418,-2.1044283,-0.66232765
1747679336.780928,0.4599869,0.17511107,0.5606605,-1.302418,-2.1044283,-0.66232765
1747679336.7814467,0.4599869,0.17511107,0.5606605,-1.302418,-2.1044283,-0.66232765
1747679336.7819684,0.4599869,0.17511107,0.5606605,-1.2950943,-2.1587567,-0.80933404
1747679336.782514,0.4272832,0.1824328,0.6929395,-1.2950943,-2.1587567,-0.80933404
1747679336.7830558,0.4272832,0.1824328,0.6929395,-1.2950943,-2.1587567,-0.80933404
1747679336.7835903,0.4272832,0.1824328,0.6929395,-1.2950943,-2.1587567,-0.80933404
1747679336.7841442,0.4272832,0.1824328,0.6929395,-1.2950943,-2.1587567,-0.80933404
1747679336.7847066,0.4272832,0.1824328,0.6929395,-1.2950943,-2.1587567,-0.80933404
1747679336.7852361,0.4272832,0.1824328,0.6929395,-1.2950943,-2.1587567,-0.80933404
1747679336.7857563,0.4272832,0.1824328,0.6929395,-1.2950943,-2.1587567,-0.80933404
1747679336.7862759,0.4272832,0.1824328,0.6929395,-1.2950943,-2.1587567,-0.80933404
1747679336.7867947,0.4272832,0.1824328,0.6929395,-1.2950943,-2.1587567,-0.80933404
1747679336.7873132,0.4272832,0.1824328,0.6929395,-1.2950943,-2.1587567,-0.80933404
1747679336.7878323,0.4272832,0.1824328,0.6929395,-1.2950943,-2.1587567,-0.80933404
1747679336.7883515,0.4272832,0.1824328,0.6929395,-1.2950943,-2.1587567,-0.80933404
1747679336.78887,0.4272832,0.1824328,0.6929395,-1.2950943,-2.1587567,-0.80933404
1747679336.7893887,0.4272832,0.1824328,0.6929395,-1.2950943,-2.1587567,-0.80933404
1747679336.7899072,0.4272832,0.1824328,0.6929395,-1.2950943,-2.1587567,-0.80933404
1747679336.7904422,0.4272832,0.1824328,0.6929395,-1.2950943,-2.1587567,-0.80933404
1747679336.7909946,0.4272832,0.1824328,0.6929395,-1.2950943,-2.1587567,-0.80933404
1747679336.7915368,0.4272832,0.1824328,0.6929395,-1.2950943,-2.1587567,-0.80933404
1747679336.7920759,0.4272832,0.1824328,0.6929395,-1.2950943,-2.1587567,-0.80933404
1747679336.7926047,0.36089966,0.20927908,0.831564,-1.124519,-2.3664832,-0.88816357
1747679336.793125,0.36089966,0.20927908,0.831564,-1.124519,-2.3664832,-0.88816357
1747679336.793674,0.36089966,0.20927908,0.831564,-1.124519,-2.3664832,-0.88816357
1747679336.7942264,0.36089966,0.20927908,0.831564,-1.124519,-2.3664832,-0.88816357
1747679336.7947495,0.36089966,0.20927908,0.831564,-1.124519,-2.3664832,-0.88816357
1747679336.7952685,0.36089966,0.20927908,0.831564,-1.124519,-2.3664832,-0.88816357
1747679336.7957873,0.36089966,0.20927908,0.831564,-1.124519,-2.3664832,-0.88816357
1747679336.7963057,0.36089966,0.20927908,0.831564,-1.124519,-2.3664832,-0.88816357
1747679336.796824,0.36089966,0.20927908,0.831564,-1.124519,-2.3664832,-0.88816357
1747679336.7973428,0.36089966,0.20927908,0.831564,-1.124519,-2.3664832,-0.88816357
1747679336.797864,0.36089966,0.20927908,0.831564,-1.124519,-2.3664832,-0.88816357
1747679336.7984142,0.36089966,0.20927908,0.831564,-1.124519,-2.3664832,-0.88816357
1747679336.7989864,0.36089966,0.20927908,0.831564,-1.124519,-2.3664832,-0.88816357
1747679336.7995203,0.36089966,0.20927908,0.831564,-1.124519,-2.3664832,-0.88816357
1747679336.80004,0.36089966,0.20927908,0.831564,-1.124519,-2.3664832,-0.88816357
1747679336.800559,0.36089966,0.20927908,0.831564,-1.124519,-2.3664832,-0.88816357
1747679336.801078,0.36089966,0.20927908,0.831564,-1.124519,-2.3664832,-0.88816357
1747679336.8015976,0.36089966,0.20927908,0.831564,-1.124519,-2.3664832,-0.88816357
1747679336.8021169,0.36089966,0.20927908,0.831564,-1.124519,-2.3664832,-0.88816357
1747679336.8026364,0.33063656,0.24588768,0.90234065,-0.82318246,-2.7201507,-0.8892288
1747679336.8031557,0.33063656,0.24588768,0.90234065,-0.82318246,-2.7201507,-0.8892288
1747679336.8036742,0.33063656,0.24588768,0.90234065,-0.82318246,-2.7201507,-0.8892288
1747679336.8042102,0.33063656,0.24588768,0.90234065,-0.82318246,-2.7201507,-0.8892288
1747679336.804762,0.33063656,0.24588768,0.90234065,-0.82318246,-2.7201507,-0.8892288
1747679336.8053749,0.33063656,0.24588768,0.90234065,-0.82318246,-2.7201507,-0.8892288
1747679336.8059258,0.33063656,0.24588768,0.90234065,-0.82318246,-2.7201507,-0.8892288
1747679336.8064642,0.33063656,0.24588768,0.90234065,-0.82318246,-2.7201507,-0.8892288
1747679336.8070133,0.33063656,0.24588768,0.90234065,-0.82318246,-2.7201507,-0.8892288
1747679336.8075721,0.33063656,0.24588768,0.90234065,-0.82318246,-2.7201507,-0.8892288
1747679336.8081303,0.33063656,0.24588768,0.90234065,-0.82318246,-2.7201507,-0.8892288
1747679336.8086772,0.33063656,0.24588768,0.90234065,-0.82318246,-2.7201507,-0.8892288
1747679336.8092217,0.33063656,0.24588768,0.90234065,-0.82318246,-2.7201507,-0.8892288
1747679336.809766,0.33063656,0.24588768,0.90234065,-0.82318246,-2.7201507,-0.8892288
1747679336.810309,0.33063656,0.24588768,0.90234065,-0.82318246,-2.7201507,-0.8892288
1747679336.8108447,0.33063656,0.24588768,0.90234065,-0.82318246,-2.7201507,-0.8892288
1747679336.8113775,0.33063656,0.24588768,0.90234065,-0.82318246,-2.7201507,-0.8892288
1747679336.8119142,0.33063656,0.24588768,0.90234065,-0.82318246,-2.7201507,-0.8892288
1747679336.8124497,0.33063656,0.24588768,0.90234065,-0.82318246,-2.7201507,-0.8892288
1747679336.813007,0.33063656,0.24588768,0.90234065,-0.62291294,-2.9779446,-0.86472774
1747679336.813601,0.33063656,0.24588768,0.90234065,-0.62291294,-2.9779446,-0.86472774
1747679336.8143759,0.3521136,0.26590037,0.9057574,-0.62291294,-2.9779446,-0.86472774
1747679336.8149269,0.3521136,0.26590037,0.9057574,-0.62291294,-2.9779446,-0.86472774
1747679336.81548,0.3521136,0.26590037,0.9057574,-0.62291294,-2.9779446,-0.86472774
1747679336.8160357,0.3521136,0.26590037,0.9057574,-0.62291294,-2.9779446,-0.86472774
1747679336.8166163,0.3521136,0.26590037,0.9057574,-0.62291294,-2.9779446,-0.86472774
1747679336.817158,0.3521136,0.26590037,0.9057574,-0.62291294,-2.9779446,-0.86472774
1747679336.8176994,0.3521136,0.26590037,0.9057574,-0.62291294,-2.9779446,-0.86472774
1747679336.8182383,0.3521136,0.26590037,0.9057574,-0.62291294,-2.9779446,-0.86472774
1747679336.8187666,0.3521136,0.26590037,0.9057574,-0.62291294,-2.9779446,-0.86472774
1747679336.819298,0.3521136,0.26590037,0.9057574,-0.62291294,-2.9779446,-0.86472774
1747679336.8198369,0.3521136,0.26590037,0.9057574,-0.62291294,-2.9779446,-0.86472774
1747679336.8203661,0.3521136,0.26590037,0.9057574,-0.62291294,-2.9779446,-0.86472774
1747679336.8209074,0.3521136,0.26590037,0.9057574,-0.62291294,-2.9779446,-0.86472774
1747679336.8214462,0.3521136,0.26590037,0.9057574,-0.62291294,-2.9779446,-0.86472774
1747679336.8219929,0.3521136,0.26590037,0.9057574,-0.62291294,-2.9779446,-0.86472774
1747679336.8225312,0.3521136,0.26590037,0.9057574,-0.62291294,-2.9779446,-0.86472774
1747679336.823101,0.3521136,0.26590037,0.9057574,-0.62291294,-2.9779446,-0.86472774
1747679336.8236518,0.3521136,0.26590037,0.9057574,-0.62291294,-2.9779446,-0.86472774
1747679336.8241847,0.3521136,0.26590037,0.9057574,-0.62291294,-2.9779446,-0.86472774
1747679336.824709,0.3521136,0.26590037,0.9057574,-0.62291294,-2.9779446,-0.86472774
1747679336.825245,0.3521136,0.26590037,0.9057574,-0.62291294,-2.9779446,-0.86472774
1747679336.8257828,0.45754632,0.3108069,0.8130157,-0.28096327,-3.4700963,-0.83809614
1747679336.8263068,0.45754632,0.3108069,0.8130157,-0.28096327,-3.4700963,-0.83809614
1747679336.8268297,0.45754632,0.3108069,0.8130157,-0.28096327,-3.4700963,-0.83809614
1747679336.8273518,0.45754632,0.3108069,0.8130157,-0.28096327,-3.4700963,-0.83809614
1747679336.827874,0.45754632,0.3108069,0.8130157,-0.28096327,-3.4700963,-0.83809614
1747679336.828396,0.45754632,0.3108069,0.8130157,-0.28096327,-3.4700963,-0.83809614
1747679336.828932,0.45754632,0.3108069,0.8130157,-0.28096327,-3.4700963,-0.83809614
1747679336.8294938,0.45754632,0.3108069,0.8130157,-0.28096327,-3.4700963,-0.83809614
1747679336.8300471,0.45754632,0.3108069,0.8130157,-0.28096327,-3.4700963,-0.83809614
1747679336.8305845,0.45754632,0.3108069,0.8130157,-0.28096327,-3.4700963,-0.83809614
1747679336.831108,0.45754632,0.3108069,0.8130157,-0.28096327,-3.4700963,-0.83809614
1747679336.831631,0.45754632,0.3108069,0.8130157,-0.28096327,-3.4700963,-0.83809614
1747679336.8321533,0.45754632,0.3108069,0.8130157,-0.28096327,-3.4700963,-0.83809614
1747679336.832677,0.45754632,0.3108069,0.8130157,-0.28096327,-3.4700963,-0.83809614
1747679336.8331993,0.45754632,0.3108069,0.8130157,-0.28096327,-3.4700963,-0.83809614
1747679336.8337266,0.45754632,0.3108069,0.8130157,-0.28096327,-3.4700963,-0.83809614
1747679336.8342702,0.45754632,0.3108069,0.8130157,-0.28096327,-3.4700963,-0.83809614
1747679336.8347957,0.45754632,0.3108069,0.8130157,-0.28096327,-3.4700963,-0.83809614
1747679336.8353267,0.5410139,0.33033147,0.60312647,-0.28096327,-3.4700963,-0.83809614
1747679336.8360813,0.5410139,0.33033147,0.60312647,-0.21172115,-3.678888,-0.8114646
1747679336.8366358,0.5410139,0.33033147,0.60312647,-0.21172115,-3.678888,-0.8114646
1747679336.837193,0.5410139,0.33033147,0.60312647,-0.21172115,-3.678888,-0.8114646
1747679336.8377192,0.5410139,0.33033147,0.60312647,-0.21172115,-3.678888,-0.8114646
1747679336.8382418,0.5410139,0.33033147,0.60312647,-0.21172115,-3.678888,-0.8114646
1747679336.8387637,0.5410139,0.33033147,0.60312647,-0.21172115,-3.678888,-0.8114646
1747679336.839286,0.5410139,0.33033147,0.60312647,-0.21172115,-3.678888,-0.8114646
1747679336.8398082,0.5410139,0.33033147,0.60312647,-0.21172115,-3.678888,-0.8114646
1747679336.8403301,0.5410139,0.33033147,0.60312647,-0.21172115,-3.678888,-0.8114646
1747679336.8408525,0.5410139,0.33033147,0.60312647,-0.21172115,-3.678888,-0.8114646
1747679336.8413746,0.5410139,0.33033147,0.60312647,-0.21172115,-3.678888,-0.8114646
1747679336.8418968,0.5410139,0.33033147,0.60312647,-0.21172115,-3.678888,-0.8114646
1747679336.8424196,0.5410139,0.33033147,0.60312647,-0.21172115,-3.678888,-0.8114646
1747679336.8429418,0.5410139,0.33033147,0.60312647,-0.21172115,-3.678888,-0.8114646
1747679336.8434815,0.5410139,0.33033147,0.60312647,-0.21172115,-3.678888,-0.8114646
1747679336.8440273,0.5410139,0.33033147,0.60312647,-0.21172115,-3.678888,-0.8114646
1747679336.8445802,0.5410139,0.33033147,0.60312647,-0.21172115,-3.678888,-0.8114646
1747679336.8451414,0.5410139,0.33033147,0.60312647,-0.21172115,-3.678888,-0.8114646
1747679336.8457048,0.5410139,0.33033147,0.60312647,-0.21172115,-3.678888,-0.8114646
1747679336.8462543,0.5410139,0.33033147,0.60312647,-0.21172115,-3.678888,-0.8114646
1747679336.8468041,0.5410139,0.33033147,0.60312647,-0.21172115,-3.678888,-0.8114646
1747679336.8473501,0.5410139,0.33033147,0.60312647,-0.21172115,-3.678888,-0.8114646
1747679336.8478956,0.5410139,0.33033147,0.60312647,-0.49614653,-3.6895406,-0.82744354
1747679336.8484359,0.65669703,0.31178313,0.42057166,-0.49614653,-3.6895406,-0.82744354
1747679336.8489802,0.65669703,0.31178313,0.42057166,-0.49614653,-3.6895406,-0.82744354
1747679336.849538,0.65669703,0.31178313,0.42057166,-0.49614653,-3.6895406,-0.82744354
1747679336.8500905,0.70502037,0.26882908,0.39421347,-0.49614653,-3.6895406,-0.82744354
1747679336.8506231,0.70502037,0.26882908,0.39421347,-0.49614653,-3.6895406,-0.82744354
1747679336.8512185,0.70502037,0.26882908,0.39421347,-0.8285088,-3.629886,-0.89242464
1747679336.8517618,0.70502037,0.26882908,0.39421347,-0.8285088,-3.629886,-0.89242464
1747679336.852289,0.70502037,0.26882908,0.39421347,-0.8285088,-3.629886,-0.89242464
1747679336.8528118,0.70502037,0.26882908,0.39421347,-0.8285088,-3.629886,-0.89242464
1747679336.8533344,0.70502037,0.26882908,0.39421347,-0.8285088,-3.629886,-0.89242464
1747679336.8538568,0.70502037,0.26882908,0.39421347,-0.8285088,-3.629886,-0.89242464
1747679336.8543835,0.70502037,0.26882908,0.39421347,-0.8285088,-3.629886,-0.89242464
1747679336.8549135,0.70502037,0.26882908,0.39421347,-0.8285088,-3.629886,-0.89242464
1747679336.8554375,0.70502037,0.26882908,0.39421347,-0.8285088,-3.629886,-0.89242464
1747679336.85596,0.70502037,0.26882908,0.39421347,-0.8285088,-3.629886,-0.89242464
1747679336.8564816,0.70502037,0.26882908,0.39421347,-0.8285088,-3.629886,-0.89242464
1747679336.8570204,0.70502037,0.26882908,0.39421347,-0.8285088,-3.629886,-0.89242464
1747679336.8575752,0.70502037,0.26882908,0.39421347,-0.8285088,-3.629886,-0.89242464
1747679336.8581145,0.70502037,0.26882908,0.39421347,-0.8285088,-3.629886,-0.89242464
1747679336.8586524,0.70502037,0.26882908,0.39421347,-0.8285088,-3.629886,-0.89242464
1747679336.8591945,0.70502037,0.26882908,0.39421347,-0.8285088,-3.629886,-0.89242464
1747679336.8598151,0.70502037,0.26882908,0.39421347,-0.8285088,-3.629886,-0.89242464
1747679336.860367,0.70502037,0.26882908,0.39421347,-0.8285088,-3.629886,-0.89242464
1747679336.860925,0.70502037,0.26882908,0.39421347,-0.8285088,-3.629886,-0.89242464
1747679336.8614786,0.73137856,0.1590033,0.49525318,-1.3311801,-3.3497214,-1.0096036
1747679336.8620205,0.73137856,0.1590033,0.49525318,-1.3311801,-3.3497214,-1.0096036
1747679336.86256,0.73137856,0.1590033,0.49525318,-1.3311801,-3.3497214,-1.0096036
1747679336.8631237,0.73137856,0.1590033,0.49525318,-1.3311801,-3.3497214,-1.0096036
1747679336.8636813,0.73137856,0.1590033,0.49525318,-1.3311801,-3.3497214,-1.0096036
1747679336.8642256,0.73137856,0.1590033,0.49525318,-1.3311801,-3.3497214,-1.0096036
1747679336.8647707,0.73137856,0.1590033,0.49525318,-1.3311801,-3.3497214,-1.0096036
1747679336.8653119,0.73137856,0.1590033,0.49525318,-1.3311801,-3.3497214,-1.0096036
1747679336.8658528,0.73137856,0.1590033,0.49525318,-1.3311801,-3.3497214,-1.0096036
1747679336.866504,0.73137856,0.1590033,0.49525318,-1.3311801,-3.3497214,-1.0096036
1747679336.8670602,0.73137856,0.1590033,0.49525318,-1.3311801,-3.3497214,-1.0096036
1747679336.8676038,0.73137856,0.1590033,0.49525318,-1.3311801,-3.3497214,-1.0096036
1747679336.8681483,0.73137856,0.1590033,0.49525318,-1.3311801,-3.3497214,-1.0096036
1747679336.8686986,0.73137856,0.1590033,0.49525318,-1.3311801,-3.3497214,-1.0096036
1747679336.86924,0.73137856,0.1590033,0.49525318,-1.3311801,-3.3497214,-1.0096036
1747679336.869768,0.73137856,0.1590033,0.49525318,-1.3311801,-3.3497214,-1.0096036
1747679336.870295,0.73137856,0.1590033,0.49525318,-1.3311801,-3.3497214,-1.0096036
1747679336.8708389,0.7494388,0.09457218,0.6582834,-1.3311801,-3.3497214,-1.0096036
1747679336.8713849,0.7494388,0.09457218,0.6582834,-1.6327828,-3.14093,-1.1257174
1747679336.8719382,0.7494388,0.09457218,0.6582834,-1.6327828,-3.14093,-1.1257174
1747679336.8724716,0.7494388,0.09457218,0.6582834,-1.6327828,-3.14093,-1.1257174
1747679336.872999,0.7494388,0.09457218,0.6582834,-1.6327828,-3.14093,-1.1257174
1747679336.8735259,0.7494388,0.09457218,0.6582834,-1.6327828,-3.14093,-1.1257174
1747679336.8740587,0.7494388,0.09457218,0.6582834,-1.6327828,-3.14093,-1.1257174
1747679336.874594,0.7494388,0.09457218,0.6582834,-1.6327828,-3.14093,-1.1257174
1747679336.8751307,0.7494388,0.09457218,0.6582834,-1.6327828,-3.14093,-1.1257174
1747679336.8756812,0.7494388,0.09457218,0.6582834,-1.6327828,-3.14093,-1.1257174
1747679336.8762076,0.7494388,0.09457218,0.6582834,-1.6327828,-3.14093,-1.1257174
1747679336.8767693,0.7494388,0.09457218,0.6582834,-1.6327828,-3.14093,-1.1257174
1747679336.8773232,0.7494388,0.09457218,0.6582834,-1.6327828,-3.14093,-1.1257174
1747679336.8778605,0.7494388,0.09457218,0.6582834,-1.6327828,-3.14093,-1.1257174
1747679336.8783839,0.7494388,0.09457218,0.6582834,-1.6327828,-3.14093,-1.1257174
1747679336.8789062,0.7494388,0.09457218,0.6582834,-1.6327828,-3.14093,-1.1257174
1747679336.8794472,0.7494388,0.09457218,0.6582834,-1.6327828,-3.14093,-1.1257174
1747679336.880005,0.7494388,0.09457218,0.6582834,-1.6327828,-3.14093,-1.1257174
1747679336.8805454,0.7494388,0.09457218,0.6582834,-1.6327828,-3.14093,-1.1257174
1747679336.8810868,0.7494388,0.09457218,0.6582834,-1.6327828,-3.14093,-1.1257174
1747679336.8816462,0.73918843,0.13459757,0.8418145,-1.6327828,-3.14093,-1.1257174
1747679336.8821833,0.73918843,0.13459757,0.8418145,-1.6327828,-3.14093,-1.1257174
1747679336.8827164,0.73918843,0.13459757,0.8418145,-1.7988309,-3.0312078,-1.1587405
1747679336.883242,0.73918843,0.13459757,0.8418145,-1.7988309,-3.0312078,-1.1587405
1747679336.8837645,0.73918843,0.13459757,0.8418145,-1.7988309,-3.0312078,-1.1587405
1747679336.8842914,0.73918843,0.13459757,0.8418145,-1.7988309,-3.0312078,-1.1587405
1747679336.8848224,0.73918843,0.13459757,0.8418145,-1.7988309,-3.0312078,-1.1587405
1747679336.8853467,0.73918843,0.13459757,0.8418145,-1.7988309,-3.0312078,-1.1587405
1747679336.885869,0.73918843,0.13459757,0.8418145,-1.7988309,-3.0312078,-1.1587405
1747679336.8863916,0.73918843,0.13459757,0.8418145,-1.7988309,-3.0312078,-1.1587405
1747679336.8869138,0.73918843,0.13459757,0.8418145,-1.7988309,-3.0312078,-1.1587405
1747679336.8874364,0.73918843,0.13459757,0.8418145,-1.7988309,-3.0312078,-1.1587405
1747679336.8879583,0.73918843,0.13459757,0.8418145,-1.7988309,-3.0312078,-1.1587405
1747679336.8884802,0.73918843,0.13459757,0.8418145,-1.7988309,-3.0312078,-1.1587405
1747679336.8890026,0.73918843,0.13459757,0.8418145,-1.7988309,-3.0312078,-1.1587405
1747679336.8895247,0.73918843,0.13459757,0.8418145,-1.7988309,-3.0312078,-1.1587405
1747679336.8900468,0.73918843,0.13459757,0.8418145,-1.7988309,-3.0312078,-1.1587405
1747679336.8905687,0.73918843,0.13459757,0.8418145,-1.7988309,-3.0312078,-1.1587405
1747679336.8911085,0.73918843,0.13459757,0.8418145,-1.7988309,-3.0312078,-1.1587405
1747679336.891668,0.7767732,0.30153272,1.1044201,-1.7945697,-3.1153636,-1.0532794
1747679336.8922203,0.7767732,0.30153272,1.1044201,-1.7945697,-3.1153636,-1.0532794
1747679336.8927686,0.7767732,0.30153272,1.1044201,-1.7945697,-3.1153636,-1.0532794
1747679336.8932974,0.7767732,0.30153272,1.1044201,-1.7945697,-3.1153636,-1.0532794
1747679336.893825,0.7767732,0.30153272,1.1044201,-1.7945697,-3.1153636,-1.0532794
1747679336.8943555,0.7767732,0.30153272,1.1044201,-1.7945697,-3.1153636,-1.0532794
1747679336.89488,0.7767732,0.30153272,1.1044201,-1.7945697,-3.1153636,-1.0532794
1747679336.8954074,0.7767732,0.30153272,1.1044201,-1.7945697,-3.1153636,-1.0532794
1747679336.8959336,0.7767732,0.30153272,1.1044201,-1.7945697,-3.1153636,-1.0532794
1747679336.8964574,0.7767732,0.30153272,1.1044201,-1.7945697,-3.1153636,-1.0532794
1747679336.8973534,0.7767732,0.30153272,1.1044201,-1.7945697,-3.1153636,-1.0532794
1747679336.8979094,0.7767732,0.30153272,1.1044201,-1.7945697,-3.1153636,-1.0532794
1747679336.8984523,0.7767732,0.30153272,1.1044201,-1.7945697,-3.1153636,-1.0532794
1747679336.8990016,0.7767732,0.30153272,1.1044201,-1.7945697,-3.1153636,-1.0532794
1747679336.8995492,0.7767732,0.30153272,1.1044201,-1.7945697,-3.1153636,-1.0532794
1747679336.9000874,0.7767732,0.30153272,1.1044201,-1.7945697,-3.1153636,-1.0532794
1747679336.9006114,0.7767732,0.30153272,1.1044201,-1.7945697,-3.1153636,-1.0532794
1747679336.9011562,0.7767732,0.30153272,1.1044201,-1.7945697,-3.1153636,-1.0532794
1747679336.9017127,0.7767732,0.30153272,1.1044201,-1.7945697,-3.1153636,-1.0532794
1747679336.902252,0.7767732,0.30153272,1.1044201,-1.7945697,-3.1153636,-1.0532794
1747679336.9027905,0.7767732,0.30153272,1.1044201,-1.7945697,-3.1153636,-1.0532794
1747679336.903334,0.95103,0.52362484,1.4090035,-1.7945697,-3.1153636,-1.0532794
1747679336.9038815,0.95103,0.52362484,1.4090035,-1.5656712,-3.3571784,-0.8807067
1747679336.9044266,0.95103,0.52362484,1.4090035,-1.5656712,-3.3571784,-0.8807067
1747679336.9049737,0.95103,0.52362484,1.4090035,-1.5656712,-3.3571784,-0.8807067
1747679336.9055145,0.95103,0.52362484,1.4090035,-1.5656712,-3.3571784,-0.8807067
1747679336.906053,0.95103,0.52362484,1.4090035,-1.5656712,-3.3571784,-0.8807067
1747679336.9065914,0.95103,0.52362484,1.4090035,-1.5656712,-3.3571784,-0.8807067
1747679336.9071329,0.95103,0.52362484,1.4090035,-1.5656712,-3.3571784,-0.8807067
1747679336.9077566,0.95103,0.52362484,1.4090035,-1.5656712,-3.3571784,-0.8807067
1747679336.9083095,0.95103,0.52362484,1.4090035,-1.5656712,-3.3571784,-0.8807067
1747679336.9088638,0.95103,0.52362484,1.4090035,-1.5656712,-3.3571784,-0.8807067
1747679336.9094133,0.95103,0.52362484,1.4090035,-1.5656712,-3.3571784,-0.8807067
1747679336.9099553,0.95103,0.52362484,1.4090035,-1.5656712,-3.3571784,-0.8807067
1747679336.9104857,0.95103,0.52362484,1.4090035,-1.5656712,-3.3571784,-0.8807067
1747679336.9110093,0.95103,0.52362484,1.4090035,-1.5656712,-3.3571784,-0.8807067
1747679336.9115448,0.95103,0.52362484,1.4090035,-1.5656712,-3.3571784,-0.8807067
1747679336.9120862,0.95103,0.52362484,1.4090035,-1.5656712,-3.3571784,-0.8807067
1747679336.9126325,1.1667768,0.6212477,1.5329845,-1.5656712,-3.3571784,-0.8807067
1747679336.9131744,1.1667768,0.6212477,1.5329845,-1.5656712,-3.3571784,-0.8807067
1747679336.9137125,1.1667768,0.6212477,1.5329845,-1.5656712,-3.3571784,-0.8807067
1747679336.9142542,1.1667768,0.6212477,1.5329845,-1.5656712,-3.3571784,-0.8807067
1747679336.9147947,1.1667768,0.6212477,1.5329845,-1.5656712,-3.3571784,-0.8807067
1747679336.9153411,1.1667768,0.6212477,1.5329845,-1.3472922,-3.5180333,-0.8732499
1747679336.9158826,1.1667768,0.6212477,1.5329845,-1.3472922,-3.5180333,-0.8732499
1747679336.9164214,1.1667768,0.6212477,1.5329845,-1.3472922,-3.5180333,-0.8732499
1747679336.9169567,1.1667768,0.6212477,1.5329845,-1.3472922,-3.5180333,-0.8732499
1747679336.917483,1.1667768,0.6212477,1.5329845,-1.3472922,-3.5180333,-0.8732499
1747679336.918006,1.1667768,0.6212477,1.5329845,-1.3472922,-3.5180333,-0.8732499
1747679336.9185288,1.1667768,0.6212477,1.5329845,-1.3472922,-3.5180333,-0.8732499
1747679336.9190507,1.1667768,0.6212477,1.5329845,-1.3472922,-3.5180333,-0.8732499
1747679336.9195733,1.1667768,0.6212477,1.5329845,-1.3472922,-3.5180333,-0.8732499
1747679336.9200954,1.1667768,0.6212477,1.5329845,-1.3472922,-3.5180333,-0.8732499
1747679336.9206178,1.1667768,0.6212477,1.5329845,-1.3472922,-3.5180333,-0.8732499
1747679336.9211402,1.1667768,0.6212477,1.5329845,-1.3472922,-3.5180333,-0.8732499
1747679336.9216619,1.1667768,0.6212477,1.5329845,-1.3472922,-3.5180333,-0.8732499
1747679336.9221995,1.1667768,0.6212477,1.5329845,-1.3472922,-3.5180333,-0.8732499
1747679336.922765,1.1667768,0.6212477,1.5329845,-1.3472922,-3.5180333,-0.8732499
1747679336.9233255,1.1667768,0.6212477,1.5329845,-1.3472922,-3.5180333,-0.8732499
1747679336.9238684,1.1667768,0.6212477,1.5329845,-1.3472922,-3.5180333,-0.8732499
1747679336.9244003,1.1667768,0.6212477,1.5329845,-1.0522141,-3.2517173,-1.2418311
1747679336.924932,1.5367675,0.7135014,1.5124837,-1.0522141,-3.2517173,-1.2418311
1747679336.925462,1.5367675,0.7135014,1.5124837,-1.0522141,-3.2517173,-1.2418311
1747679336.9260013,1.5367675,0.7135014,1.5124837,-1.0522141,-3.2517173,-1.2418311
1747679336.9265418,1.5367675,0.7135014,1.5124837,-1.0522141,-3.2517173,-1.2418311
1747679336.9270692,1.5367675,0.7135014,1.5124837,-1.0522141,-3.2517173,-1.2418311
1747679336.9276226,1.5367675,0.7135014,1.5124837,-1.0522141,-3.2517173,-1.2418311
1747679336.9281886,1.5367675,0.7135014,1.5124837,-1.0522141,-3.2517173,-1.2418311
1747679336.928744,1.5367675,0.7135014,1.5124837,-1.0522141,-3.2517173,-1.2418311
1747679336.9292874,1.5367675,0.7135014,1.5124837,-1.0522141,-3.2517173,-1.2418311
1747679336.9298317,1.5367675,0.7135014,1.5124837,-1.0522141,-3.2517173,-1.2418311
1747679336.9303687,1.5367675,0.7135014,1.5124837,-1.0522141,-3.2517173,-1.2418311
1747679336.9308922,1.5367675,0.7135014,1.5124837,-1.0522141,-3.2517173,-1.2418311
1747679336.931415,1.5367675,0.7135014,1.5124837,-1.0522141,-3.2517173,-1.2418311
1747679336.9319372,1.5367675,0.7135014,1.5124837,-1.0522141,-3.2517173,-1.2418311
1747679336.9324603,1.5367675,0.7135014,1.5124837,-1.0522141,-3.2517173,-1.2418311
1747679336.9329994,1.7256678,0.7579198,1.4426835,-1.0522141,-3.2517173,-1.2418311
1747679336.9335396,1.7256678,0.7579198,1.4426835,-1.0628668,-2.3760705,-1.6988292
1747679336.9340758,1.7256678,0.7579198,1.4426835,-1.0628668,-2.3760705,-1.6988292
1747679336.934602,1.7256678,0.7579198,1.4426835,-1.0628668,-2.3760705,-1.6988292
1747679336.9351294,1.7256678,0.7579198,1.4426835,-1.0628668,-2.3760705,-1.6988292
1747679336.9356537,1.7256678,0.7579198,1.4426835,-1.0628668,-2.3760705,-1.6988292
1747679336.9361944,1.7256678,0.7579198,1.4426835,-1.0628668,-2.3760705,-1.6988292
1747679336.9367487,1.7256678,0.7579198,1.4426835,-1.0628668,-2.3760705,-1.6988292
1747679336.9372883,1.7256678,0.7579198,1.4426835,-1.0628668,-2.3760705,-1.6988292
1747679336.937834,1.7256678,0.7579198,1.4426835,-1.0628668,-2.3760705,-1.6988292
1747679336.9383948,1.7256678,0.7579198,1.4426835,-1.0628668,-2.3760705,-1.6988292
1747679336.9389517,1.7256678,0.7579198,1.4426835,-1.0628668,-2.3760705,-1.6988292
1747679336.9394886,1.7256678,0.7579198,1.4426835,-1.0628668,-2.3760705,-1.6988292
1747679336.9400122,1.7256678,0.7579198,1.4426835,-1.0628668,-2.3760705,-1.6988292
1747679336.9405346,1.7256678,0.7579198,1.4426835,-1.0628668,-2.3760705,-1.6988292
1747679336.941075,1.7256678,0.7579198,1.4426835,-1.0628668,-2.3760705,-1.6988292
1747679336.9416323,1.7256678,0.7579198,1.4426835,-1.0628668,-2.3760705,-1.6988292
1747679336.942162,1.7256678,0.7579198,1.4426835,-1.0628668,-2.3760705,-1.6988292
1747679336.9426982,1.7256678,0.7579198,1.4426835,-1.0628668,-2.3760705,-1.6988292
1747679336.9432378,1.7256678,0.7579198,1.4426835,-1.0628668,-2.3760705,-1.6988292
1747679336.9437745,1.7256678,0.7579198,1.4426835,-1.0628668,-2.3760705,-1.6988292
1747679336.9443183,1.6895472,0.729121,1.3997294,-1.2725905,-1.18191,-2.1856546
1747679336.9448774,1.6895472,0.729121,1.3997294,-1.2725905,-1.18191,-2.1856546
1747679336.945431,1.6895472,0.729121,1.3997294,-1.2725905,-1.18191,-2.1856546
1747679336.9459887,1.6895472,0.729121,1.3997294,-1.2725905,-1.18191,-2.1856546
1747679336.9465563,1.6895472,0.729121,1.3997294,-1.2725905,-1.18191,-2.1856546
1747679336.9471135,1.6895472,0.729121,1.3997294,-1.2725905,-1.18191,-2.1856546
1747679336.9476597,1.6895472,0.729121,1.3997294,-1.2725905,-1.18191,-2.1856546
1747679336.9482107,1.6895472,0.729121,1.3997294,-1.2725905,-1.18191,-2.1856546
1747679336.948766,1.6895472,0.729121,1.3997294,-1.2725905,-1.18191,-2.1856546
1747679336.9493177,1.6895472,0.729121,1.3997294,-1.2725905,-1.18191,-2.1856546
1747679336.9498615,1.6895472,0.729121,1.3997294,-1.2725905,-1.18191,-2.1856546
1747679336.9504147,1.6895472,0.729121,1.3997294,-1.2725905,-1.18191,-2.1856546
1747679336.9509666,1.6895472,0.729121,1.3997294,-1.2725905,-1.18191,-2.1856546
1747679336.951525,1.6895472,0.729121,1.3997294,-1.2725905,-1.18191,-2.1856546
1747679336.9520605,1.6895472,0.729121,1.3997294,-1.2725905,-1.18191,-2.1856546
1747679336.9525936,1.6895472,0.729121,1.3997294,-1.2725905,-1.18191,-2.1856546
1747679336.9531398,1.6895472,0.729121,1.3997294,-1.2725905,-1.18191,-2.1856546
1747679336.9545474,1.6895472,0.729121,1.3997294,-1.2725905,-1.18191,-2.1856546
1747679336.9551063,1.6895472,0.729121,1.3997294,-1.2725905,-1.18191,-2.1856546
1747679336.955669,1.6895472,0.729121,1.3997294,-1.2725905,-1.18191,-2.1856546
1747679336.956201,1.6895472,0.729121,1.3997294,-1.2725905,-1.18191,-2.1856546
1747679336.9567325,1.4713602,0.66664237,1.4216944,-1.6283886,0.11664637,-2.6458485
1747679336.95726,1.4713602,0.66664237,1.4216944,-1.6283886,0.11664637,-2.6458485
1747679336.9577856,1.4713602,0.66664237,1.4216944,-1.6283886,0.11664637,-2.6458485
1747679336.9585965,1.4713602,0.66664237,1.4216944,-1.6283886,0.11664637,-2.6458485
1747679336.9597993,1.4713602,0.66664237,1.4216944,-1.6283886,0.11664637,-2.6458485
1747679336.9603744,1.4713602,0.66664237,1.4216944,-1.6283886,0.11664637,-2.6458485
1747679336.9610443,1.4713602,0.66664237,1.4216944,-1.8373134,0.93263835,-2.8652928
1747679336.96165,1.4713602,0.66664237,1.4216944,-1.8373134,0.93263835,-2.8652928
1747679336.9622254,1.1955755,0.59977067,1.5417707,-1.8373134,0.93263835,-2.8652928
1747679336.9627926,1.1955755,0.59977067,1.5417707,-1.8373134,0.93263835,-2.8652928
1747679336.963421,1.1955755,0.59977067,1.5417707,-1.8373134,0.93263835,-2.8652928
1747679336.9640198,1.1955755,0.59977067,1.5417707,-1.8373134,0.93263835,-2.8652928
1747679336.9645958,1.1955755,0.59977067,1.5417707,-1.8373134,0.93263835,-2.8652928
1747679336.9652088,1.1955755,0.59977067,1.5417707,-1.8373134,0.93263835,-2.8652928
1747679336.9658139,1.1955755,0.59977067,1.5417707,-1.8373134,0.93263835,-2.8652928
1747679336.9664042,1.1955755,0.59977067,1.5417707,-1.8373134,0.93263835,-2.8652928
1747679336.9669747,1.1955755,0.59977067,1.5417707,-1.8373134,0.93263835,-2.8652928
1747679336.9676247,1.1955755,0.59977067,1.5417707,-1.8373134,0.93263835,-2.8652928
1747679336.9682374,1.1955755,0.59977067,1.5417707,-1.8373134,0.93263835,-2.8652928
1747679336.968806,1.1955755,0.59977067,1.5417707,-1.8373134,0.93263835,-2.8652928
1747679336.9693637,1.1955755,0.59977067,1.5417707,-1.8373134,0.93263835,-2.8652928
1747679336.9705765,1.1955755,0.59977067,1.5417707,-1.8373134,0.93263835,-2.8652928
1747679336.9711502,1.1955755,0.59977067,1.5417707,-1.8446372,1.3853754,-2.886598
1747679336.9717114,1.1955755,0.59977067,1.5417707,-1.8446372,1.3853754,-2.886598
1747679336.972291,0.9490776,0.61831903,1.726278,-1.8446372,1.3853754,-2.886598
1747679336.9730303,0.9490776,0.61831903,1.726278,-1.8446372,1.3853754,-2.886598
1747679336.9736097,0.9490776,0.61831903,1.726278,-1.8446372,1.3853754,-2.886598
1747679336.9741678,0.9490776,0.61831903,1.726278,-1.8446372,1.3853754,-2.886598
1747679336.9747374,0.9490776,0.61831903,1.726278,-1.8446372,1.3853754,-2.886598
1747679336.9752905,0.9490776,0.61831903,1.726278,-1.8446372,1.3853754,-2.886598
1747679336.9761462,0.9490776,0.61831903,1.726278,-1.8446372,1.3853754,-2.886598
1747679336.9764516,0.9490776,0.61831903,1.726278,-1.8446372,1.3853754,-2.886598
1747679336.9771676,0.9490776,0.61831903,1.726278,-1.8446372,1.3853754,-2.886598
1747679336.977734,0.9490776,0.61831903,1.726278,-1.8446372,1.3853754,-2.886598
1747679336.9784799,0.9490776,0.61831903,1.726278,-1.8446372,1.3853754,-2.886598
1747679336.9790459,0.9490776,0.61831903,1.726278,-1.8446372,1.3853754,-2.886598
1747679336.9796007,0.9490776,0.61831903,1.726278,-1.8446372,1.3853754,-2.886598
1747679336.9801526,0.9490776,0.61831903,1.726278,-1.8446372,1.3853754,-2.886598
1747679336.9807048,0.9490776,0.61831903,1.726278,-1.8446372,1.3853754,-2.886598
1747679336.9812624,0.9490776,0.61831903,1.726278,-1.8446372,1.3853754,-2.886598
1747679336.9823701,0.81875104,0.75206244,1.9029754,-1.6294539,1.3992238,-2.7981813
1747679336.9839694,0.81875104,0.75206244,1.9029754,-1.6294539,1.3992238,-2.7981813
1747679336.9846134,0.81875104,0.75206244,1.9029754,-1.6294539,1.3992238,-2.7981813
1747679336.9853277,0.81875104,0.75206244,1.9029754,-1.6294539,1.3992238,-2.7981813
1747679336.993156,0.74114084,0.92095006,2.0621006,-1.3301148,1.0785794,-2.7108297
1747679336.994123,0.74114084,0.92095006,2.0621006,-1.3301148,1.0785794,-2.7108297
1747679336.9951904,0.74114084,0.92095006,2.0621006,-1.3301148,1.0785794,-2.7108297
1747679336.9962914,0.74114084,0.92095006,2.0621006,-1.3301148,1.0785794,-2.7108297
1747679336.9969018,0.74114084,0.92095006,2.0621006,-1.3301148,1.0785794,-2.7108297
1747679336.9976354,0.74114084,0.92095006,2.0621006,-1.3301148,1.0785794,-2.7108297
1747679336.99994,0.74114084,0.92095006,2.0621006,-1.3301148,1.0785794,-2.7108297
1747679337.0008845,0.74114084,0.92095006,2.0621006,-1.3301148,1.0785794,-2.7108297
1747679337.0025184,0.86512196,1.0112512,2.1699739,-0.7379614,0.35420015,-2.49032
1747679337.0030837,0.86512196,1.0112512,2.1699739,-0.7379614,0.35420015,-2.49032
1747679337.0036323,0.86512196,1.0112512,2.1699739,-0.7379614,0.35420015,-2.49032
1747679337.0041823,0.86512196,1.0112512,2.1699739,-0.7379614,0.35420015,-2.49032
1747679337.0047286,0.86512196,1.0112512,2.1699739,-0.7379614,0.35420015,-2.49032
1747679337.0052752,0.86512196,1.0112512,2.1699739,-0.7379614,0.35420015,-2.49032
1747679337.0088654,0.86512196,1.0112512,2.1699739,-0.7379614,0.35420015,-2.49032
1747679337.0096512,0.86512196,1.0112512,2.1699739,-0.7379614,0.35420015,-2.49032
1747679337.0102005,0.86512196,1.0112512,2.1699739,-0.7379614,0.35420015,-2.49032
1747679337.0107496,0.86512196,1.0112512,2.1699739,-0.7379614,0.35420015,-2.49032
1747679337.0112996,0.86512196,1.0112512,2.1699739,-0.7379614,0.35420015,-2.49032
1747679337.0121722,0.86512196,1.0112512,2.1699739,-0.7379614,0.35420015,-2.49032
1747679337.013862,1.0901427,1.0722655,2.1968203,-0.46844968,-0.05912213,-2.441318
1747679337.014429,1.0901427,1.0722655,2.1968203,-0.46844968,-0.05912213,-2.441318
1747679337.0149877,1.0901427,1.0722655,2.1968203,-0.46844968,-0.05912213,-2.441318
1747679337.0155385,1.0901427,1.0722655,2.1968203,-0.46844968,-0.05912213,-2.441318
1747679337.0175154,1.0901427,1.0722655,2.1968203,-0.46844968,-0.05912213,-2.441318
1747679337.018143,1.0901427,1.0722655,2.1968203,-0.46844968,-0.05912213,-2.441318
1747679337.021329,1.0901427,1.0722655,2.1968203,-0.46844968,-0.05912213,-2.441318
1747679337.0236492,1.786194,1.1791626,2.3466713,-0.0988032,-0.6812361,-2.7843328
1747679337.0243196,1.786194,1.1791626,2.3466713,-0.0988032,-0.6812361,-2.7843328
1747679337.024914,1.786194,1.1791626,2.3466713,-0.0988032,-0.6812361,-2.7843328
1747679337.025434,1.786194,1.1791626,2.3466713,-0.0988032,-0.6812361,-2.7843328
1747679337.025991,1.786194,1.1791626,2.3466713,-0.0988032,-0.6812361,-2.7843328
1747679337.026548,1.786194,1.1791626,2.3466713,-0.0988032,-0.6812361,-2.7843328
1747679337.0271688,1.786194,1.1791626,2.3466713,-0.0988032,-0.6812361,-2.7843328
1747679337.0277262,1.786194,1.1791626,2.3466713,-0.0988032,-0.6812361,-2.7843328
1747679337.0282836,1.786194,1.1791626,2.3466713,-0.0988032,-0.6812361,-2.7843328
1747679337.028849,1.786194,1.1791626,2.3466713,-0.0988032,-0.6812361,-2.7843328
1747679337.0294075,1.786194,1.1791626,2.3466713,-0.0988032,-0.6812361,-2.7843328
1747679337.029959,1.786194,1.1791626,2.3466713,-0.0988032,-0.6812361,-2.7843328
1747679337.030979,1.786194,1.1791626,2.3466713,-0.0988032,-0.6812361,-2.7843328
1747679337.0316489,1.786194,1.1791626,2.3466713,-0.0988032,-0.6812361,-2.7843328
1747679337.032209,1.786194,1.1791626,2.3466713,-0.0988032,-0.6812361,-2.7843328
1747679337.0342665,1.786194,1.1791626,2.3466713,-0.0988032,-0.6812361,-2.7843328
1747679337.0348315,2.2098773,1.1147314,2.4716287,-0.05725792,-0.5672529,-3.3180299
1747679337.0353858,2.2098773,1.1147314,2.4716287,-0.05725792,-0.5672529,-3.3180299
1747679337.0359616,2.2098773,1.1147314,2.4716287,-0.05725792,-0.5672529,-3.3180299
1747679337.0365458,2.2098773,1.1147314,2.4716287,-0.05725792,-0.5672529,-3.3180299
1747679337.0370884,2.2098773,1.1147314,2.4716287,-0.05725792,-0.5672529,-3.3180299
1747679337.0376792,2.2098773,1.1147314,2.4716287,-0.05725792,-0.5672529,-3.3180299
1747679337.0382223,2.2098773,1.1147314,2.4716287,-0.05725792,-0.5672529,-3.3180299
1747679337.0387645,2.2098773,1.1147314,2.4716287,-0.05725792,-0.5672529,-3.3180299
1747679337.0393045,2.2098773,1.1147314,2.4716287,-0.05725792,-0.5672529,-3.3180299
1747679337.039836,2.2098773,1.1147314,2.4716287,-0.05725792,-0.5672529,-3.3180299
1747679337.040415,2.2098773,1.1147314,2.4716287,-0.05725792,-0.5672529,-3.3180299
1747679337.0410175,2.2098773,1.1147314,2.4716287,-0.05725792,-0.5672529,-3.3180299
1747679337.0415788,2.2098773,1.1147314,2.4716287,-0.05725792,-0.5672529,-3.3180299
1747679337.0421152,2.2098773,1.1147314,2.4716287,-0.05725792,-0.5672529,-3.3180299
1747679337.0426643,2.2098773,1.1147314,2.4716287,-0.05725792,-0.5672529,-3.3180299
1747679337.043199,2.2098773,1.1147314,2.4716287,-0.05725792,-0.5672529,-3.3180299
1747679337.0437682,2.2098773,1.1147314,2.4716287,-0.05725792,-0.5672529,-3.3180299
1747679337.0443,2.2098773,1.1147314,2.4716287,-0.05725792,-0.5672529,-3.3180299
1747679337.044857,2.336299,0.92534304,2.5648587,-0.239418,0.17843166,-4.0434747
1747679337.0453877,2.336299,0.92534304,2.5648587,-0.239418,0.17843166,-4.0434747
1747679337.0460355,2.336299,0.92534304,2.5648587,-0.239418,0.17843166,-4.0434747
1747679337.0464606,2.336299,0.92534304,2.5648587,-0.239418,0.17843166,-4.0434747
1747679337.0469897,2.336299,0.92534304,2.5648587,-0.239418,0.17843166,-4.0434747
1747679337.047525,2.336299,0.92534304,2.5648587,-0.239418,0.17843166,-4.0434747
1747679337.048059,2.336299,0.92534304,2.5648587,-0.239418,0.17843166,-4.0434747
1747679337.048618,2.336299,0.92534304,2.5648587,-0.239418,0.17843166,-4.0434747
1747679337.0491712,2.336299,0.92534304,2.5648587,-0.239418,0.17843166,-4.0434747
1747679337.0497246,2.336299,0.92534304,2.5648587,-0.239418,0.17843166,-4.0434747
1747679337.0502586,2.336299,0.92534304,2.5648587,-0.239418,0.17843166,-4.0434747
1747679337.050831,2.336299,0.92534304,2.5648587,-0.239418,0.17843166,-4.0434747
1747679337.0513616,2.336299,0.92534304,2.5648587,-0.239418,0.17843166,-4.0434747
1747679337.051923,2.336299,0.92534304,2.5648587,-0.239418,0.17843166,-4.0434747
1747679337.052462,2.336299,0.92534304,2.5648587,-0.239418,0.17843166,-4.0434747
1747679337.0530167,2.336299,0.92534304,2.5648587,-0.239418,0.17843166,-4.0434747
1747679337.05355,2.336299,0.92534304,2.5648587,-0.239418,0.17843166,-4.0434747
1747679337.0541139,2.336299,0.92534304,2.5648587,-0.239418,0.17843166,-4.0434747
1747679337.054663,2.336299,0.92534304,2.5648587,-0.239418,0.17843166,-4.0434747
1747679337.0552058,2.336299,0.92534304,2.5648587,-0.239418,0.17843166,-4.0434747
1747679337.0557358,2.336299,0.92534304,2.5648587,-0.239418,0.17843166,-4.0434747
1747679337.056286,2.336299,0.92534304,2.5648587,-0.239418,0.17843166,-4.0434747
1747679337.0568259,2.336299,0.92534304,2.5648587,-0.239418,0.17843166,-4.0434747
1747679337.057379,2.336299,0.92534304,2.5648587,-0.239418,0.17843166,-4.0434747
1747679337.057934,2.336299,0.92534304,2.5648587,-0.239418,0.17843166,-4.0434747
1747679337.0584626,2.336299,0.92534304,2.5648587,-0.239418,0.17843166,-4.0434747
1747679337.058996,2.336299,0.92534304,2.5648587,-0.239418,0.17843166,-4.0434747
1747679337.059525,2.336299,0.92534304,2.5648587,-0.239418,0.17843166,-4.0434747
1747679337.0600526,2.336299,0.92534304,2.5648587,-0.239418,0.17843166,-4.0434747
1747679337.0605953,2.081015,0.72765666,2.7430203,-0.90307724,1.4982933,-4.4195127
1747679337.0611186,2.081015,0.72765666,2.7430203,-0.90307724,1.4982933,-4.4195127
1747679337.061666,2.081015,0.72765666,2.7430203,-0.90307724,1.4982933,-4.4195127
1747679337.062201,2.081015,0.72765666,2.7430203,-0.90307724,1.4982933,-4.4195127
1747679337.0627313,2.081015,0.72765666,2.7430203,-0.90307724,1.4982933,-4.4195127
1747679337.0632722,2.081015,0.72765666,2.7430203,-0.90307724,1.4982933,-4.4195127
1747679337.0638192,2.081015,0.72765666,2.7430203,-0.90307724,1.4982933,-4.4195127
1747679337.0643864,2.081015,0.72765666,2.7430203,-0.90307724,1.4982933,-4.4195127
1747679337.0649393,2.081015,0.72765666,2.7430203,-0.90307724,1.4982933,-4.4195127
1747679337.065519,2.081015,0.72765666,2.7430203,-0.90307724,1.4982933,-4.4195127
1747679337.0660684,2.081015,0.72765666,2.7430203,-0.90307724,1.4982933,-4.4195127
1747679337.066603,2.081015,0.72765666,2.7430203,-0.90307724,1.4982933,-4.4195127
1747679337.0671604,1.8906504,0.656392,3.1266785,-1.557016,2.7105634,-4.2778325
1747679337.0676882,1.8906504,0.656392,3.1266785,-1.557016,2.7105634,-4.2778325
1747679337.068206,1.8906504,0.656392,3.1266785,-1.557016,2.7105634,-4.2778325
1747679337.0687582,1.8906504,0.656392,3.1266785,-1.557016,2.7105634,-4.2778325
1747679337.0693686,1.8906504,0.656392,3.1266785,-1.557016,2.7105634,-4.2778325
1747679337.0699346,1.8906504,0.656392,3.1266785,-1.557016,2.7105634,-4.2778325
1747679337.0704663,1.8906504,0.656392,3.1266785,-1.557016,2.7105634,-4.2778325
1747679337.071007,1.8906504,0.656392,3.1266785,-1.557016,2.7105634,-4.2778325
1747679337.0715375,1.8906504,0.656392,3.1266785,-1.9341193,3.8386776,-4.0200386
1747679337.0720954,1.8769832,0.49873096,3.576232,-1.9341193,3.8386776,-4.0200386
1747679337.0726497,1.8769832,0.49873096,3.576232,-1.9341193,3.8386776,-4.0200386
1747679337.0732021,1.8769832,0.49873096,3.576232,-1.9341193,3.8386776,-4.0200386
1747679337.0737526,1.8769832,0.49873096,3.576232,-1.9341193,3.8386776,-4.0200386
1747679337.074301,1.8769832,0.49873096,3.576232,-1.9341193,3.8386776,-4.0200386
1747679337.0748544,1.8769832,0.49873096,3.576232,-1.9341193,3.8386776,-4.0200386
1747679337.0754104,1.8769832,0.49873096,3.576232,-1.9341193,3.8386776,-4.0200386
1747679337.075943,1.8769832,0.49873096,3.576232,-1.9341193,3.8386776,-4.0200386
1747679337.0764778,1.8769832,0.49873096,3.576232,-1.9341193,3.8386776,-4.0200386
1747679337.0770512,1.8769832,0.49873096,3.576232,-1.9341193,3.8386776,-4.0200386
1747679337.0776038,1.8769832,0.49873096,3.576232,-1.9341193,3.8386776,-4.0200386
1747679337.0781415,1.8769832,0.49873096,3.576232,-1.9341193,3.8386776,-4.0200386
1747679337.0786798,1.8769832,0.49873096,3.576232,-1.9341193,3.8386776,-4.0200386
1747679337.0792172,1.8769832,0.49873096,3.576232,-1.9341193,3.8386776,-4.0200386
1747679337.0798366,1.8769832,0.49873096,3.576232,-1.9341193,3.8386776,-4.0200386
1747679337.0804312,1.8769832,0.49873096,3.576232,-1.9341193,3.8386776,-4.0200386
1747679337.0809941,1.8769832,0.49873096,3.576232,-1.775395,4.49701,-3.7760932
1747679337.0815566,1.8769832,0.49873096,3.576232,-1.775395,4.49701,-3.7760932
1747679337.0820963,1.8769832,0.49873096,3.576232,-1.775395,4.49701,-3.7760932
1747679337.08267,1.8769832,0.49873096,3.576232,-1.775395,4.49701,-3.7760932
1747679337.0832772,1.9409262,0.20830286,4.411396,-1.775395,4.49701,-3.7760932
1747679337.0838323,1.9409262,0.20830286,4.411396,-1.775395,4.49701,-3.7760932
1747679337.0843756,1.9409262,0.20830286,4.411396,-1.775395,4.49701,-3.7760932
1747679337.0849288,1.9409262,0.20830286,4.411396,-1.775395,4.49701,-3.7760932
1747679337.0854862,1.9409262,0.20830286,4.411396,-1.775395,4.49701,-3.7760932
1747679337.0860305,1.9409262,0.20830286,4.411396,-1.775395,4.49701,-3.7760932
1747679337.0865781,1.9409262,0.20830286,4.411396,-1.775395,4.49701,-3.7760932
1747679337.0871236,1.9409262,0.20830286,4.411396,-1.775395,4.49701,-3.7760932
1747679337.0876684,1.9409262,0.20830286,4.411396,-1.775395,4.49701,-3.7760932
1747679337.0882158,1.9409262,0.20830286,4.411396,-1.775395,4.49701,-3.7760932
1747679337.0887604,1.9409262,0.20830286,4.411396,-1.775395,4.49701,-3.7760932
1747679337.0893073,1.9409262,0.20830286,4.411396,-1.775395,4.49701,-3.7760932
1747679337.0898895,1.9409262,0.20830286,4.411396,-1.775395,4.49701,-3.7760932
1747679337.0904176,1.9409262,0.20830286,4.411396,-1.775395,4.49701,-3.7760932
1747679337.090965,1.9409262,0.20830286,4.411396,-1.775395,4.49701,-3.7760932
1747679337.0915277,2.11079,0.0140332915,5.013729,-1.775395,4.49701,-3.7760932
1747679337.092083,2.11079,0.0140332915,5.013729,-0.8913593,4.484227,-3.6706321
1747679337.0926168,2.11079,0.0140332915,5.013729,-0.8913593,4.484227,-3.6706321
1747679337.0931573,2.11079,0.0140332915,5.013729,-0.8913593,4.484227,-3.6706321
1747679337.093678,2.11079,0.0140332915,5.013729,-0.8913593,4.484227,-3.6706321
1747679337.0942435,2.11079,0.0140332915,5.013729,-0.8913593,4.484227,-3.6706321
1747679337.094805,2.11079,0.0140332915,5.013729,-0.8913593,4.484227,-3.6706321
1747679337.0953681,2.11079,0.0140332915,5.013729,-0.8913593,4.484227,-3.6706321
1747679337.0959337,2.11079,0.0140332915,5.013729,-0.8913593,4.484227,-3.6706321
1747679337.0964878,2.11079,0.0140332915,5.013729,-0.8913593,4.484227,-3.6706321
1747679337.0970657,2.11079,0.0140332915,5.013729,-0.8913593,4.484227,-3.6706321
1747679337.0976229,2.11079,0.0140332915,5.013729,-0.8913593,4.484227,-3.6706321
1747679337.0981727,2.11079,0.0140332915,5.013729,-0.8913593,4.484227,-3.6706321
1747679337.098709,2.11079,0.0140332915,5.013729,-0.8913593,4.484227,-3.6706321
1747679337.0992682,2.11079,0.0140332915,5.013729,-0.8913593,4.484227,-3.6706321
1747679337.0998273,2.11079,0.0140332915,5.013729,-0.8913593,4.484227,-3.6706321
1747679337.1003852,2.11079,0.0140332915,5.013729,-0.8913593,4.484227,-3.6706321
1747679337.100945,2.11079,0.0140332915,5.013729,-0.8913593,4.484227,-3.6706321
1747679337.101503,2.357288,-0.20268954,5.176271,-0.8913593,4.484227,-3.6706321
1747679337.1020434,2.357288,-0.20268954,5.176271,0.46259072,3.920703,-3.7814195
1747679337.1025815,2.357288,-0.20268954,5.176271,0.46259072,3.920703,-3.7814195
1747679337.1031215,2.357288,-0.20268954,5.176271,0.46259072,3.920703,-3.7814195
1747679337.1036541,2.357288,-0.20268954,5.176271,0.46259072,3.920703,-3.7814195
1747679337.1041937,2.357288,-0.20268954,5.176271,0.46259072,3.920703,-3.7814195
1747679337.1047335,2.357288,-0.20268954,5.176271,0.46259072,3.920703,-3.7814195
1747679337.1052809,2.357288,-0.20268954,5.176271,0.46259072,3.920703,-3.7814195
1747679337.1058276,2.357288,-0.20268954,5.176271,0.46259072,3.920703,-3.7814195
1747679337.1063733,2.357288,-0.20268954,5.176271,0.46259072,3.920703,-3.7814195
1747679337.1069202,2.357288,-0.20268954,5.176271,0.46259072,3.920703,-3.7814195
1747679337.1074665,2.357288,-0.20268954,5.176271,0.46259072,3.920703,-3.7814195
1747679337.108013,2.357288,-0.20268954,5.176271,0.46259072,3.920703,-3.7814195
1747679337.1085582,2.357288,-0.20268954,5.176271,0.46259072,3.920703,-3.7814195
1747679337.1091037,2.357288,-0.20268954,5.176271,0.46259072,3.920703,-3.7814195
1747679337.1096509,2.357288,-0.20268954,5.176271,0.46259072,3.920703,-3.7814195
1747679337.1102078,2.357288,-0.20268954,5.176271,0.46259072,3.920703,-3.7814195
1747679337.1108184,2.357288,-0.20268954,5.176271,0.46259072,3.920703,-3.7814195
1747679337.1113825,2.357288,-0.20268954,5.176271,0.46259072,3.920703,-3.7814195
1747679337.1119459,2.357288,-0.20268954,5.176271,0.46259072,3.920703,-3.7814195
1747679337.1125364,2.357288,-0.20268954,5.176271,0.46259072,3.920703,-3.7814195
1747679337.1131144,2.5208063,-0.43210334,4.8951173,0.46259072,3.920703,-3.7814195
1747679337.11367,2.5208063,-0.43210334,4.8951173,0.46259072,3.920703,-3.7814195
1747679337.1141925,2.5208063,-0.43210334,4.8951173,0.46259072,3.920703,-3.7814195
1747679337.1147606,2.5208063,-0.43210334,4.8951173,0.46259072,3.920703,-3.7814195
1747679337.1153188,2.5208063,-0.43210334,4.8951173,0.46259072,3.920703,-3.7814195
1747679337.1158693,2.5208063,-0.43210334,4.8951173,1.8303893,3.4615743,-4.048801
1747679337.1164215,2.5208063,-0.43210334,4.8951173,1.8303893,3.4615743,-4.048801
1747679337.1169586,2.5208063,-0.43210334,4.8951173,1.8303893,3.4615743,-4.048801
1747679337.1174965,2.5208063,-0.43210334,4.8951173,1.8303893,3.4615743,-4.048801
1747679337.118046,2.5208063,-0.43210334,4.8951173,1.8303893,3.4615743,-4.048801
1747679337.1185973,2.5208063,-0.43210334,4.8951173,1.8303893,3.4615743,-4.048801
1747679337.1191502,2.5208063,-0.43210334,4.8951173,1.8303893,3.4615743,-4.048801
1747679337.1196978,2.5208063,-0.43210334,4.8951173,1.8303893,3.4615743,-4.048801
1747679337.1202369,2.5208063,-0.43210334,4.8951173,1.8303893,3.4615743,-4.048801
1747679337.1207936,2.5208063,-0.43210334,4.8951173,1.8303893,3.4615743,-4.048801
1747679337.121339,2.5208063,-0.43210334,4.8951173,1.8303893,3.4615743,-4.048801
1747679337.1219032,2.5208063,-0.43210334,4.8951173,1.8303893,3.4615743,-4.048801
1747679337.1224332,2.5208063,-0.43210334,4.8951173,1.8303893,3.4615743,-4.048801
1747679337.1229796,2.5208063,-0.43210334,4.8951173,1.8303893,3.4615743,-4.048801
1747679337.1235423,2.455887,-0.49604633,4.3455005,1.8303893,3.4615743,-4.048801
1747679337.124079,2.455887,-0.49604633,4.3455005,2.8391938,3.5435996,-4.3129864
1747679337.1246047,2.455887,-0.49604633,4.3455005,2.8391938,3.5435996,-4.3129864
1747679337.1251335,2.455887,-0.49604633,4.3455005,2.8391938,3.5435996,-4.3129864
1747679337.1256952,2.455887,-0.49604633,4.3455005,2.8391938,3.5435996,-4.3129864
1747679337.1262584,2.455887,-0.49604633,4.3455005,2.8391938,3.5435996,-4.3129864
1747679337.1268046,2.455887,-0.49604633,4.3455005,2.8391938,3.5435996,-4.3129864
1747679337.1273475,2.455887,-0.49604633,4.3455005,2.8391938,3.5435996,-4.3129864
1747679337.1278796,2.455887,-0.49604633,4.3455005,2.8391938,3.5435996,-4.3129864
1747679337.1284108,2.455887,-0.49604633,4.3455005,2.8391938,3.5435996,-4.3129864
1747679337.1289413,2.455887,-0.49604633,4.3455005,2.8391938,3.5435996,-4.3129864
1747679337.1294725,2.455887,-0.49604633,4.3455005,2.8391938,3.5435996,-4.3129864
1747679337.1300108,2.455887,-0.49604633,4.3455005,2.8391938,3.5435996,-4.3129864
1747679337.1305435,2.455887,-0.49604633,4.3455005,2.8391938,3.5435996,-4.3129864
1747679337.1310754,2.455887,-0.49604633,4.3455005,2.8391938,3.5435996,-4.3129864
1747679337.1316075,2.455887,-0.49604633,4.3455005,2.8391938,3.5435996,-4.3129864
1747679337.1321404,2.455887,-0.49604633,4.3455005,2.8391938,3.5435996,-4.3129864
1747679337.1326761,2.455887,-0.49604633,4.3455005,2.8391938,3.5435996,-4.3129864
1747679337.1332097,2.455887,-0.49604633,4.3455005,2.8391938,3.5435996,-4.3129864
1747679337.133752,2.4187903,-0.5014156,3.994546,3.2376025,3.824829,-4.4557314
1747679337.1342978,2.4187903,-0.5014156,3.994546,3.2376025,3.824829,-4.4557314
1747679337.1348367,2.4187903,-0.5014156,3.994546,3.2376025,3.824829,-4.4557314
1747679337.1353805,2.4187903,-0.5014156,3.994546,3.2376025,3.824829,-4.4557314
1747679337.13592,2.4187903,-0.5014156,3.994546,3.2376025,3.824829,-4.4557314
1747679337.1364453,2.4187903,-0.5014156,3.994546,3.2376025,3.824829,-4.4557314
1747679337.1369693,2.4187903,-0.5014156,3.994546,3.2376025,3.824829,-4.4557314
1747679337.1374927,2.4187903,-0.5014156,3.994546,3.2376025,3.824829,-4.4557314
1747679337.138016,2.4187903,-0.5014156,3.994546,3.2376025,3.824829,-4.4557314
1747679337.1385398,2.4187903,-0.5014156,3.994546,3.2376025,3.824829,-4.4557314
1747679337.1390634,2.4187903,-0.5014156,3.994546,3.2376025,3.824829,-4.4557314
1747679337.1395872,2.4187903,-0.5014156,3.994546,3.2376025,3.824829,-4.4557314
1747679337.1401103,2.4187903,-0.5014156,3.994546,3.2376025,3.824829,-4.4557314
1747679337.1406336,2.4187903,-0.5014156,3.994546,3.2376025,3.824829,-4.4557314
1747679337.141192,2.4187903,-0.5014156,3.994546,3.2376025,3.824829,-4.4557314
1747679337.1417906,2.4187903,-0.5014156,3.994546,3.2376025,3.824829,-4.4557314
1747679337.1423435,2.4187903,-0.5014156,3.994546,3.2376025,3.824829,-4.4557314
1747679337.1428819,2.4187903,-0.5014156,3.994546,3.2376025,3.824829,-4.4557314
1747679337.1440575,2.4187903,-0.5014156,3.994546,3.2376025,3.824829,-4.4557314
1747679337.1446254,2.4187903,-0.5014156,3.994546,3.2376025,3.824829,-4.4557314
1747679337.145189,2.4187903,-0.5014156,3.994546,3.2376025,3.824829,-4.4557314
1747679337.1457336,2.4187903,-0.5014156,3.994546,3.2376025,3.824829,-4.4557314
1747679337.1462758,2.4187903,-0.5014156,3.994546,3.2376025,3.824829,-4.4557314
1747679337.146817,2.4187903,-0.5014156,3.994546,3.2376025,3.824829,-4.4557314
1747679337.1473591,2.4187903,-0.5014156,3.994546,3.2376025,3.824829,-4.4557314
1747679337.147903,2.4187903,-0.5014156,3.994546,3.2376025,3.824829,-4.4557314
1747679337.1484432,2.4187903,-0.5014156,3.994546,3.2376025,3.824829,-4.4557314
1747679337.1489823,2.4187903,-0.5014156,3.994546,3.2376025,3.824829,-4.4557314
1747679337.1495216,2.4187903,-0.5014156,3.994546,3.2376025,3.824829,-4.4557314
1747679337.1500614,2.4187903,-0.5014156,3.994546,3.2376025,3.824829,-4.4557314
1747679337.1506007,2.4187903,-0.5014156,3.994546,3.2376025,3.824829,-4.4557314
1747679337.151141,2.4187903,-0.5014156,3.994546,3.2376025,3.824829,-4.4557314
1747679337.1516805,2.4187903,-0.5014156,3.994546,3.2376025,3.824829,-4.4557314
1747679337.1522205,2.4187903,-0.5014156,3.994546,3.2376025,3.824829,-4.4557314
1747679337.1527698,2.4187903,-0.5014156,3.994546,3.2376025,3.824829,-4.4557314
1747679337.1533298,2.4187903,-0.5014156,3.994546,3.2376025,3.824829,-4.4557314
1747679337.153878,2.4187903,-0.5014156,3.994546,3.2376025,3.824829,-4.4557314
1747679337.1544533,2.4187903,-0.5014156,3.994546,3.2376025,3.824829,-4.4557314
1747679337.1550016,1.508945,-0.44577053,2.9865894,3.8373458,5.658148,-4.5558662
1747679337.1555507,1.508945,-0.44577053,2.9865894,3.8373458,5.658148,-4.5558662
1747679337.1560965,1.508945,-0.44577053,2.9865894,3.8373458,5.658148,-4.5558662
1747679337.1566498,1.508945,-0.44577053,2.9865894,3.8373458,5.658148,-4.5558662
1747679337.1571991,1.508945,-0.44577053,2.9865894,3.8373458,5.658148,-4.5558662
1747679337.157759,1.508945,-0.44577053,2.9865894,3.8373458,5.658148,-4.5558662
1747679337.1583166,1.508945,-0.44577053,2.9865894,3.8373458,5.658148,-4.5558662
1747679337.1588755,1.508945,-0.44577053,2.9865894,3.8373458,5.658148,-4.5558662
1747679337.1594286,1.508945,-0.44577053,2.9865894,3.8373458,5.658148,-4.5558662
1747679337.1599708,1.508945,-0.44577053,2.9865894,3.8373458,5.658148,-4.5558662
1747679337.1605124,1.508945,-0.44577053,2.9865894,3.8373458,5.658148,-4.5558662
1747679337.1610575,1.508945,-0.44577053,2.9865894,3.8373458,5.658148,-4.5558662
1747679337.1616025,1.508945,-0.44577053,2.9865894,3.8373458,5.658148,-4.5558662
1747679337.1621475,1.508945,-0.44577053,2.9865894,3.8373458,5.658148,-4.5558662
1747679337.1626909,1.508945,-0.44577053,2.9865894,3.8373458,5.658148,-4.5558662
1747679337.1632357,1.508945,-0.44577053,2.9865894,3.8373458,5.658148,-4.5558662
1747679337.1637902,1.508945,-0.44577053,2.9865894,3.8373458,5.658148,-4.5558662
1747679337.164347,1.508945,-0.44577053,2.9865894,4.081291,6.2142153,-3.9433396
1747679337.1648932,1.508945,-0.44577053,2.9865894,4.081291,6.2142153,-3.9433396
1747679337.1654353,1.508945,-0.44577053,2.9865894,4.081291,6.2142153,-3.9433396
1747679337.165979,1.508945,-0.44577053,2.9865894,4.081291,6.2142153,-3.9433396
1747679337.1665227,1.508945,-0.44577053,2.9865894,4.081291,6.2142153,-3.9433396
1747679337.1670656,1.508945,-0.44577053,2.9865894,4.081291,6.2142153,-3.9433396
1747679337.1676087,1.508945,-0.44577053,2.9865894,4.081291,6.2142153,-3.9433396
1747679337.168151,1.508945,-0.44577053,2.9865894,4.081291,6.2142153,-3.9433396
1747679337.1686938,1.508945,-0.44577053,2.9865894,4.081291,6.2142153,-3.9433396
1747679337.169236,1.508945,-0.44577053,2.9865894,4.081291,6.2142153,-3.9433396
1747679337.1697774,1.508945,-0.44577053,2.9865894,4.081291,6.2142153,-3.9433396
1747679337.1703188,1.508945,-0.44577053,2.9865894,4.081291,6.2142153,-3.9433396
1747679337.1708627,1.508945,-0.44577053,2.9865894,4.081291,6.2142153,-3.9433396
1747679337.171405,1.508945,-0.44577053,2.9865894,4.081291,6.2142153,-3.9433396
1747679337.1719882,1.508945,-0.44577053,2.9865894,4.081291,6.2142153,-3.9433396
1747679337.172537,1.508945,-0.44577053,2.9865894,4.081291,6.2142153,-3.9433396
1747679337.1731334,1.508945,-0.44577053,2.9865894,4.081291,6.2142153,-3.9433396
1747679337.173803,1.508945,-0.44577053,2.9865894,4.081291,6.2142153,-3.9433396
1747679337.1743693,1.508945,-0.44577053,2.9865894,4.081291,6.2142153,-3.9433396
1747679337.1749349,1.508945,-0.44577053,2.9865894,4.081291,6.2142153,-3.9433396
1747679337.175504,1.508945,-0.44577053,2.9865894,4.081291,6.2142153,-3.9433396
1747679337.1761336,1.508945,-0.44577053,2.9865894,4.081291,6.2142153,-3.9433396
1747679337.1765897,1.508945,-0.44577053,2.9865894,4.081291,6.2142153,-3.9433396
1747679337.1771398,1.508945,-0.44577053,2.9865894,4.081291,6.2142153,-3.9433396
1747679337.1776958,1.508945,-0.44577053,2.9865894,4.081291,6.2142153,-3.9433396
1747679337.1782367,1.508945,-0.44577053,2.9865894,4.081291,6.2142153,-3.9433396
1747679337.1787784,1.508945,-0.44577053,2.9865894,4.081291,6.2142153,-3.9433396
1747679337.1793203,1.508945,-0.44577053,2.9865894,4.081291,6.2142153,-3.9433396
1747679337.179861,1.508945,-0.44577053,2.9865894,4.081291,6.2142153,-3.9433396
1747679337.1803944,1.508945,-0.44577053,2.9865894,4.081291,6.2142153,-3.9433396
1747679337.180927,1.508945,-0.44577053,2.9865894,4.081291,6.2142153,-3.9433396
1747679337.1814592,1.508945,-0.44577053,2.9865894,4.081291,6.2142153,-3.9433396
1747679337.1819992,0.6166716,-0.4301509,2.6068366,4.952677,5.759348,-2.2623537
1747679337.1825373,0.6166716,-0.4301509,2.6068366,4.952677,5.759348,-2.2623537
1747679337.1830707,0.6166716,-0.4301509,2.6068366,4.952677,5.759348,-2.2623537
1747679337.1836085,0.6166716,-0.4301509,2.6068366,4.952677,5.759348,-2.2623537
1747679337.1841536,0.6166716,-0.4301509,2.6068366,4.952677,5.759348,-2.2623537
1747679337.184693,0.6166716,-0.4301509,2.6068366,4.952677,5.759348,-2.2623537
1747679337.185226,0.6166716,-0.4301509,2.6068366,4.952677,5.759348,-2.2623537
1747679337.1857588,0.6166716,-0.4301509,2.6068366,4.952677,5.759348,-2.2623537
1747679337.1862907,0.6166716,-0.4301509,2.6068366,4.952677,5.759348,-2.2623537
1747679337.1868227,0.6166716,-0.4301509,2.6068366,4.952677,5.759348,-2.2623537
1747679337.1873844,0.6166716,-0.4301509,2.6068366,4.952677,5.759348,-2.2623537
1747679337.1879244,0.6166716,-0.4301509,2.6068366,4.952677,5.759348,-2.2623537
1747679337.1884801,0.6166716,-0.4301509,2.6068366,4.952677,5.759348,-2.2623537
1747679337.189295,0.6166716,-0.4301509,2.6068366,4.952677,5.759348,-2.2623537
1747679337.1898546,0.6166716,-0.4301509,2.6068366,4.952677,5.759348,-2.2623537
1747679337.1904044,0.6166716,-0.4301509,2.6068366,4.952677,5.759348,-2.2623537
1747679337.191171,0.6166716,-0.4301509,2.6068366,4.952677,5.759348,-2.2623537
1747679337.1917412,1.1921587,-0.8816568,2.2197618,5.8166056,5.388636,-1.7094818
1747679337.1922796,1.1921587,-0.8816568,2.2197618,5.8166056,5.388636,-1.7094818
1747679337.1928246,1.1921587,-0.8816568,2.2197618,5.8166056,5.388636,-1.7094818
1747679337.1933818,1.1921587,-0.8816568,2.2197618,5.8166056,5.388636,-1.7094818
1747679337.1939247,1.1921587,-0.8816568,2.2197618,5.8166056,5.388636,-1.7094818
1747679337.1944642,1.1921587,-0.8816568,2.2197618,5.8166056,5.388636,-1.7094818
1747679337.1949985,1.1921587,-0.8816568,2.2197618,5.8166056,5.388636,-1.7094818
1747679337.1955314,1.1921587,-0.8816568,2.2197618,5.8166056,5.388636,-1.7094818
1747679337.1960638,1.1921587,-0.8816568,2.2197618,5.8166056,5.388636,-1.7094818
1747679337.196596,1.1921587,-0.8816568,2.2197618,5.8166056,5.388636,-1.7094818
1747679337.1971283,1.1921587,-0.8816568,2.2197618,5.8166056,5.388636,-1.7094818
1747679337.19766,1.1921587,-0.8816568,2.2197618,5.8166056,5.388636,-1.7094818
1747679337.198192,1.1921587,-0.8816568,2.2197618,5.8166056,5.388636,-1.7094818
1747679337.1987238,1.1921587,-0.8816568,2.2197618,5.8166056,5.388636,-1.7094818
1747679337.1992555,1.1921587,-0.8816568,2.2197618,5.8166056,5.388636,-1.7094818
1747679337.1997874,1.1921587,-0.8816568,2.2197618,5.8166056,5.388636,-1.7094818
1747679337.200319,1.1921587,-0.8816568,2.2197618,5.8166056,5.388636,-1.7094818
1747679337.200858,1.1921587,-0.8816568,2.2197618,6.5154185,5.1968884,-1.4484923
1747679337.2013962,1.2151,-1.1701325,1.7418976,6.5154185,5.1968884,-1.4484923
1747679337.20193,1.2151,-1.1701325,1.7418976,6.5154185,5.1968884,-1.4484923
1747679337.2024887,1.2151,-1.1701325,1.7418976,6.5154185,5.1968884,-1.4484923
1747679337.2030392,1.2151,-1.1701325,1.7418976,6.5154185,5.1968884,-1.4484923
1747679337.203587,1.2151,-1.1701325,1.7418976,6.5154185,5.1968884,-1.4484923
1747679337.2041516,1.2151,-1.1701325,1.7418976,6.5154185,5.1968884,-1.4484923
1747679337.2047465,1.2151,-1.1701325,1.7418976,6.5154185,5.1968884,-1.4484923
1747679337.205294,1.2151,-1.1701325,1.7418976,6.5154185,5.1968884,-1.4484923
1747679337.2058318,1.2151,-1.1701325,1.7418976,6.5154185,5.1968884,-1.4484923
1747679337.206365,1.2151,-1.1701325,1.7418976,6.5154185,5.1968884,-1.4484923
1747679337.2068977,1.2151,-1.1701325,1.7418976,6.5154185,5.1968884,-1.4484923
1747679337.2074296,1.2151,-1.1701325,1.7418976,6.5154185,5.1968884,-1.4484923
1747679337.207962,1.2151,-1.1701325,1.7418976,6.5154185,5.1968884,-1.4484923
1747679337.2084942,1.2151,-1.1701325,1.7418976,6.5154185,5.1968884,-1.4484923
1747679337.2090266,1.2151,-1.1701325,1.7418976,6.5154185,5.1968884,-1.4484923
1747679337.2095585,1.2151,-1.1701325,1.7418976,6.5154185,5.1968884,-1.4484923
1747679337.2100904,1.2151,-1.1701325,1.7418976,6.5154185,5.1968884,-1.4484923
1747679337.2106228,1.2151,-1.1701325,1.7418976,6.5154185,5.1968884,-1.4484923
1747679337.2111716,1.2151,-1.1701325,1.7418976,6.5154185,5.1968884,-1.4484923
1747679337.2117195,1.0945357,-1.3917364,1.1795897,7.0523114,4.8805056,-1.1150647
1747679337.2122643,1.0945357,-1.3917364,1.1795897,7.0523114,4.8805056,-1.1150647
1747679337.2127998,1.0945357,-1.3917364,1.1795897,7.0523114,4.8805056,-1.1150647
1747679337.213333,1.0945357,-1.3917364,1.1795897,7.0523114,4.8805056,-1.1150647
1747679337.2138727,1.0945357,-1.3917364,1.1795897,7.0523114,4.8805056,-1.1150647
1747679337.2144122,1.0945357,-1.3917364,1.1795897,7.0523114,4.8805056,-1.1150647
1747679337.214945,1.0945357,-1.3917364,1.1795897,7.0523114,4.8805056,-1.1150647
1747679337.2154772,1.0945357,-1.3917364,1.1795897,7.0523114,4.8805056,-1.1150647
1747679337.2160091,1.0945357,-1.3917364,1.1795897,7.0523114,4.8805056,-1.1150647
1747679337.2165413,1.0945357,-1.3917364,1.1795897,7.0523114,4.8805056,-1.1150647
1747679337.2170732,1.0945357,-1.3917364,1.1795897,7.0523114,4.8805056,-1.1150647
1747679337.2176151,1.0945357,-1.3917364,1.1795897,7.0523114,4.8805056,-1.1150647
1747679337.2181516,1.0945357,-1.3917364,1.1795897,7.0523114,4.8805056,-1.1150647
1747679337.2186866,1.0945357,-1.3917364,1.1795897,7.0523114,4.8805056,-1.1150647
1747679337.219219,1.0945357,-1.3917364,1.1795897,7.0523114,4.8805056,-1.1150647
1747679337.2197533,1.0945357,-1.3917364,1.1795897,7.0523114,4.8805056,-1.1150647
1747679337.2203047,1.0945357,-1.3917364,1.1795897,7.0523114,4.8805056,-1.1150647
1747679337.2208567,1.0945357,-1.3917364,1.1795897,7.0523114,4.8805056,-1.1150647
1747679337.2214098,1.0945357,-1.3917364,1.1795897,7.0523114,4.8805056,-1.1150647
1747679337.2219536,1.0945357,-1.3917364,1.1795897,7.0523114,4.8805056,-1.1150647
1747679337.2224867,1.0945357,-1.3917364,1.1795897,7.0523114,4.8805056,-1.1150647
1747679337.2230194,1.0945357,-1.3917364,1.1795897,7.0523114,4.8805056,-1.1150647
1747679337.2235653,1.0945357,-1.3917364,1.1795897,7.0523114,4.8805056,-1.1150647
1747679337.2241192,1.0945357,-1.3917364,1.1795897,7.0523114,4.8805056,-1.1150647
1747679337.2246635,1.0427955,-1.5420758,0.711976,7.3420634,4.3159156,-0.7635277
1747679337.2252064,1.0427955,-1.5420758,0.711976,7.3420634,4.3159156,-0.7635277
1747679337.2257402,1.0427955,-1.5420758,0.711976,7.3420634,4.3159156,-0.7635277
1747679337.2262728,1.0427955,-1.5420758,0.711976,7.3420634,4.3159156,-0.7635277
1747679337.2268047,1.0427955,-1.5420758,0.711976,7.3420634,4.3159156,-0.7635277
1747679337.2273371,1.0427955,-1.5420758,0.711976,7.3420634,4.3159156,-0.7635277
1747679337.227869,1.0427955,-1.5420758,0.711976,7.3420634,4.3159156,-0.7635277
1747679337.2284014,1.0427955,-1.5420758,0.711976,7.3420634,4.3159156,-0.7635277
1747679337.2289333,1.0427955,-1.5420758,0.711976,7.3420634,4.3159156,-0.7635277
1747679337.2294652,1.0427955,-1.5420758,0.711976,7.3420634,4.3159156,-0.7635277
1747679337.2299974,1.0427955,-1.5420758,0.711976,7.3420634,4.3159156,-0.7635277
1747679337.230529,1.0427955,-1.5420758,0.711976,7.3420634,4.3159156,-0.7635277
1747679337.231061,1.0427955,-1.5420758,0.711976,7.3420634,4.3159156,-0.7635277
1747679337.2315931,1.0427955,-1.5420758,0.711976,7.3420634,4.3159156,-0.7635277
1747679337.2321253,1.0427955,-1.5420758,0.711976,7.3420634,4.3159156,-0.7635277
1747679337.2326567,1.0427955,-1.5420758,0.711976,7.3420634,4.3159156,-0.7635277
1747679337.2332218,0.9895911,-1.6465322,-0.07974571,7.2493854,3.8780923,-0.4886897
1747679337.2337766,0.9895911,-1.6465322,-0.07974571,7.2493854,3.8780923,-0.4886897
1747679337.2343278,0.9895911,-1.6465322,-0.07974571,7.2493854,3.8780923,-0.4886897
1747679337.2348576,0.9895911,-1.6465322,-0.07974571,7.2493854,3.8780923,-0.4886897
1747679337.235397,0.9895911,-1.6465322,-0.07974571,7.2493854,3.8780923,-0.4886897
1747679337.2359552,0.9895911,-1.6465322,-0.07974571,7.2493854,3.8780923,-0.4886897
1747679337.2365057,0.9895911,-1.6465322,-0.07974571,7.2493854,3.8780923,-0.4886897
1747679337.237059,0.9895911,-1.6465322,-0.07974571,7.2493854,3.8780923,-0.4886897
1747679337.2376037,0.9895911,-1.6465322,-0.07974571,7.2493854,3.8780923,-0.4886897
1747679337.2381368,0.9895911,-1.6465322,-0.07974571,7.2493854,3.8780923,-0.4886897
1747679337.2386694,0.9895911,-1.6465322,-0.07974571,7.2493854,3.8780923,-0.4886897
1747679337.2392018,0.9895911,-1.6465322,-0.07974571,7.2493854,3.8780923,-0.4886897
1747679337.239734,0.9895911,-1.6465322,-0.07974571,7.2493854,3.8780923,-0.4886897
1747679337.2402654,0.9895911,-1.6465322,-0.07974571,7.2493854,3.8780923,-0.4886897
1747679337.240797,0.9895911,-1.6465322,-0.07974571,7.2493854,3.8780923,-0.4886897
1747679337.241329,0.9895911,-1.6465322,-0.07974571,7.2493854,3.8780923,-0.4886897
1747679337.2418609,0.9895911,-1.6465322,-0.07974571,7.2493854,3.8780923,-0.4886897
1747679337.2423923,0.9895911,-1.6465322,-0.07974571,7.2493854,3.8780923,-0.4886897
1747679337.2429407,0.9895911,-1.6465322,-0.07974571,7.2493854,3.8780923,-0.4886897
1747679337.2434816,0.9895911,-1.6465322,-0.07974571,7.2493854,3.8780923,-0.4886897
1747679337.2440233,0.9700666,-1.6475084,-0.46584427,6.9468503,3.8503954,-0.35553175
1747679337.2445674,0.9700666,-1.6475084,-0.46584427,6.9468503,3.8503954,-0.35553175
1747679337.2451072,0.9700666,-1.6475084,-0.46584427,6.9468503,3.8503954,-0.35553175
1747679337.2456393,0.9700666,-1.6475084,-0.46584427,6.9468503,3.8503954,-0.35553175
1747679337.2461712,0.9700666,-1.6475084,-0.46584427,6.9468503,3.8503954,-0.35553175
1747679337.246703,0.9700666,-1.6475084,-0.46584427,6.9468503,3.8503954,-0.35553175
1747679337.2472343,0.9700666,-1.6475084,-0.46584427,6.9468503,3.8503954,-0.35553175
1747679337.247766,0.9700666,-1.6475084,-0.46584427,6.9468503,3.8503954,-0.35553175
1747679337.2482977,0.9700666,-1.6475084,-0.46584427,6.9468503,3.8503954,-0.35553175
1747679337.2488499,0.9700666,-1.6475084,-0.46584427,6.9468503,3.8503954,-0.35553175
1747679337.249394,0.9700666,-1.6475084,-0.46584427,6.9468503,3.8503954,-0.35553175
1747679337.2499268,0.9700666,-1.6475084,-0.46584427,6.9468503,3.8503954,-0.35553175
1747679337.250459,0.9700666,-1.6475084,-0.46584427,6.9468503,3.8503954,-0.35553175
1747679337.2509959,0.9700666,-1.6475084,-0.46584427,6.9468503,3.8503954,-0.35553175
1747679337.2515478,0.9700666,-1.6475084,-0.46584427,6.9468503,3.8503954,-0.35553175
1747679337.252099,0.9700666,-1.6475084,-0.46584427,6.9468503,3.8503954,-0.35553175
1747679337.2526515,0.9700666,-1.6475084,-0.46584427,6.9468503,3.8503954,-0.35553175
1747679337.253195,0.9700666,-1.6475084,-0.46584427,6.9468503,3.8503954,-0.35553175
1747679337.2537277,0.9700666,-1.6475084,-0.46584427,6.9468503,3.8503954,-0.35553175
1747679337.2542605,0.9700666,-1.6475084,-0.46584427,6.9468503,3.8503954,-0.35553175
1747679337.2548084,0.9700666,-1.6475084,-0.46584427,6.9468503,3.8503954,-0.35553175
1747679337.2553618,0.9700666,-1.6475084,-0.46584427,6.9468503,3.8503954,-0.35553175
1747679337.2559018,1.1477402,-1.5586716,-0.99593663,5.8229976,4.243478,-0.19893798
1747679337.2564404,1.1477402,-1.5586716,-0.99593663,5.8229976,4.243478,-0.19893798
1747679337.256974,1.1477402,-1.5586716,-0.99593663,5.8229976,4.243478,-0.19893798
1747679337.2575061,1.1477402,-1.5586716,-0.99593663,5.8229976,4.243478,-0.19893798
1747679337.2580383,1.1477402,-1.5586716,-0.99593663,5.8229976,4.243478,-0.19893798
1747679337.2585704,1.1477402,-1.5586716,-0.99593663,5.8229976,4.243478,-0.19893798
1747679337.2591028,1.1477402,-1.5586716,-0.99593663,5.8229976,4.243478,-0.19893798
1747679337.2596345,1.1477402,-1.5586716,-0.99593663,5.8229976,4.243478,-0.19893798
1747679337.2601664,1.1477402,-1.5586716,-0.99593663,5.8229976,4.243478,-0.19893798
1747679337.2606983,1.1477402,-1.5586716,-0.99593663,5.8229976,4.243478,-0.19893798
1747679337.2612329,1.1477402,-1.5586716,-0.99593663,5.8229976,4.243478,-0.19893798
1747679337.2617655,1.1477402,-1.5586716,-0.99593663,5.8229976,4.243478,-0.19893798
1747679337.2622974,1.1477402,-1.5586716,-0.99593663,5.8229976,4.243478,-0.19893798
1747679337.2628293,1.1477402,-1.5586716,-0.99593663,5.8229976,4.243478,-0.19893798
1747679337.2633705,1.1477402,-1.5586716,-0.99593663,5.8229976,4.243478,-0.19893798
1747679337.264027,1.1477402,-1.5586716,-0.99593663,5.8229976,4.243478,-0.19893798
1747679337.2645826,1.1477402,-1.5586716,-0.99593663,5.8229976,4.243478,-0.19893798
1747679337.2651522,1.1477402,-1.5586716,-0.99593663,5.8229976,4.243478,-0.19893798
1747679337.2656975,1.645617,-1.4849663,-1.2038734,4.6022053,4.7803707,-0.37683702
1747679337.2662897,1.645617,-1.4849663,-1.2038734,4.6022053,4.7803707,-0.37683702
1747679337.2668624,1.645617,-1.4849663,-1.2038734,4.6022053,4.7803707,-0.37683702
1747679337.2674294,1.645617,-1.4849663,-1.2038734,4.6022053,4.7803707,-0.37683702
1747679337.2679825,1.645617,-1.4849663,-1.2038734,4.6022053,4.7803707,-0.37683702
1747679337.2685254,1.645617,-1.4849663,-1.2038734,4.6022053,4.7803707,-0.37683702
1747679337.2690582,1.645617,-1.4849663,-1.2038734,4.6022053,4.7803707,-0.37683702
1747679337.269591,1.645617,-1.4849663,-1.2038734,4.6022053,4.7803707,-0.37683702
1747679337.270123,1.645617,-1.4849663,-1.2038734,4.6022053,4.7803707,-0.37683702
1747679337.2706716,1.645617,-1.4849663,-1.2038734,4.6022053,4.7803707,-0.37683702
1747679337.2712107,2.0063336,-1.611388,-1.2844123,4.6022053,4.7803707,-0.37683702
1747679337.271745,2.0063336,-1.611388,-1.2844123,4.6022053,4.7803707,-0.37683702
1747679337.2722812,2.0063336,-1.611388,-1.2844123,4.6022053,4.7803707,-0.37683702
1747679337.2728155,2.0063336,-1.611388,-1.2844123,4.6022053,4.7803707,-0.37683702
1747679337.2733476,2.0063336,-1.611388,-1.2844123,4.6022053,4.7803707,-0.37683702
1747679337.2739148,2.0063336,-1.611388,-1.2844123,4.6022053,4.7803707,-0.37683702
1747679337.274474,2.0063336,-1.611388,-1.2844123,4.6022053,4.7803707,-0.37683702
1747679337.2750256,2.0063336,-1.611388,-1.2844123,4.6022053,4.7803707,-0.37683702
1747679337.2755692,2.0063336,-1.611388,-1.2844123,4.6022053,4.7803707,-0.37683702
1747679337.2761118,2.0063336,-1.611388,-1.2844123,4.6022053,4.7803707,-0.37683702
1747679337.2766352,2.0063336,-1.611388,-1.2844123,4.6022053,4.7803707,-0.37683702
1747679337.2771745,2.0063336,-1.611388,-1.2844123,4.6022053,4.7803707,-0.37683702
1747679337.2777133,2.0063336,-1.611388,-1.2844123,4.6022053,4.7803707,-0.37683702
1747679337.2782528,2.0063336,-1.611388,-1.2844123,4.6022053,4.7803707,-0.37683702
1747679337.2787924,2.0063336,-1.611388,-1.2844123,4.6022053,4.7803707,-0.37683702
1747679337.2793434,2.0063336,-1.611388,-1.2844123,4.6022053,4.7803707,-0.37683702
1747679337.2798843,2.0063336,-1.611388,-1.2844123,4.6022053,4.7803707,-0.37683702
1747679337.280426,2.0063336,-1.611388,-1.2844123,4.6022053,4.7803707,-0.37683702
1747679337.2809682,2.0063336,-1.611388,-1.2844123,4.6022053,4.7803707,-0.37683702
1747679337.2815225,2.0063336,-1.611388,-1.2844123,4.6022053,4.7803707,-0.37683702
1747679337.282086,2.0063336,-1.611388,-1.2844123,4.6022053,4.7803707,-0.37683702
1747679337.2826426,2.0063336,-1.611388,-1.2844123,4.6022053,4.7803707,-0.37683702
1747679337.2832272,2.0063336,-1.611388,-1.2844123,1.9326546,5.6123414,-2.030126
1747679337.2837758,1.424013,-1.8022408,-1.0730587,1.9326546,5.6123414,-2.030126
1747679337.2843275,1.424013,-1.8022408,-1.0730587,1.9326546,5.6123414,-2.030126
1747679337.2848818,1.424013,-1.8022408,-1.0730587,1.9326546,5.6123414,-2.030126
1747679337.2854295,1.424013,-1.8022408,-1.0730587,1.9326546,5.6123414,-2.030126
1747679337.28597,1.424013,-1.8022408,-1.0730587,1.9326546,5.6123414,-2.030126
1747679337.2865098,1.424013,-1.8022408,-1.0730587,1.9326546,5.6123414,-2.030126
1747679337.2870493,1.424013,-1.8022408,-1.0730587,1.9326546,5.6123414,-2.030126
1747679337.2875886,1.424013,-1.8022408,-1.0730587,1.9326546,5.6123414,-2.030126
1747679337.288129,1.424013,-1.8022408,-1.0730587,1.9326546,5.6123414,-2.030126
1747679337.2886686,1.424013,-1.8022408,-1.0730587,1.9326546,5.6123414,-2.030126
1747679337.2892084,1.424013,-1.8022408,-1.0730587,1.9326546,5.6123414,-2.030126
1747679337.2897484,1.424013,-1.8022408,-1.0730587,1.9326546,5.6123414,-2.030126
1747679337.290289,1.424013,-1.8022408,-1.0730587,1.9326546,5.6123414,-2.030126
1747679337.2908285,1.424013,-1.8022408,-1.0730587,1.9326546,5.6123414,-2.030126
1747679337.2914555,1.424013,-1.8022408,-1.0730587,1.9326546,5.6123414,-2.030126
1747679337.2920048,1.424013,-1.8022408,-1.0730587,1.9326546,5.6123414,-2.030126
1747679337.2925563,1.424013,-1.8022408,-1.0730587,1.9326546,5.6123414,-2.030126
1747679337.293101,0.57908684,-1.9408652,-0.618136,1.1933616,5.5878406,-2.2325263
1747679337.2936506,0.57908684,-1.9408652,-0.618136,1.1933616,5.5878406,-2.2325263
1747679337.2942371,0.57908684,-1.9408652,-0.618136,1.1933616,5.5878406,-2.2325263
1747679337.2947881,0.57908684,-1.9408652,-0.618136,1.1933616,5.5878406,-2.2325263
1747679337.2953267,0.57908684,-1.9408652,-0.618136,1.1933616,5.5878406,-2.2325263
1747679337.295851,0.57908684,-1.9408652,-0.618136,1.1933616,5.5878406,-2.2325263
1747679337.2964048,0.57908684,-1.9408652,-0.618136,1.1933616,5.5878406,-2.2325263
1747679337.2969506,0.57908684,-1.9408652,-0.618136,1.1933616,5.5878406,-2.2325263
1747679337.2974975,0.57908684,-1.9408652,-0.618136,1.1933616,5.5878406,-2.2325263
1747679337.2980363,0.57908684,-1.9408652,-0.618136,1.1933616,5.5878406,-2.2325263
1747679337.2985873,0.57908684,-1.9408652,-0.618136,1.1933616,5.5878406,-2.2325263
1747679337.2991388,0.57908684,-1.9408652,-0.618136,1.1933616,5.5878406,-2.2325263
1747679337.2996914,0.57908684,-1.9408652,-0.618136,1.1933616,5.5878406,-2.2325263
1747679337.3002353,0.57908684,-1.9408652,-0.618136,1.1933616,5.5878406,-2.2325263
1747679337.300768,0.57908684,-1.9408652,-0.618136,1.1933616,5.5878406,-2.2325263
1747679337.3013136,0.57908684,-1.9408652,-0.618136,1.1933616,5.5878406,-2.2325263
1747679337.3018556,-0.20433694,-2.0960855,-0.15198664,0.9558078,5.20115,-1.7680713
1747679337.3023903,-0.20433694,-2.0960855,-0.15198664,0.9558078,5.20115,-1.7680713
1747679337.3029232,-0.20433694,-2.0960855,-0.15198664,0.9558078,5.20115,-1.7680713
1747679337.3034556,-0.20433694,-2.0960855,-0.15198664,0.9558078,5.20115,-1.7680713
1747679337.3039925,-0.20433694,-2.0960855,-0.15198664,0.9558078,5.20115,-1.7680713
1747679337.3045363,-0.20433694,-2.0960855,-0.15198664,0.9558078,5.20115,-1.7680713
1747679337.3050768,-0.20433694,-2.0960855,-0.15198664,0.9558078,5.20115,-1.7680713
1747679337.3056095,-0.20433694,-2.0960855,-0.15198664,0.9558078,5.20115,-1.7680713
1747679337.3061419,-0.20433694,-2.0960855,-0.15198664,0.9558078,5.20115,-1.7680713
1747679337.306674,-0.20433694,-2.0960855,-0.15198664,0.9558078,5.20115,-1.7680713
1747679337.3072057,-0.20433694,-2.0960855,-0.15198664,0.9558078,5.20115,-1.7680713
1747679337.3077376,-0.20433694,-2.0960855,-0.15198664,0.9558078,5.20115,-1.7680713
1747679337.3082697,-0.20433694,-2.0960855,-0.15198664,0.9558078,5.20115,-1.7680713
1747679337.3088012,-0.20433694,-2.0960855,-0.15198664,0.9558078,5.20115,-1.7680713
1747679337.3093562,-0.20433694,-2.0960855,-0.15198664,0.9558078,5.20115,-1.7680713
1747679337.309904,-0.20433694,-2.0960855,-0.15198664,0.9558078,5.20115,-1.7680713
1747679337.310437,-0.20433694,-2.0960855,-0.15198664,0.9558078,5.20115,-1.7680713
1747679337.310975,-0.20433694,-2.0960855,-0.15198664,0.9558078,5.20115,-1.7680713
1747679337.3115149,-0.6612121,-2.0736325,0.22142093,1.1124016,4.571579,-0.8114646
1747679337.3120525,-0.6612121,-2.0736325,0.22142093,1.1124016,4.571579,-0.8114646
1747679337.3125954,-0.6612121,-2.0736325,0.22142093,1.1124016,4.571579,-0.8114646
1747679337.3131304,-0.6612121,-2.0736325,0.22142093,1.1124016,4.571579,-0.8114646
1747679337.3136625,-0.6612121,-2.0736325,0.22142093,1.1124016,4.571579,-0.8114646
1747679337.3142166,-0.6612121,-2.0736325,0.22142093,1.1124016,4.571579,-0.8114646
1747679337.3147745,-0.6612121,-2.0736325,0.22142093,1.1124016,4.571579,-0.8114646
