timestamp,acc_x,acc_y,acc_z,gyro_x,gyro_y,gyro_z
1747679564.7223618,-0.10720215,0.7847661,-0.28670624,-0.07017424,-0.18469009,-0.27989802
1747679564.7228997,-0.10720215,0.7847661,-0.28670624,-0.07017424,-0.18469009,-0.27989802
1747679564.7234242,-0.10720215,0.7847661,-0.28670624,-0.07017424,-0.18469009,-0.27989802
1747679564.7239566,-0.10720215,0.7847661,-0.28670624,-0.07017424,-0.18469009,-0.27989802
1747679564.7244954,-0.10720215,0.7847661,-0.28670624,-0.07017424,-0.18469009,-0.27989802
1747679564.7250192,-0.10720215,0.7847661,-0.28670624,-0.07017424,-0.18469009,-0.27989802
1747679564.7255383,-0.10720215,0.7847661,-0.28670624,-0.07017424,-0.18469009,-0.27989802
1747679564.7260573,-0.10720215,0.7847661,-0.28670624,-0.07017424,-0.18469009,-0.27989802
1747679564.7265759,-0.10720215,0.7847661,-0.28670624,-0.07017424,-0.18469009,-0.27989802
1747679564.7270958,-0.10720215,0.7847661,-0.28670624,-0.07017424,-0.18469009,-0.27989802
1747679564.7276144,-0.10720215,0.7847661,-0.28670624,-0.07017424,-0.18469009,-0.27989802
1747679564.7281332,-0.10720215,0.7847661,-0.28670624,-0.07017424,-0.18469009,-0.27989802
1747679564.7286565,-0.24680288,0.8145411,-0.3008616,-0.27257434,-0.26138908,-0.30866015
1747679564.7291782,-0.24680288,0.8145411,-0.3008616,-0.27257434,-0.26138908,-0.30866015
1747679564.7296994,-0.24680288,0.8145411,-0.3008616,-0.27257434,-0.26138908,-0.30866015
1747679564.7302232,-0.24680288,0.8145411,-0.3008616,-0.27257434,-0.26138908,-0.30866015
1747679564.7307456,-0.24680288,0.8145411,-0.3008616,-0.27257434,-0.26138908,-0.30866015
1747679564.7312667,-0.24680288,0.8145411,-0.3008616,-0.27257434,-0.26138908,-0.30866015
1747679564.7317858,-0.24680288,0.8145411,-0.3008616,-0.27257434,-0.26138908,-0.30866015
1747679564.7323046,-0.24680288,0.8145411,-0.3008616,-0.27257434,-0.26138908,-0.30866015
1747679564.7330337,-0.24680288,0.8145411,-0.3008616,-0.27257434,-0.26138908,-0.30866015
1747679564.735001,-0.24680288,0.8145411,-0.3008616,-0.27257434,-0.26138908,-0.30866015
1747679564.7355905,-0.24680288,0.8145411,-0.3008616,-0.27257434,-0.26138908,-0.30866015
1747679564.7368128,-0.24680288,0.8145411,-0.3008616,-0.27257434,-0.26138908,-0.30866015
1747679564.7385757,-0.24680288,0.8145411,-0.3008616,-0.27257434,-0.26138908,-0.30866015
1747679564.7741604,-0.04130669,0.9287599,0.3312467,-0.66778713,-0.021704746,-0.16804534
1747679564.7751822,-0.04130669,0.9287599,0.3312467,-0.66778713,-0.021704746,-0.16804534
1747679564.776463,-0.04130669,0.9287599,0.3312467,-0.66778713,-0.021704746,-0.16804534
1747679564.7770884,-0.04130669,0.9287599,0.3312467,-0.66778713,-0.021704746,-0.16804534
1747679564.7776573,-0.04130669,0.9287599,0.3312467,-0.66778713,-0.021704746,-0.16804534
1747679564.778213,-0.04130669,0.9287599,0.3312467,-0.66778713,-0.021704746,-0.16804534
1747679564.7787914,-0.04130669,0.9287599,0.3312467,-0.66778713,-0.021704746,-0.16804534
1747679564.77935,-0.04130669,0.9287599,0.3312467,-0.66778713,-0.021704746,-0.16804534
1747679564.7799048,-0.04130669,0.9287599,0.3312467,-0.66778713,-0.021704746,-0.16804534
1747679564.7804623,-0.04130669,0.9287599,0.3312467,-0.66778713,-0.021704746,-0.16804534
1747679564.7810187,-0.04130669,0.9287599,0.3312467,-0.34927332,0.36179015,-0.3331612
1747679564.781578,-0.085237,0.89800864,0.404952,-0.34927332,0.36179015,-0.3331612
1747679564.7821524,-0.085237,0.89800864,0.404952,-0.34927332,0.36179015,-0.3331612
1747679564.7839828,-0.085237,0.89800864,0.404952,-0.34927332,0.36179015,-0.3331612
1747679564.7846634,-0.085237,0.89800864,0.404952,-0.34927332,0.36179015,-0.3331612
1747679564.7862341,-0.085237,0.89800864,0.404952,-0.34927332,0.36179015,-0.3331612
1747679564.788057,-0.085237,0.89800864,0.404952,-0.34927332,0.36179015,-0.3331612
1747679564.7897134,-0.085237,0.89800864,0.404952,-0.34927332,0.36179015,-0.3331612
1747679564.7902575,-0.085237,0.89800864,0.404952,-0.34927332,0.36179015,-0.3331612
1747679564.790796,-0.085237,0.89800864,0.404952,-0.34927332,0.36179015,-0.3331612
1747679564.7913299,-0.085237,0.89800864,0.404952,-0.34927332,0.36179015,-0.3331612
1747679564.7919607,-0.085237,0.89800864,0.404952,-0.34927332,0.36179015,-0.3331612
1747679564.7925057,-0.085237,0.89800864,0.404952,-0.34927332,0.36179015,-0.3331612
1747679564.79306,-0.39860648,0.8931275,0.43814376,-0.013715269,0.027297381,-0.2777675
1747679564.79482,-0.39860648,0.8931275,0.43814376,-0.013715269,0.027297381,-0.2777675
1747679564.7956932,-0.39860648,0.8931275,0.43814376,-0.013715269,0.027297381,-0.2777675
1747679564.7964575,-0.39860648,0.8931275,0.43814376,-0.013715269,0.027297381,-0.2777675
1747679564.797,-0.39860648,0.8931275,0.43814376,-0.013715269,0.027297381,-0.2777675
1747679564.7975392,-0.39860648,0.8931275,0.43814376,-0.013715269,0.027297381,-0.2777675
1747679564.7980645,-0.39860648,0.8931275,0.43814376,-0.013715269,0.027297381,-0.2777675
1747679564.799176,-0.39860648,0.8931275,0.43814376,-0.013715269,0.027297381,-0.2777675
1747679564.7997265,-0.39860648,0.8931275,0.43814376,-0.013715269,0.027297381,-0.2777675
1747679564.800261,-0.39860648,0.8931275,0.43814376,-0.013715269,0.027297381,-0.2777675
1747679564.8007944,-0.39860648,0.8931275,0.43814376,-0.013715269,0.027297381,-0.2777675
1747679564.8013308,-0.39860648,0.8931275,0.43814376,-0.013715269,0.027297381,-0.2777675
1747679564.801881,-0.39860648,0.8931275,0.43814376,-0.013715269,0.027297381,-0.2777675
1747679564.8024168,-0.39860648,0.8931275,0.43814376,-0.013715269,0.027297381,-0.2777675
1747679564.8029382,-0.39860648,0.8931275,0.43814376,-0.013715269,0.027297381,-0.2777675
1747679564.8034573,-0.39860648,0.8931275,0.43814376,-0.013715269,0.027297381,-0.2777675
1747679564.8039963,-0.5001343,0.93168855,0.387868,0.41025966,-0.62570924,0.01944106
1747679564.8045492,-0.5001343,0.93168855,0.387868,0.41025966,-0.62570924,0.01944106
1747679564.8050742,-0.5001343,0.93168855,0.387868,0.41025966,-0.62570924,0.01944106
1747679564.8055933,-0.5001343,0.93168855,0.387868,0.41025966,-0.62570924,0.01944106
1747679564.806112,-0.5001343,0.93168855,0.387868,0.41025966,-0.62570924,0.01944106
1747679564.8066308,-0.5001343,0.93168855,0.387868,0.41025966,-0.62570924,0.01944106
1747679564.80715,-0.5001343,0.93168855,0.387868,0.41025966,-0.62570924,0.01944106
1747679564.8076684,-0.5001343,0.93168855,0.387868,0.41025966,-0.62570924,0.01944106
1747679564.8081872,-0.5001343,0.93168855,0.387868,0.41025966,-0.62570924,0.01944106
1747679564.8087058,-0.5001343,0.93168855,0.387868,0.41025966,-0.62570924,0.01944106
1747679564.8092916,-0.5001343,0.93168855,0.387868,0.41025966,-0.62570924,0.01944106
1747679564.8106058,-0.5001343,0.93168855,0.387868,0.41025966,-0.62570924,0.01944106
1747679564.8116698,-0.5001343,0.93168855,0.387868,0.41025966,-0.62570924,0.01944106
1747679564.8158307,-0.32392496,0.9643922,0.21800414,0.649944,-0.8472841,0.31345382
1747679564.8163826,-0.32392496,0.9643922,0.21800414,0.649944,-0.8472841,0.31345382
1747679564.8169088,-0.32392496,0.9643922,0.21800414,0.649944,-0.8472841,0.31345382
1747679564.8174295,-0.32392496,0.9643922,0.21800414,0.649944,-0.8472841,0.31345382
1747679564.8179483,-0.32392496,0.9643922,0.21800414,0.649944,-0.8472841,0.31345382
1747679564.8184671,-0.32392496,0.9643922,0.21800414,0.649944,-0.8472841,0.31345382
1747679564.8189857,-0.32392496,0.9643922,0.21800414,0.649944,-0.8472841,0.31345382
1747679564.819504,-0.32392496,0.9643922,0.21800414,0.649944,-0.8472841,0.31345382
1747679564.8200226,-0.32392496,0.9643922,0.21800414,0.649944,-0.8472841,0.31345382
1747679564.820541,-0.32392496,0.9643922,0.21800414,0.649944,-0.8472841,0.31345382
1747679564.8210592,-0.32392496,0.9643922,0.21800414,0.649944,-0.8472841,0.31345382
1747679564.821578,-0.32392496,0.9643922,0.21800414,0.649944,-0.8472841,0.31345382
1747679564.8220966,-0.32392496,0.9643922,0.21800414,0.649944,-0.8472841,0.31345382
1747679564.8226175,-0.32392496,0.9643922,0.21800414,0.649944,-0.8472841,0.31345382
1747679564.823157,-0.11550009,0.98196435,0.094511166,0.6819019,-0.74182296,0.3954791
1747679564.8236973,-0.11550009,0.98196435,0.094511166,0.6819019,-0.74182296,0.3954791
1747679564.8242378,-0.11550009,0.98196435,0.094511166,0.6819019,-0.74182296,0.3954791
1747679564.824785,-0.11550009,0.98196435,0.094511166,0.6819019,-0.74182296,0.3954791
1747679564.82533,-0.11550009,0.98196435,0.094511166,0.6819019,-0.74182296,0.3954791
1747679564.8258567,-0.11550009,0.98196435,0.094511166,0.6819019,-0.74182296,0.3954791
1747679564.8263757,-0.11550009,0.98196435,0.094511166,0.6819019,-0.74182296,0.3954791
1747679564.8268945,-0.11550009,0.98196435,0.094511166,0.6819019,-0.74182296,0.3954791
1747679564.8274136,-0.11550009,0.98196435,0.094511166,0.6819019,-0.74182296,0.3954791
1747679564.8279366,-0.11550009,0.98196435,0.094511166,0.5977461,-0.58416396,0.38056543
1747679564.828459,-0.11550009,0.98196435,0.094511166,0.5977461,-0.58416396,0.38056543
1747679564.8289857,-0.11550009,0.98196435,0.094511166,0.5977461,-0.58416396,0.38056543
1747679564.8295362,-0.11550009,0.98196435,0.094511166,0.5977461,-0.58416396,0.38056543
1747679564.8300889,-0.11550009,0.98196435,0.094511166,0.5977461,-0.58416396,0.38056543
1747679564.8306236,-0.004209988,1.0073463,-0.055828094,0.5977461,-0.58416396,0.38056543
1747679564.8311455,-0.004209988,1.0073463,-0.055828094,0.5977461,-0.58416396,0.38056543
1747679564.8316643,-0.004209988,1.0073463,-0.055828094,0.5977461,-0.58416396,0.38056543
1747679564.832183,-0.004209988,1.0073463,-0.055828094,0.5977461,-0.58416396,0.38056543
1747679564.8327062,-0.004209988,1.0073463,-0.055828094,0.5977461,-0.58416396,0.38056543
1747679564.8332253,-0.004209988,1.0073463,-0.055828094,0.5977461,-0.58416396,0.38056543
1747679564.8337607,-0.004209988,1.0073463,-0.055828094,0.5977461,-0.58416396,0.38056543
1747679564.8343065,-0.004209988,1.0073463,-0.055828094,0.5977461,-0.58416396,0.38056543
1747679564.8348317,-0.004209988,1.0073463,-0.055828094,0.5977461,-0.58416396,0.38056543
1747679564.8353508,-0.004209988,1.0073463,-0.055828094,0.5977461,-0.58416396,0.38056543
1747679564.8358698,-0.004209988,1.0073463,-0.055828094,0.5977461,-0.58416396,0.38056543
1747679564.836388,-0.004209988,1.0073463,-0.055828094,0.5977461,-0.58416396,0.38056543
1747679564.8369086,-0.004209988,1.0073463,-0.055828094,0.5977461,-0.58416396,0.38056543
1747679564.8374672,-0.004209988,1.0073463,-0.055828094,0.5977461,-0.58416396,0.38056543
1747679564.8380327,-0.004209988,1.0073463,-0.055828094,0.5977461,-0.58416396,0.38056543
1747679564.8385935,-0.004209988,1.0073463,-0.055828094,0.5977461,-0.58416396,0.38056543
1747679564.8391495,-0.010067361,1.0171086,-0.15882026,0.5977461,-0.58416396,0.38056543
1747679564.8397152,-0.010067361,1.0171086,-0.15882026,0.5977461,-0.58416396,0.38056543
1747679564.8402798,-0.010067361,1.0171086,-0.15882026,0.5977461,-0.58416396,0.38056543
1747679564.84085,-0.010067361,1.0171086,-0.15882026,0.41558596,-0.42970073,0.3528686
1747679564.8414137,-0.010067361,1.0171086,-0.15882026,0.41558596,-0.42970073,0.3528686
1747679564.8419766,-0.010067361,1.0171086,-0.15882026,0.41558596,-0.42970073,0.3528686
1747679564.8425367,-0.010067361,1.0171086,-0.15882026,0.41558596,-0.42970073,0.3528686
1747679564.8430977,-0.010067361,1.0171086,-0.15882026,0.41558596,-0.42970073,0.3528686
1747679564.8436792,-0.010067361,1.0171086,-0.15882026,0.41558596,-0.42970073,0.3528686
1747679564.8442535,-0.010067361,1.0171086,-0.15882026,0.41558596,-0.42970073,0.3528686
1747679564.8448274,-0.010067361,1.0171086,-0.15882026,0.41558596,-0.42970073,0.3528686
1747679564.845397,-0.010067361,1.0171086,-0.15882026,0.41558596,-0.42970073,0.3528686
1747679564.8459666,-0.010067361,1.0171086,-0.15882026,0.41558596,-0.42970073,0.3528686
1747679564.8465245,-0.010067361,1.0171086,-0.15882026,0.41558596,-0.42970073,0.3528686
1747679564.8470836,-0.010067361,1.0171086,-0.15882026,0.41558596,-0.42970073,0.3528686
1747679564.8476403,-0.010067361,1.0171086,-0.15882026,0.19401114,-0.25606275,0.3432812
1747679564.8481987,-0.010067361,1.0171086,-0.15882026,0.19401114,-0.25606275,0.3432812
1747679564.8487546,-0.010067361,1.0171086,-0.15882026,0.19401114,-0.25606275,0.3432812
1747679564.849295,0.009945333,1.014668,-0.17639238,0.19401114,-0.25606275,0.3432812
1747679564.8498507,0.009945333,1.014668,-0.17639238,0.19401114,-0.25606275,0.3432812
1747679564.8504064,0.009945333,1.014668,-0.17639238,0.19401114,-0.25606275,0.3432812
1747679564.8509622,0.009945333,1.014668,-0.17639238,0.19401114,-0.25606275,0.3432812
1747679564.851518,0.009945333,1.014668,-0.17639238,0.19401114,-0.25606275,0.3432812
1747679564.852074,0.009945333,1.014668,-0.17639238,0.19401114,-0.25606275,0.3432812
1747679564.8526297,0.009945333,1.014668,-0.17639238,0.19401114,-0.25606275,0.3432812
1747679564.8531857,0.009945333,1.014668,-0.17639238,0.19401114,-0.25606275,0.3432812
1747679564.8537443,0.009945333,1.014668,-0.17639238,0.19401114,-0.25606275,0.3432812
1747679564.8543017,0.009945333,1.014668,-0.17639238,0.19401114,-0.25606275,0.3432812
1747679564.8548808,0.009945333,1.014668,-0.17639238,0.19401114,-0.25606275,0.3432812
1747679564.8554437,0.009945333,1.014668,-0.17639238,0.19401114,-0.25606275,0.3432812
1747679564.8559954,0.009945333,1.014668,-0.17639238,0.19401114,-0.25606275,0.3432812
1747679564.8565583,0.009945333,1.014668,-0.17639238,0.19401114,-0.25606275,0.3432812
1747679564.8571143,0.009945333,1.014668,-0.17639238,0.19401114,-0.25606275,0.3432812
1747679564.8576703,0.009945333,1.014668,-0.17639238,0.19401114,-0.25606275,0.3432812
1747679564.8582268,0.009945333,1.014668,-0.17639238,0.19401114,-0.25606275,0.3432812
1747679564.8587825,0.009945333,1.014668,-0.17639238,0.19401114,-0.25606275,0.3432812
1747679564.8593385,0.009945333,1.014668,-0.17639238,0.19401114,-0.25606275,0.3432812
1747679564.8598976,0.009945333,1.014668,-0.17639238,0.19401114,-0.25606275,0.3432812
1747679564.860448,0.009945333,1.014668,-0.17639238,0.19401114,-0.25606275,0.3432812
1747679564.8610165,0.009945333,1.014668,-0.17639238,0.19401114,-0.25606275,0.3432812
1747679564.861578,0.009945333,1.014668,-0.17639238,0.19401114,-0.25606275,0.3432812
1747679564.8621347,0.04850638,0.9966078,-0.08853176,0.0054594763,0.04753739,0.269778
1747679564.862691,0.04850638,0.9966078,-0.08853176,0.0054594763,0.04753739,0.269778
1747679564.8632472,0.04850638,0.9966078,-0.08853176,0.0054594763,0.04753739,0.269778
1747679564.8638058,0.04850638,0.9966078,-0.08853176,0.0054594763,0.04753739,0.269778
1747679564.8643682,0.04850638,0.9966078,-0.08853176,0.0054594763,0.04753739,0.269778
1747679564.8649244,0.04850638,0.9966078,-0.08853176,0.0054594763,0.04753739,0.269778
1747679564.8654802,0.04850638,0.9966078,-0.08853176,0.0054594763,0.04753739,0.269778
1747679564.8660362,0.04850638,0.9966078,-0.08853176,0.0054594763,0.04753739,0.269778
1747679564.8665922,0.04850638,0.9966078,-0.08853176,0.0054594763,0.04753739,0.269778
1747679564.8671358,0.04850638,0.9966078,-0.08853176,0.0054594763,0.04753739,0.269778
1747679564.8676946,0.04850638,0.9966078,-0.08853176,0.0054594763,0.04753739,0.269778
1747679564.8682551,0.04850638,0.9966078,-0.08853176,0.0054594763,0.04753739,0.269778
1747679564.8688118,0.04850638,0.9966078,-0.08853176,0.0054594763,0.04753739,0.269778
1747679564.8693678,0.04850638,0.9966078,-0.08853176,0.0054594763,0.04753739,0.269778
1747679564.869924,0.04850638,0.9966078,-0.08853176,0.0054594763,0.04753739,0.269778
1747679564.8705466,0.04850638,0.9966078,-0.08853176,0.0054594763,0.04753739,0.269778
1747679564.87111,0.04850638,0.9966078,-0.08853176,0.0054594763,0.04753739,0.269778
1747679564.8716655,0.04850638,0.9966078,-0.08853176,0.0054594763,0.04753739,0.269778
1747679564.8722136,0.04850638,0.9966078,-0.08853176,0.0054594763,0.04753739,0.269778
1747679564.8727667,0.04850638,0.9966078,-0.08853176,0.0054594763,0.04753739,0.269778
1747679564.8733313,0.04850638,0.9966078,-0.08853176,0.0054594763,0.04753739,0.269778
1747679564.8738904,0.023612538,0.99172664,-0.05387564,0.0054594763,0.04753739,0.269778
1747679564.8744526,0.023612538,0.99172664,-0.05387564,0.0054594763,0.04753739,0.269778
1747679564.8750117,0.023612538,0.99172664,-0.05387564,-0.026498433,0.112518474,0.2410159
1747679564.8755755,0.023612538,0.99172664,-0.05387564,-0.026498433,0.112518474,0.2410159
1747679564.8761334,0.023612538,0.99172664,-0.05387564,-0.026498433,0.112518474,0.2410159
1747679564.876694,0.023612538,0.99172664,-0.05387564,-0.026498433,0.112518474,0.2410159
1747679564.8772306,0.023612538,0.99172664,-0.05387564,-0.026498433,0.112518474,0.2410159
1747679564.8777535,0.023612538,0.99172664,-0.05387564,-0.026498433,0.112518474,0.2410159
1747679564.8782747,0.023612538,0.99172664,-0.05387564,-0.026498433,0.112518474,0.2410159
1747679564.8787956,0.023612538,0.99172664,-0.05387564,-0.026498433,0.112518474,0.2410159
1747679564.8793166,0.023612538,0.99172664,-0.05387564,-0.026498433,0.112518474,0.2410159
1747679564.8798378,0.023612538,0.99172664,-0.05387564,-0.026498433,0.112518474,0.2410159
1747679564.8803582,0.023612538,0.99172664,-0.05387564,-0.026498433,0.112518474,0.2410159
1747679564.880879,0.023612538,0.99172664,-0.05387564,-0.026498433,0.112518474,0.2410159
1747679564.8813996,0.023612538,0.99172664,-0.05387564,-0.026498433,0.112518474,0.2410159
1747679564.8819249,-0.11403575,0.98879796,0.044235375,-0.01691106,0.12849742,0.19734009
1747679564.8824465,-0.11403575,0.98879796,0.044235375,-0.01691106,0.12849742,0.19734009
1747679564.8829684,-0.11403575,0.98879796,0.044235375,-0.01691106,0.12849742,0.19734009
1747679564.8834953,-0.11403575,0.98879796,0.044235375,-0.01691106,0.12849742,0.19734009
1747679564.884024,-0.11403575,0.98879796,0.044235375,-0.01691106,0.12849742,0.19734009
1747679564.884566,-0.11403575,0.98879796,0.044235375,-0.01691106,0.12849742,0.19734009
1747679564.8850925,-0.11403575,0.98879796,0.044235375,-0.01691106,0.12849742,0.19734009
1747679564.8856387,-0.11403575,0.98879796,0.044235375,-0.01691106,0.12849742,0.19734009
1747679564.8861883,-0.11403575,0.98879796,0.044235375,-0.01691106,0.12849742,0.19734009
1747679564.8867264,-0.11403575,0.98879796,0.044235375,-0.01691106,0.12849742,0.19734009
1747679564.8872602,-0.11403575,0.98879796,0.044235375,-0.01691106,0.12849742,0.19734009
1747679564.8878057,-0.11403575,0.98879796,0.044235375,-0.01691106,0.12849742,0.19734009
1747679564.8883266,-0.11403575,0.98879796,0.044235375,-0.01691106,0.12849742,0.19734009
1747679564.888845,-0.11403575,0.98879796,0.044235375,-0.01691106,0.12849742,0.19734009
1747679564.8893635,-0.11403575,0.98879796,0.044235375,-0.01691106,0.12849742,0.19734009
1747679564.8898823,-0.11403575,0.98879796,0.044235375,-0.01691106,0.12849742,0.19734009
1747679564.8904014,-0.2170279,0.9653684,0.09060626,0.11518163,-0.047271073,0.23142852
1747679564.8909197,-0.2170279,0.9653684,0.09060626,0.11518163,-0.047271073,0.23142852
1747679564.8914409,-0.2170279,0.9653684,0.09060626,0.11518163,-0.047271073,0.23142852
1747679564.891993,-0.2170279,0.9653684,0.09060626,0.11518163,-0.047271073,0.23142852
1747679564.8925464,-0.2170279,0.9653684,0.09060626,0.11518163,-0.047271073,0.23142852
1747679564.8930788,-0.2170279,0.9653684,0.09060626,0.11518163,-0.047271073,0.23142852
1747679564.893599,-0.2170279,0.9653684,0.09060626,0.11518163,-0.047271073,0.23142852
1747679564.894133,-0.2170279,0.9653684,0.09060626,0.11518163,-0.047271073,0.23142852
1747679564.8946724,-0.2170279,0.9653684,0.09060626,0.11518163,-0.047271073,0.23142852
1747679564.8951936,-0.2170279,0.9653684,0.09060626,0.11518163,-0.047271073,0.23142852
1747679564.8957121,-0.2170279,0.9653684,0.09060626,0.11518163,-0.047271073,0.23142852
1747679564.896231,-0.2170279,0.9653684,0.09060626,0.11518163,-0.047271073,0.23142852
1747679564.8967488,-0.2170279,0.9653684,0.09060626,0.11518163,-0.047271073,0.23142852
1747679564.897267,-0.2170279,0.9653684,0.09060626,0.11518163,-0.047271073,0.23142852
1747679564.897785,-0.2170279,0.9653684,0.09060626,0.11518163,-0.047271073,0.23142852
1747679564.898303,-0.2170279,0.9653684,0.09060626,0.11518163,-0.047271073,0.23142852
1747679564.898821,-0.2170279,0.9653684,0.09060626,0.11518163,-0.047271073,0.23142852
1747679564.899339,-0.2170279,0.9653684,0.09060626,0.11518163,-0.047271073,0.23142852
1747679564.899857,-0.2170279,0.9653684,0.09060626,0.11518163,-0.047271073,0.23142852
1747679564.9004245,-0.2170279,0.9653684,0.09060626,0.11518163,-0.047271073,0.23142852
1747679564.900973,-0.2170279,0.9653684,0.09060626,0.11518163,-0.047271073,0.23142852
1747679564.9015267,-0.2170279,0.9653684,0.09060626,0.11518163,-0.047271073,0.23142852
1747679564.9020593,-0.2502197,0.9409627,0.08572511,0.2802975,-0.2017343,0.2878875
1747679564.9026124,-0.2502197,0.9409627,0.08572511,0.2802975,-0.2017343,0.2878875
1747679564.903156,-0.2502197,0.9409627,0.08572511,0.2802975,-0.2017343,0.2878875
1747679564.9036887,-0.2502197,0.9409627,0.08572511,0.2802975,-0.2017343,0.2878875
1747679564.9042206,-0.2502197,0.9409627,0.08572511,0.2802975,-0.2017343,0.2878875
1747679564.9047534,-0.2502197,0.9409627,0.08572511,0.2802975,-0.2017343,0.2878875
1747679564.905275,-0.2502197,0.9409627,0.08572511,0.2802975,-0.2017343,0.2878875
1747679564.905794,-0.2502197,0.9409627,0.08572511,0.2802975,-0.2017343,0.2878875
1747679564.9063122,-0.2502197,0.9409627,0.08572511,0.2802975,-0.2017343,0.2878875
1747679564.9068303,-0.2502197,0.9409627,0.08572511,0.2802975,-0.2017343,0.2878875
1747679564.9073513,-0.2502197,0.9409627,0.08572511,0.2802975,-0.2017343,0.2878875
1747679564.9078953,-0.2502197,0.9409627,0.08572511,0.2802975,-0.2017343,0.2878875
1747679564.9084342,-0.2502197,0.9409627,0.08572511,0.2802975,-0.2017343,0.2878875
1747679564.9089553,-0.2502197,0.9409627,0.08572511,0.2802975,-0.2017343,0.2878875
1747679564.9094741,-0.2502197,0.9409627,0.08572511,0.2802975,-0.2017343,0.2878875
1747679564.9099925,-0.2502197,0.9409627,0.08572511,0.2802975,-0.2017343,0.2878875
1747679564.9105105,-0.2502197,0.9409627,0.08572511,0.2802975,-0.2017343,0.2878875
1747679564.9110293,-0.2502197,0.9409627,0.08572511,0.2802975,-0.2017343,0.2878875
1747679564.9115474,-0.2502197,0.9409627,0.08572511,0.2802975,-0.2017343,0.2878875
1747679564.9120657,-0.2502197,0.9409627,0.08572511,0.2802975,-0.2017343,0.2878875
1747679564.9125836,-0.2502197,0.9409627,0.08572511,0.2802975,-0.2017343,0.2878875
1747679564.9131024,-0.2502197,0.9409627,0.08572511,0.2802975,-0.2017343,0.2878875
1747679564.913634,-0.2502197,0.9409627,0.08572511,0.43582597,-0.25925854,0.34221596
1747679564.9141824,-0.24240986,0.92143816,-0.008969104,0.43582597,-0.25925854,0.34221596
1747679564.914708,-0.24240986,0.92143816,-0.008969104,0.43582597,-0.25925854,0.34221596
1747679564.9152265,-0.24240986,0.92143816,-0.008969104,0.43582597,-0.25925854,0.34221596
1747679564.915763,-0.24240986,0.92143816,-0.008969104,0.43582597,-0.25925854,0.34221596
1747679564.9162948,-0.24240986,0.92143816,-0.008969104,0.43582597,-0.25925854,0.34221596
1747679564.9168158,-0.24240986,0.92143816,-0.008969104,0.43582597,-0.25925854,0.34221596
1747679564.9173346,-0.24240986,0.92143816,-0.008969104,0.43582597,-0.25925854,0.34221596
1747679564.9178526,-0.24240986,0.92143816,-0.008969104,0.43582597,-0.25925854,0.34221596
1747679564.918371,-0.24240986,0.92143816,-0.008969104,0.43582597,-0.25925854,0.34221596
1747679564.9188893,-0.24240986,0.92143816,-0.008969104,0.43582597,-0.25925854,0.34221596
1747679564.9194148,-0.24240986,0.92143816,-0.008969104,0.43582597,-0.25925854,0.34221596
1747679564.919933,-0.24240986,0.92143816,-0.008969104,0.43582597,-0.25925854,0.34221596
1747679564.9204514,-0.24240986,0.92143816,-0.008969104,0.43582597,-0.25925854,0.34221596
1747679564.9209697,-0.24240986,0.92143816,-0.008969104,0.43582597,-0.25925854,0.34221596
1747679564.9214878,-0.24240986,0.92143816,-0.008969104,0.43582597,-0.25925854,0.34221596
1747679564.9220057,-0.24240986,0.92143816,-0.008969104,0.43582597,-0.25925854,0.34221596
1747679564.922524,-0.24240986,0.92143816,-0.008969104,0.43582597,-0.25925854,0.34221596
1747679564.9230447,-0.24240986,0.92143816,-0.008969104,0.43582597,-0.25925854,0.34221596
1747679564.923597,-0.22434962,0.9019136,-0.09487725,0.43582597,-0.25925854,0.34221596
1747679564.9241462,-0.22434962,0.9019136,-0.09487725,0.47204494,-0.25073642,0.3581949
1747679564.9246888,-0.22434962,0.9019136,-0.09487725,0.47204494,-0.25073642,0.3581949
1747679564.9252236,-0.22434962,0.9019136,-0.09487725,0.47204494,-0.25073642,0.3581949
1747679564.9258027,-0.22434962,0.9019136,-0.09487725,0.47204494,-0.25073642,0.3581949
1747679564.9263394,-0.22434962,0.9019136,-0.09487725,0.47204494,-0.25073642,0.3581949
1747679564.9268644,-0.22434962,0.9019136,-0.09487725,0.47204494,-0.25073642,0.3581949
1747679564.9273832,-0.22434962,0.9019136,-0.09487725,0.47204494,-0.25073642,0.3581949
1747679564.9279017,-0.22434962,0.9019136,-0.09487725,0.47204494,-0.25073642,0.3581949
1747679564.9284196,-0.22434962,0.9019136,-0.09487725,0.47204494,-0.25073642,0.3581949
1747679564.928938,-0.22434962,0.9019136,-0.09487725,0.47204494,-0.25073642,0.3581949
1747679564.9294562,-0.22434962,0.9019136,-0.09487725,0.47204494,-0.25073642,0.3581949
1747679564.9299748,-0.19311029,0.8882464,-0.16174895,0.44541335,-0.25606275,0.36245596
1747679564.9305272,-0.19311029,0.8882464,-0.16174895,0.44541335,-0.25606275,0.36245596
1747679564.9310853,-0.19311029,0.8882464,-0.16174895,0.44541335,-0.25606275,0.36245596
1747679564.9316218,-0.19311029,0.8882464,-0.16174895,0.44541335,-0.25606275,0.36245596
1747679564.9321828,-0.19311029,0.8882464,-0.16174895,0.44541335,-0.25606275,0.36245596
1747679564.9327314,-0.19311029,0.8882464,-0.16174895,0.44541335,-0.25606275,0.36245596
1747679564.9332626,-0.19311029,0.8882464,-0.16174895,0.44541335,-0.25606275,0.36245596
1747679564.9337828,-0.19311029,0.8882464,-0.16174895,0.44541335,-0.25606275,0.36245596
1747679564.9343145,-0.19311029,0.8882464,-0.16174895,0.44541335,-0.25606275,0.36245596
1747679564.934853,-0.19311029,0.8882464,-0.16174895,0.44541335,-0.25606275,0.36245596
1747679564.9353797,-0.19311029,0.8882464,-0.16174895,0.44541335,-0.25606275,0.36245596
1747679564.9358983,-0.19311029,0.8882464,-0.16174895,0.44541335,-0.25606275,0.36245596
1747679564.9364173,-0.19311029,0.8882464,-0.16174895,0.44541335,-0.25606275,0.36245596
1747679564.9369361,-0.19311029,0.8882464,-0.16174895,0.44541335,-0.25606275,0.36245596
1747679564.9374547,-0.19311029,0.8882464,-0.16174895,0.44541335,-0.25606275,0.36245596
1747679564.937973,-0.19311029,0.8882464,-0.16174895,0.44541335,-0.25606275,0.36245596
1747679564.938491,-0.19311029,0.8882464,-0.16174895,0.44541335,-0.25606275,0.36245596
1747679564.939013,-0.19311029,0.8882464,-0.16174895,0.44541335,-0.25606275,0.36245596
1747679564.9395642,-0.19311029,0.8882464,-0.16174895,0.44541335,-0.25606275,0.36245596
1747679564.9401097,-0.09646362,0.8921513,-0.22666818,0.44541335,-0.25606275,0.36245596
1747679564.940649,-0.09646362,0.8921513,-0.22666818,0.44541335,-0.25606275,0.36245596
1747679564.9411688,-0.09646362,0.8921513,-0.22666818,0.44541335,-0.25606275,0.36245596
1747679564.941688,-0.09646362,0.8921513,-0.22666818,0.44541335,-0.25606275,0.36245596
1747679564.9422069,-0.09646362,0.8921513,-0.22666818,0.44541335,-0.25606275,0.36245596
1747679564.9427338,-0.09646362,0.8921513,-0.22666818,0.35167015,-0.2635196,0.32730225
1747679564.943256,-0.09646362,0.8921513,-0.22666818,0.35167015,-0.2635196,0.32730225
1747679564.9437842,-0.09646362,0.8921513,-0.22666818,0.35167015,-0.2635196,0.32730225
1747679564.9443223,-0.09646362,0.8921513,-0.22666818,0.35167015,-0.2635196,0.32730225
1747679564.944848,-0.09646362,0.8921513,-0.22666818,0.35167015,-0.2635196,0.32730225
1747679564.9453669,-0.09646362,0.8921513,-0.22666818,0.35167015,-0.2635196,0.32730225
1747679564.9458897,-0.09646362,0.8921513,-0.22666818,0.35167015,-0.2635196,0.32730225
1747679564.9464107,-0.09646362,0.8921513,-0.22666818,0.35167015,-0.2635196,0.32730225
1747679564.94693,-0.09646362,0.8921513,-0.22666818,0.35167015,-0.2635196,0.32730225
1747679564.947449,-0.09646362,0.8921513,-0.22666818,0.20892483,-0.2635196,0.24634221
1747679564.9479692,-0.09646362,0.8921513,-0.22666818,0.20892483,-0.2635196,0.24634221
1747679564.9484897,-0.09646362,0.8921513,-0.22666818,0.20892483,-0.2635196,0.24634221
1747679564.9490087,-0.049604636,0.87262666,-0.2447284,0.20892483,-0.2635196,0.24634221
1747679564.9495268,-0.049604636,0.87262666,-0.2447284,0.20892483,-0.2635196,0.24634221
1747679564.950045,-0.049604636,0.87262666,-0.2447284,0.20892483,-0.2635196,0.24634221
1747679564.950563,-0.049604636,0.87262666,-0.2447284,0.20892483,-0.2635196,0.24634221
1747679564.951081,-0.049604636,0.87262666,-0.2447284,0.20892483,-0.2635196,0.24634221
1747679564.9515991,-0.049604636,0.87262666,-0.2447284,0.20892483,-0.2635196,0.24634221
1747679564.9521172,-0.049604636,0.87262666,-0.2447284,0.20892483,-0.2635196,0.24634221
1747679564.9526353,-0.049604636,0.87262666,-0.2447284,0.20892483,-0.2635196,0.24634221
1747679564.9531534,-0.049604636,0.87262666,-0.2447284,0.20892483,-0.2635196,0.24634221
1747679564.9536738,-0.049604636,0.87262666,-0.2447284,0.20892483,-0.2635196,0.24634221
1747679564.954219,-0.049604636,0.87262666,-0.2447284,0.20892483,-0.2635196,0.24634221
1747679564.9547606,-0.049604636,0.87262666,-0.2447284,0.20892483,-0.2635196,0.24634221
1747679564.9552863,-0.049604636,0.87262666,-0.2447284,0.20892483,-0.2635196,0.24634221
1747679564.9558053,-0.049604636,0.87262666,-0.2447284,0.20892483,-0.2635196,0.24634221
1747679564.9563234,-0.049604636,0.87262666,-0.2447284,0.20892483,-0.2635196,0.24634221
1747679564.9568415,-0.049604636,0.87262666,-0.2447284,0.20892483,-0.2635196,0.24634221
1747679564.9573598,-0.049604636,0.87262666,-0.2447284,0.20892483,-0.2635196,0.24634221
1747679564.9578826,-0.049604636,0.87262666,-0.2447284,0.20892483,-0.2635196,0.24634221
1747679564.958408,-0.049604636,0.87262666,-0.2447284,0.20892483,-0.2635196,0.24634221
1747679564.958936,-0.049604636,0.87262666,-0.2447284,0.022503695,-0.2837596,0.20053588
1747679564.959463,-0.09988043,0.8618881,-0.23008497,0.022503695,-0.2837596,0.20053588
1747679564.959986,-0.09988043,0.8618881,-0.23008497,0.022503695,-0.2837596,0.20053588
1747679564.9605103,-0.09988043,0.8618881,-0.23008497,0.022503695,-0.2837596,0.20053588
1747679564.9610615,-0.09988043,0.8618881,-0.23008497,0.022503695,-0.2837596,0.20053588
1747679564.9616194,-0.09988043,0.8618881,-0.23008497,0.022503695,-0.2837596,0.20053588
1747679564.9621737,-0.09988043,0.8618881,-0.23008497,0.022503695,-0.2837596,0.20053588
1747679564.9627223,-0.09988043,0.8618881,-0.23008497,0.022503695,-0.2837596,0.20053588
1747679564.9632757,-0.09988043,0.8618881,-0.23008497,0.022503695,-0.2837596,0.20053588
1747679564.9638362,-0.09988043,0.8618881,-0.23008497,0.022503695,-0.2837596,0.20053588
1747679564.9643745,-0.09988043,0.8618881,-0.23008497,0.022503695,-0.2837596,0.20053588
1747679564.9649055,-0.09988043,0.8618881,-0.23008497,0.022503695,-0.2837596,0.20053588
1747679564.9654367,-0.09988043,0.8618881,-0.23008497,0.022503695,-0.2837596,0.20053588
1747679564.965968,-0.09988043,0.8618881,-0.23008497,0.022503695,-0.2837596,0.20053588
1747679564.9664986,-0.09988043,0.8618881,-0.23008497,0.022503695,-0.2837596,0.20053588
1747679564.9670324,-0.09988043,0.8618881,-0.23008497,0.022503695,-0.2837596,0.20053588
1747679564.9675632,-0.09988043,0.8618881,-0.23008497,0.022503695,-0.2837596,0.20053588
1747679564.9680953,-0.09988043,0.8618881,-0.23008497,0.022503695,-0.2837596,0.20053588
1747679564.96863,-0.09988043,0.8618881,-0.23008497,-0.09254478,-0.31252173,0.23036326
1747679564.969162,-0.09988043,0.8618881,-0.23008497,-0.09254478,-0.31252173,0.23036326
1747679564.9697003,-0.09988043,0.8618881,-0.23008497,-0.09254478,-0.31252173,0.23036326
1747679564.9702568,-0.14771566,0.83797055,-0.19201204,-0.09254478,-0.31252173,0.23036326
1747679564.9708107,-0.14771566,0.83797055,-0.19201204,-0.09254478,-0.31252173,0.23036326
1747679564.9713511,-0.14771566,0.83797055,-0.19201204,-0.09254478,-0.31252173,0.23036326
1747679564.971886,-0.14771566,0.83797055,-0.19201204,-0.09254478,-0.31252173,0.23036326
1747679564.9724188,-0.14771566,0.83797055,-0.19201204,-0.09254478,-0.31252173,0.23036326
1747679564.972951,-0.14771566,0.83797055,-0.19201204,-0.09254478,-0.31252173,0.23036326
1747679564.9734952,-0.14771566,0.83797055,-0.19201204,-0.09254478,-0.31252173,0.23036326
1747679564.9740486,-0.14771566,0.83797055,-0.19201204,-0.09254478,-0.31252173,0.23036326
1747679564.974588,-0.14771566,0.83797055,-0.19201204,-0.09254478,-0.31252173,0.23036326
1747679564.9751203,-0.14771566,0.83797055,-0.19201204,-0.09254478,-0.31252173,0.23036326
1747679564.9756515,-0.14771566,0.83797055,-0.19201204,-0.09254478,-0.31252173,0.23036326
1747679564.9761858,-0.14771566,0.83797055,-0.19201204,-0.09254478,-0.31252173,0.23036326
1747679564.9767203,-0.14771566,0.83797055,-0.19201204,-0.09254478,-0.31252173,0.23036326
1747679564.9772534,-0.14771566,0.83797055,-0.19201204,-0.09254478,-0.31252173,0.23036326
1747679564.9778059,-0.14966811,0.81014806,-0.12806904,-0.09254478,-0.31252173,0.23036326
1747679564.978357,-0.14966811,0.81014806,-0.12806904,-0.20972379,-0.38389438,0.2964096
1747679564.9789302,-0.14966811,0.81014806,-0.12806904,-0.20972379,-0.38389438,0.2964096
1747679564.9794962,-0.14966811,0.81014806,-0.12806904,-0.20972379,-0.38389438,0.2964096
1747679564.980074,-0.14966811,0.81014806,-0.12806904,-0.20972379,-0.38389438,0.2964096
1747679564.9806452,-0.14966811,0.81014806,-0.12806904,-0.20972379,-0.38389438,0.2964096
1747679564.981208,-0.14966811,0.81014806,-0.12806904,-0.20972379,-0.38389438,0.2964096
1747679564.9817615,-0.14966811,0.81014806,-0.12806904,-0.20972379,-0.38389438,0.2964096
1747679564.9822936,-0.14966811,0.81014806,-0.12806904,-0.20972379,-0.38389438,0.2964096
1747679564.9828212,-0.14966811,0.81014806,-0.12806904,-0.20972379,-0.38389438,0.2964096
1747679564.983348,-0.14966811,0.81014806,-0.12806904,-0.20972379,-0.38389438,0.2964096
1747679564.9838889,-0.14966811,0.81014806,-0.12806904,-0.20972379,-0.38389438,0.2964096
1747679564.9844472,-0.14966811,0.81014806,-0.12806904,-0.20972379,-0.38389438,0.2964096
1747679564.9849901,-0.14966811,0.81014806,-0.12806904,-0.20972379,-0.38389438,0.2964096
1747679564.9855342,-0.14966811,0.81014806,-0.12806904,-0.20972379,-0.38389438,0.2964096
1747679564.986102,-0.14966811,0.81014806,-0.12806904,-0.20972379,-0.38389438,0.2964096
1747679564.9866617,-0.14966811,0.81014806,-0.12806904,-0.20972379,-0.38389438,0.2964096
1747679564.9871933,-0.14966811,0.81014806,-0.12806904,-0.20972379,-0.38389438,0.2964096
1747679564.9877338,-0.14966811,0.81014806,-0.12806904,-0.20972379,-0.38389438,0.2964096
1747679564.9882584,-0.14966811,0.81014806,-0.12806904,-0.20972379,-0.38389438,0.2964096
1747679564.9887807,-0.14966811,0.81014806,-0.12806904,-0.20972379,-0.38389438,0.2964096
1747679564.9893067,-0.13697714,0.78086114,-0.054363754,-0.20972379,-0.38389438,0.2964096
1747679564.9898741,-0.13697714,0.78086114,-0.054363754,-0.20972379,-0.38389438,0.2964096
1747679564.990413,-0.13697714,0.78086114,-0.054363754,-0.20972379,-0.38389438,0.2964096
1747679564.9909363,-0.13697714,0.78086114,-0.054363754,-0.20972379,-0.38389438,0.2964096
1747679564.9915287,-0.13697714,0.78086114,-0.054363754,-0.20972379,-0.38389438,0.2964096
1747679564.992084,-0.13697714,0.78086114,-0.054363754,-0.20972379,-0.38389438,0.2964096
1747679564.9926205,-0.13697714,0.78086114,-0.054363754,-0.20972379,-0.38389438,0.2964096
1747679564.9931438,-0.13697714,0.78086114,-0.054363754,-0.20972379,-0.38389438,0.2964096
1747679564.9936738,-0.13697714,0.78086114,-0.054363754,-0.28429222,-0.43396178,0.36565176
1747679564.994213,-0.13697714,0.78086114,-0.054363754,-0.28429222,-0.43396178,0.36565176
1747679564.9947534,-0.13697714,0.78086114,-0.054363754,-0.28429222,-0.43396178,0.36565176
1747679564.9952793,-0.13697714,0.78086114,-0.054363754,-0.28429222,-0.43396178,0.36565176
1747679564.9957983,-0.13697714,0.78086114,-0.054363754,-0.28429222,-0.43396178,0.36565176
1747679564.9963164,-0.13697714,0.78086114,-0.054363754,-0.28429222,-0.43396178,0.36565176
1747679564.9968348,-0.13697714,0.78086114,-0.054363754,-0.28429222,-0.43396178,0.36565176
1747679564.9973533,-0.13697714,0.78086114,-0.054363754,-0.28429222,-0.43396178,0.36565176
1747679564.9978714,-0.13697714,0.78086114,-0.054363754,-0.28429222,-0.43396178,0.36565176
1747679564.9983897,-0.13697714,0.78086114,-0.054363754,-0.28429222,-0.43396178,0.36565176
1747679564.998908,-0.13697714,0.78086114,-0.054363754,-0.28429222,-0.43396178,0.36565176
1747679564.9994266,-0.13697714,0.78086114,-0.054363754,-0.28429222,-0.43396178,0.36565176
1747679564.9999447,-0.13697714,0.78086114,-0.054363754,-0.28429222,-0.43396178,0.36565176
1747679565.0004666,-0.13697714,0.78086114,-0.054363754,-0.28429222,-0.43396178,0.36565176
1747679565.0010169,-0.13697714,0.78086114,-0.054363754,-0.28429222,-0.43396178,0.36565176
1747679565.0015647,-0.13697714,0.78086114,-0.054363754,-0.28429222,-0.43396178,0.36565176
1747679565.002098,-0.12526238,0.7505981,-0.002135501,-0.28429222,-0.43396178,0.36565176
1747679565.0026183,-0.12526238,0.7505981,-0.002135501,-0.3119891,-0.42650494,0.4189149
1747679565.0031374,-0.12526238,0.7505981,-0.002135501,-0.3119891,-0.42650494,0.4189149
1747679565.0036657,-0.12526238,0.7505981,-0.002135501,-0.3119891,-0.42650494,0.4189149
1747679565.0042055,-0.12526238,0.7505981,-0.002135501,-0.3119891,-0.42650494,0.4189149
1747679565.0047312,-0.12526238,0.7505981,-0.002135501,-0.3119891,-0.42650494,0.4189149
1747679565.0052502,-0.12526238,0.7505981,-0.002135501,-0.3119891,-0.42650494,0.4189149
1747679565.0057693,-0.12526238,0.7505981,-0.002135501,-0.3119891,-0.42650494,0.4189149
1747679565.0062873,-0.12526238,0.7505981,-0.002135501,-0.3119891,-0.42650494,0.4189149
1747679565.0068245,-0.12526238,0.7505981,-0.002135501,-0.3119891,-0.42650494,0.4189149
1747679565.0073702,-0.12526238,0.7505981,-0.002135501,-0.3119891,-0.42650494,0.4189149
1747679565.0078943,-0.12526238,0.7505981,-0.002135501,-0.3119891,-0.42650494,0.4189149
1747679565.008413,-0.12526238,0.7505981,-0.002135501,-0.3119891,-0.42650494,0.4189149
1747679565.0089316,-0.12526238,0.7505981,-0.002135501,-0.3119891,-0.42650494,0.4189149
1747679565.00945,-0.12526238,0.7505981,-0.002135501,-0.3119891,-0.42650494,0.4189149
1747679565.0099683,-0.12526238,0.7505981,-0.002135501,-0.3119891,-0.42650494,0.4189149
1747679565.0104868,-0.12526238,0.7505981,-0.002135501,-0.3119891,-0.42650494,0.4189149
1747679565.011005,-0.12526238,0.7505981,-0.002135501,-0.3119891,-0.42650494,0.4189149
1747679565.0115228,-0.12526238,0.7505981,-0.002135501,-0.3119891,-0.42650494,0.4189149
1747679565.0120413,-0.12526238,0.7505981,-0.002135501,-0.3119891,-0.42650494,0.4189149
1747679565.0125592,-0.12526238,0.7505981,-0.002135501,-0.3119891,-0.42650494,0.4189149
1747679565.0130775,-0.12526238,0.7505981,-0.002135501,-0.3119891,-0.42650494,0.4189149
1747679565.0135958,-0.1257505,0.7061797,0.04862841,-0.3119891,-0.42650494,0.4189149
1747679565.014123,-0.1257505,0.7061797,0.04862841,-0.3109238,-0.4158523,0.48389602
1747679565.014658,-0.1257505,0.7061797,0.04862841,-0.3109238,-0.4158523,0.48389602
1747679565.015184,-0.1257505,0.7061797,0.04862841,-0.3109238,-0.4158523,0.48389602
1747679565.0157025,-0.1257505,0.7061797,0.04862841,-0.3109238,-0.4158523,0.48389602
1747679565.0162237,-0.1257505,0.7061797,0.04862841,-0.3109238,-0.4158523,0.48389602
1747679565.016777,-0.1257505,0.7061797,0.04862841,-0.3109238,-0.4158523,0.48389602
1747679565.0173228,-0.1257505,0.7061797,0.04862841,-0.3109238,-0.4158523,0.48389602
1747679565.0178556,-0.1257505,0.7061797,0.04862841,-0.3109238,-0.4158523,0.48389602
1747679565.0183752,-0.1257505,0.7061797,0.04862841,-0.3109238,-0.4158523,0.48389602
1747679565.0188937,-0.1257505,0.7061797,0.04862841,-0.3109238,-0.4158523,0.48389602
1747679565.0194292,-0.1257505,0.7061797,0.04862841,-0.3109238,-0.4158523,0.48389602
1747679565.019948,-0.1257505,0.7061797,0.04862841,-0.3109238,-0.4158523,0.48389602
1747679565.0204663,-0.1257505,0.7061797,0.04862841,-0.3109238,-0.4158523,0.48389602
1747679565.0209846,-0.1257505,0.7061797,0.04862841,-0.3109238,-0.4158523,0.48389602
1747679565.0215025,-0.1257505,0.7061797,0.04862841,-0.3109238,-0.4158523,0.48389602
1747679565.0220509,-0.1257505,0.7061797,0.04862841,-0.3109238,-0.4158523,0.48389602
1747679565.0226116,-0.1257505,0.7061797,0.04862841,-0.3109238,-0.4158523,0.48389602
1747679565.0231736,-0.1257505,0.7061797,0.04862841,-0.3109238,-0.4158523,0.48389602
1747679565.0237236,-0.1257505,0.7061797,0.04862841,-0.3109238,-0.4158523,0.48389602
1747679565.024264,-0.1257505,0.7061797,0.04862841,-0.3109238,-0.4158523,0.48389602
1747679565.0247967,-0.1257505,0.7061797,0.04862841,-0.3109238,-0.4158523,0.48389602
1747679565.0253217,-0.1257505,0.7061797,0.04862841,-0.3109238,-0.4158523,0.48389602
1747679565.025841,-0.16528776,0.63393867,0.08474888,-0.2683133,-0.45313653,0.58190024
1747679565.0263596,-0.16528776,0.63393867,0.08474888,-0.2683133,-0.45313653,0.58190024
1747679565.0268779,-0.16528776,0.63393867,0.08474888,-0.2683133,-0.45313653,0.58190024
1747679565.0273964,-0.16528776,0.63393867,0.08474888,-0.2683133,-0.45313653,0.58190024
1747679565.0279143,-0.16528776,0.63393867,0.08474888,-0.2683133,-0.45313653,0.58190024
1747679565.0284324,-0.16528776,0.63393867,0.08474888,-0.2683133,-0.45313653,0.58190024
1747679565.0289505,-0.16528776,0.63393867,0.08474888,-0.2683133,-0.45313653,0.58190024
1747679565.0294683,-0.16528776,0.63393867,0.08474888,-0.2683133,-0.45313653,0.58190024
1747679565.0299866,-0.16528776,0.63393867,0.08474888,-0.2683133,-0.45313653,0.58190024
1747679565.0305045,-0.16528776,0.63393867,0.08474888,-0.2683133,-0.45313653,0.58190024
1747679565.0310225,-0.16528776,0.63393867,0.08474888,-0.2683133,-0.45313653,0.58190024
1747679565.0315406,-0.16528776,0.63393867,0.08474888,-0.2683133,-0.45313653,0.58190024
1747679565.0320613,-0.16528776,0.63393867,0.08474888,-0.2683133,-0.45313653,0.58190024
1747679565.0326161,-0.16528776,0.63393867,0.08474888,-0.2683133,-0.45313653,0.58190024
1747679565.0331678,-0.16528776,0.63393867,0.08474888,-0.2683133,-0.45313653,0.58190024
1747679565.0337105,-0.16528776,0.63393867,0.08474888,-0.2683133,-0.45313653,0.58190024
1747679565.0342596,-0.16528776,0.63393867,0.08474888,-0.2683133,-0.45313653,0.58190024
1747679565.0347862,-0.16528776,0.63393867,0.08474888,-0.2683133,-0.45313653,0.58190024
1747679565.035308,-0.16528776,0.63393867,0.08474888,-0.2033322,-0.47337654,0.72251505
1747679565.0358267,-0.16528776,0.63393867,0.08474888,-0.2033322,-0.47337654,0.72251505
1747679565.0363472,-0.16528776,0.63393867,0.08474888,-0.2033322,-0.47337654,0.72251505
1747679565.0368676,-0.20287259,0.55681664,0.09353494,-0.2033322,-0.47337654,0.72251505
1747679565.0374095,-0.20287259,0.55681664,0.09353494,-0.2033322,-0.47337654,0.72251505
1747679565.037956,-0.20287259,0.55681664,0.09353494,-0.2033322,-0.47337654,0.72251505
1747679565.03848,-0.20287259,0.55681664,0.09353494,-0.2033322,-0.47337654,0.72251505
1747679565.0389988,-0.20287259,0.55681664,0.09353494,-0.2033322,-0.47337654,0.72251505
1747679565.0395172,-0.20287259,0.55681664,0.09353494,-0.2033322,-0.47337654,0.72251505
1747679565.0400357,-0.20287259,0.55681664,0.09353494,-0.2033322,-0.47337654,0.72251505
1747679565.0405545,-0.20287259,0.55681664,0.09353494,-0.14793849,-0.4275702,0.85886884
1747679565.0410726,-0.20287259,0.55681664,0.09353494,-0.14793849,-0.4275702,0.85886884
1747679565.0415907,-0.20287259,0.55681664,0.09353494,-0.14793849,-0.4275702,0.85886884
1747679565.0421107,-0.20287259,0.55681664,0.09353494,-0.14793849,-0.4275702,0.85886884
1747679565.0426311,-0.21165864,0.50458837,0.094511166,-0.14793849,-0.4275702,0.85886884
1747679565.0431492,-0.21165864,0.50458837,0.094511166,-0.14793849,-0.4275702,0.85886884
1747679565.0436676,-0.21165864,0.50458837,0.094511166,-0.14793849,-0.4275702,0.85886884
1747679565.0441942,-0.21165864,0.50458837,0.094511166,-0.14793849,-0.4275702,0.85886884
1747679565.0447252,-0.21165864,0.50458837,0.094511166,-0.14793849,-0.4275702,0.85886884
1747679565.0452461,-0.21165864,0.50458837,0.094511166,-0.14793849,-0.4275702,0.85886884
1747679565.0457647,-0.21165864,0.50458837,0.094511166,-0.14793849,-0.4275702,0.85886884
1747679565.046283,-0.21165864,0.50458837,0.094511166,-0.14793849,-0.4275702,0.85886884
1747679565.0468016,-0.21165864,0.50458837,0.094511166,-0.14793849,-0.4275702,0.85886884
1747679565.0473194,-0.21165864,0.50458837,0.094511166,-0.14793849,-0.4275702,0.85886884
1747679565.0478404,-0.21165864,0.50458837,0.094511166,-0.14793849,-0.4275702,0.85886884
1747679565.048395,-0.21165864,0.50458837,0.094511166,-0.14793849,-0.4275702,0.85886884
1747679565.048941,-0.21165864,0.50458837,0.094511166,-0.14793849,-0.4275702,0.85886884
1747679565.0494733,-0.21165864,0.50458837,0.094511166,-0.14793849,-0.4275702,0.85886884
1747679565.049998,-0.21165864,0.50458837,0.094511166,-0.14793849,-0.4275702,0.85886884
1747679565.0505195,-0.21263488,0.44015723,0.09011813,-0.14793849,-0.4275702,0.85886884
1747679565.051039,-0.21263488,0.44015723,0.09011813,-0.097871095,-0.40306914,0.9675257
1747679565.0515583,-0.21263488,0.44015723,0.09011813,-0.097871095,-0.40306914,0.9675257
1747679565.0520768,-0.21263488,0.44015723,0.09011813,-0.097871095,-0.40306914,0.9675257
1747679565.0526094,-0.21263488,0.44015723,0.09011813,-0.097871095,-0.40306914,0.9675257
1747679565.0532038,-0.21263488,0.44015723,0.09011813,-0.097871095,-0.40306914,0.9675257
1747679565.0537496,-0.21263488,0.44015723,0.09011813,-0.097871095,-0.40306914,0.9675257
1747679565.0543056,-0.21263488,0.44015723,0.09011813,-0.097871095,-0.40306914,0.9675257
1747679565.0548382,-0.21263488,0.44015723,0.09011813,-0.097871095,-0.40306914,0.9675257
1747679565.0553582,-0.21263488,0.44015723,0.09011813,-0.097871095,-0.40306914,0.9675257
1747679565.0558765,-0.21263488,0.44015723,0.09011813,-0.097871095,-0.40306914,0.9675257
1747679565.056395,-0.21263488,0.44015723,0.09011813,-0.097871095,-0.40306914,0.9675257
1747679565.0569136,-0.21263488,0.44015723,0.09011813,-0.097871095,-0.40306914,0.9675257
1747679565.0574324,-0.21263488,0.44015723,0.09011813,-0.097871095,-0.40306914,0.9675257
1747679565.0579505,-0.21263488,0.44015723,0.09011813,-0.097871095,-0.40306914,0.9675257
1747679565.0584712,-0.21263488,0.44015723,0.09011813,-0.097871095,-0.40306914,0.9675257
1747679565.058992,-0.21263488,0.44015723,0.09011813,-0.097871095,-0.40306914,0.9675257
1747679565.0595105,-0.21263488,0.44015723,0.09011813,-0.097871095,-0.40306914,0.9675257
1747679565.060029,-0.21263488,0.44015723,0.09011813,-0.097871095,-0.40306914,0.9675257
1747679565.0605474,-0.21263488,0.44015723,0.09011813,-0.097871095,-0.40306914,0.9675257
1747679565.0610657,-0.21263488,0.44015723,0.09011813,-0.097871095,-0.40306914,0.9675257
1747679565.0615838,-0.21263488,0.44015723,0.09011813,-0.097871095,-0.40306914,0.9675257
1747679565.0621023,-0.2101943,0.38597652,0.055950124,-0.04354265,-0.39135122,1.1038795
1747679565.0626209,-0.2101943,0.38597652,0.055950124,-0.04354265,-0.39135122,1.1038795
1747679565.0631394,-0.2101943,0.38597652,0.055950124,-0.04354265,-0.39135122,1.1038795
1747679565.0636606,-0.2101943,0.38597652,0.055950124,-0.04354265,-0.39135122,1.1038795
1747679565.0642254,-0.2101943,0.38597652,0.055950124,-0.04354265,-0.39135122,1.1038795
1747679565.0647745,-0.2101943,0.38597652,0.055950124,-0.04354265,-0.39135122,1.1038795
1747679565.0653007,-0.2101943,0.38597652,0.055950124,-0.04354265,-0.39135122,1.1038795
1747679565.06582,-0.2101943,0.38597652,0.055950124,-0.04354265,-0.39135122,1.1038795
1747679565.0663383,-0.2101943,0.38597652,0.055950124,-0.04354265,-0.39135122,1.1038795
1747679565.0668569,-0.2101943,0.38597652,0.055950124,-0.04354265,-0.39135122,1.1038795
1747679565.0673752,-0.2101943,0.38597652,0.055950124,-0.04354265,-0.39135122,1.1038795
1747679565.0679312,-0.2101943,0.38597652,0.055950124,-0.04354265,-0.39135122,1.1038795
1747679565.0684707,-0.2101943,0.38597652,0.055950124,-0.04354265,-0.39135122,1.1038795
1747679565.0689998,-0.2101943,0.38597652,0.055950124,-0.04354265,-0.39135122,1.1038795
1747679565.0695267,-0.2101943,0.38597652,0.055950124,-0.04354265,-0.39135122,1.1038795
1747679565.0700471,-0.2101943,0.38597652,0.055950124,-0.04354265,-0.39135122,1.1038795
1747679565.070566,-0.2101943,0.38597652,0.055950124,-0.04354265,-0.39135122,1.1038795
1747679565.0710843,-0.2101943,0.38597652,0.055950124,-0.04354265,-0.39135122,1.1038795
1747679565.0716078,-0.2101943,0.38597652,0.055950124,-0.04354265,-0.39135122,1.1038795
1747679565.0721316,-0.15503736,0.3371651,0.031056285,-0.013715269,-0.38282913,1.243429
1747679565.072653,-0.15503736,0.3371651,0.031056285,-0.013715269,-0.38282913,1.243429
1747679565.073174,-0.15503736,0.3371651,0.031056285,-0.013715269,-0.38282913,1.243429
1747679565.073703,-0.15503736,0.3371651,0.031056285,-0.013715269,-0.38282913,1.243429
1747679565.0742388,-0.15503736,0.3371651,0.031056285,-0.013715269,-0.38282913,1.243429
1747679565.0747626,-0.15503736,0.3371651,0.031056285,-0.013715269,-0.38282913,1.243429
1747679565.075284,-0.15503736,0.3371651,0.031056285,-0.013715269,-0.38282913,1.243429
1747679565.075805,-0.15503736,0.3371651,0.031056285,-0.013715269,-0.38282913,1.243429
1747679565.0763261,-0.15503736,0.3371651,0.031056285,-0.013715269,-0.38282913,1.243429
1747679565.076847,-0.15503736,0.3371651,0.031056285,-0.013715269,-0.38282913,1.243429
1747679565.0773683,-0.15503736,0.3371651,0.031056285,-0.013715269,-0.38282913,1.243429
1747679565.0778892,-0.15503736,0.3371651,0.031056285,-0.013715269,-0.38282913,1.243429
1747679565.0784104,-0.15503736,0.3371651,0.031056285,-0.013715269,-0.38282913,1.243429
1747679565.0789318,-0.15503736,0.3371651,0.031056285,-0.013715269,-0.38282913,1.243429
1747679565.0794554,-0.15503736,0.3371651,0.031056285,-0.013715269,-0.38282913,1.243429
1747679565.0800128,-0.15503736,0.3371651,0.031056285,-0.013715269,-0.38282913,1.243429
1747679565.0805745,-0.058390696,0.2937229,0.011531705,0.016112113,-0.37004596,1.3297154
1747679565.08111,-0.058390696,0.2937229,0.011531705,0.016112113,-0.37004596,1.3297154
1747679565.0816321,-0.058390696,0.2937229,0.011531705,0.016112113,-0.37004596,1.3297154
1747679565.0821533,-0.058390696,0.2937229,0.011531705,0.016112113,-0.37004596,1.3297154
1747679565.0826745,-0.058390696,0.2937229,0.011531705,0.016112113,-0.37004596,1.3297154
1747679565.0834084,-0.058390696,0.2937229,0.011531705,0.016112113,-0.37004596,1.3297154
1747679565.0839667,-0.058390696,0.2937229,0.011531705,0.016112113,-0.37004596,1.3297154
1747679565.0845175,-0.058390696,0.2937229,0.011531705,0.016112113,-0.37004596,1.3297154
1747679565.0850556,-0.058390696,0.2937229,0.011531705,0.016112113,-0.37004596,1.3297154
1747679565.0855908,-0.058390696,0.2937229,0.011531705,0.016112113,-0.37004596,1.3297154
1747679565.0861132,-0.058390696,0.2937229,0.011531705,0.016112113,-0.37004596,1.3297154
1747679565.0866368,-0.058390696,0.2937229,0.011531705,0.016112113,-0.37004596,1.3297154
1747679565.0871773,-0.058390696,0.2937229,0.011531705,0.016112113,-0.37004596,1.3297154
1747679565.0877314,-0.058390696,0.2937229,0.011531705,0.016112113,-0.37004596,1.3297154
1747679565.0882564,-0.058390696,0.2937229,0.011531705,0.016112113,-0.37004596,1.3297154
1747679565.088777,-0.058390696,0.2937229,0.011531705,0.016112113,-0.37004596,1.3297154
1747679565.0892956,-0.058390696,0.2937229,0.011531705,0.024634222,-0.36152384,1.3456943
1747679565.0898144,0.0031117299,0.2536975,-0.013850249,0.024634222,-0.36152384,1.3456943
1747679565.0903332,0.0031117299,0.2536975,-0.013850249,0.024634222,-0.36152384,1.3456943
1747679565.0908515,0.0031117299,0.2536975,-0.013850249,0.024634222,-0.36152384,1.3456943
1747679565.0913787,0.0031117299,0.2536975,-0.013850249,0.024634222,-0.36152384,1.3456943
1747679565.0918975,0.0031117299,0.2536975,-0.013850249,0.024634222,-0.36152384,1.3456943
1747679565.092416,0.0031117299,0.2536975,-0.013850249,0.024634222,-0.36152384,1.3456943
1747679565.0929341,0.0031117299,0.2536975,-0.013850249,0.024634222,-0.36152384,1.3456943
1747679565.093452,0.0031117299,0.2536975,-0.013850249,0.024634222,-0.36152384,1.3456943
1747679565.0939705,0.0031117299,0.2536975,-0.013850249,0.024634222,-0.36152384,1.3456943
1747679565.0945036,0.0031117299,0.2536975,-0.013850249,0.024634222,-0.36152384,1.3456943
1747679565.0950747,0.0031117299,0.2536975,-0.013850249,0.024634222,-0.36152384,1.3456943
1747679565.0956137,0.0031117299,0.2536975,-0.013850249,0.024634222,-0.36152384,1.3456943
1747679565.096135,0.0031117299,0.2536975,-0.013850249,0.024634222,-0.36152384,1.3456943
1747679565.0966532,0.0031117299,0.2536975,-0.013850249,0.024634222,-0.36152384,1.3456943
1747679565.0971715,0.0031117299,0.2536975,-0.013850249,0.024634222,-0.36152384,1.3456943
1747679565.0976899,0.0031117299,0.2536975,-0.013850249,0.024634222,-0.36152384,1.3456943
1747679565.0982082,0.0031117299,0.2536975,-0.013850249,0.024634222,-0.36152384,1.3456943
1747679565.0987532,0.0031117299,0.2536975,-0.013850249,0.024634222,-0.36152384,1.3456943
1747679565.099309,0.0031117299,0.2536975,-0.013850249,0.024634222,-0.36152384,1.3456943
1747679565.0998333,0.0031117299,0.2536975,-0.013850249,0.024634222,-0.36152384,1.3456943
1747679565.100352,0.0031117299,0.2536975,-0.013850249,0.024634222,-0.36152384,1.3456943
1747679565.1008704,0.0031117299,0.2536975,-0.013850249,0.024634222,-0.36152384,1.3456943
1747679565.1013887,0.0031117299,0.2536975,-0.013850249,0.024634222,-0.36152384,1.3456943
1747679565.1019223,0.0031117299,0.2536975,-0.013850249,0.024634222,-0.36152384,1.3456943
1747679565.1024542,0.013850249,0.22001761,-0.04753015,0.024634222,-0.36152384,1.3456943
1747679565.1029737,0.013850249,0.22001761,-0.04753015,0.010785795,-0.34341437,1.3638037
1747679565.1034923,0.013850249,0.22001761,-0.04753015,0.010785795,-0.34341437,1.3638037
1747679565.104019,0.013850249,0.22001761,-0.04753015,0.010785795,-0.34341437,1.3638037
1747679565.104549,0.013850249,0.22001761,-0.04753015,0.010785795,-0.34341437,1.3638037
1747679565.1050706,0.013850249,0.22001761,-0.04753015,0.010785795,-0.34341437,1.3638037
1747679565.105589,0.013850249,0.22001761,-0.04753015,0.010785795,-0.34341437,1.3638037
1747679565.1061075,0.013850249,0.22001761,-0.04753015,0.010785795,-0.34341437,1.3638037
1747679565.1066267,0.013850249,0.22001761,-0.04753015,0.010785795,-0.34341437,1.3638037
1747679565.107145,0.013850249,0.22001761,-0.04753015,0.010785795,-0.34341437,1.3638037
1747679565.1076636,0.013850249,0.22001761,-0.04753015,0.010785795,-0.34341437,1.3638037
1747679565.1081815,0.013850249,0.22001761,-0.04753015,0.010785795,-0.34341437,1.3638037
1747679565.1086996,0.013850249,0.22001761,-0.04753015,0.010785795,-0.34341437,1.3638037
1747679565.1092184,0.013850249,0.22001761,-0.04753015,0.010785795,-0.34341437,1.3638037
1747679565.1097372,0.013850249,0.22001761,-0.04753015,0.010785795,-0.34341437,1.3638037
1747679565.1102579,0.013850249,0.22001761,-0.04753015,0.010785795,-0.34341437,1.3638037
1747679565.1108088,0.013850249,0.22001761,-0.04753015,0.010785795,-0.34341437,1.3638037
1747679565.1113565,0.013850249,0.22001761,-0.04753015,0.010785795,-0.34341437,1.3638037
1747679565.111888,0.008480989,0.1726705,-0.08023382,0.010785795,-0.34341437,1.3638037
1747679565.1124098,0.008480989,0.1726705,-0.08023382,0.010785795,-0.34341437,1.3638037
1747679565.112931,0.008480989,0.1726705,-0.08023382,-0.047803707,-0.28269434,1.4181322
1747679565.1136155,0.008480989,0.1726705,-0.08023382,-0.047803707,-0.28269434,1.4181322
1747679565.1141658,0.008480989,0.1726705,-0.08023382,-0.047803707,-0.28269434,1.4181322
1747679565.1147096,0.008480989,0.1726705,-0.08023382,-0.047803707,-0.28269434,1.4181322
1747679565.1152432,0.008480989,0.1726705,-0.08023382,-0.047803707,-0.28269434,1.4181322
1747679565.115776,0.008480989,0.1726705,-0.08023382,-0.047803707,-0.28269434,1.4181322
1747679565.1162965,0.008480989,0.1726705,-0.08023382,-0.047803707,-0.28269434,1.4181322
1747679565.1168153,0.008480989,0.1726705,-0.08023382,-0.047803707,-0.28269434,1.4181322
1747679565.1173337,0.008480989,0.1726705,-0.08023382,-0.047803707,-0.28269434,1.4181322
1747679565.1178524,0.008480989,0.1726705,-0.08023382,-0.047803707,-0.28269434,1.4181322
1747679565.1183703,0.008480989,0.1726705,-0.08023382,-0.047803707,-0.28269434,1.4181322
1747679565.1188884,0.008480989,0.1726705,-0.08023382,-0.047803707,-0.28269434,1.4181322
1747679565.1194067,0.008480989,0.1726705,-0.08023382,-0.047803707,-0.28269434,1.4181322
1747679565.1199253,0.008480989,0.1726705,-0.08023382,-0.047803707,-0.28269434,1.4181322
1747679565.1204436,0.008480989,0.1726705,-0.08023382,-0.047803707,-0.28269434,1.4181322
1747679565.1209958,0.008480989,0.1726705,-0.08023382,-0.047803707,-0.28269434,1.4181322
1747679565.1215594,0.008480989,0.1726705,-0.08023382,-0.047803707,-0.28269434,1.4181322
1747679565.122088,0.06314981,0.103846356,-0.10463954,-0.047803707,-0.28269434,1.4181322
1747679565.1226122,0.06314981,0.103846356,-0.10463954,-0.16178691,-0.22090904,1.518267
1747679565.1231332,0.06314981,0.103846356,-0.10463954,-0.16178691,-0.22090904,1.518267
1747679565.1236603,0.06314981,0.103846356,-0.10463954,-0.16178691,-0.22090904,1.518267
1747679565.1241899,0.06314981,0.103846356,-0.10463954,-0.16178691,-0.22090904,1.518267
1747679565.1247115,0.06314981,0.103846356,-0.10463954,-0.16178691,-0.22090904,1.518267
1747679565.12523,0.06314981,0.103846356,-0.10463954,-0.16178691,-0.22090904,1.518267
1747679565.1257484,0.06314981,0.103846356,-0.10463954,-0.16178691,-0.22090904,1.518267
1747679565.1262693,0.06314981,0.103846356,-0.10463954,-0.16178691,-0.22090904,1.518267
1747679565.1268222,0.06314981,0.103846356,-0.10463954,-0.16178691,-0.22090904,1.518267
1747679565.1273656,0.06314981,0.103846356,-0.10463954,-0.16178691,-0.22090904,1.518267
1747679565.1278985,0.06314981,0.103846356,-0.10463954,-0.16178691,-0.22090904,1.518267
1747679565.1284182,0.06314981,0.103846356,-0.10463954,-0.16178691,-0.22090904,1.518267
1747679565.1289659,0.06314981,0.103846356,-0.10463954,-0.16178691,-0.22090904,1.518267
1747679565.1295106,0.06314981,0.103846356,-0.10463954,-0.16178691,-0.22090904,1.518267
1747679565.130035,0.06314981,0.103846356,-0.10463954,-0.16178691,-0.22090904,1.518267
1747679565.1305547,0.06314981,0.103846356,-0.10463954,-0.16178691,-0.22090904,1.518267
1747679565.131074,0.06314981,0.103846356,-0.10463954,-0.16178691,-0.22090904,1.518267
1747679565.1315928,0.06314981,0.103846356,-0.10463954,-0.16178691,-0.22090904,1.518267
1747679565.1321108,0.06314981,0.103846356,-0.10463954,-0.16178691,-0.22090904,1.518267
1747679565.132629,0.06314981,0.103846356,-0.10463954,-0.16178691,-0.22090904,1.518267
1747679565.1331475,0.12221167,0.028676726,-0.09536537,-0.26937854,-0.21132168,1.5875092
1747679565.133743,0.12221167,0.028676726,-0.09536537,-0.26937854,-0.21132168,1.5875092
1747679565.134273,0.12221167,0.028676726,-0.09536537,-0.26937854,-0.21132168,1.5875092
1747679565.1347947,0.12221167,0.028676726,-0.09536537,-0.26937854,-0.21132168,1.5875092
1747679565.1353137,0.12221167,0.028676726,-0.09536537,-0.26937854,-0.21132168,1.5875092
1747679565.135832,0.12221167,0.028676726,-0.09536537,-0.26937854,-0.21132168,1.5875092
1747679565.1363502,0.12221167,0.028676726,-0.09536537,-0.26937854,-0.21132168,1.5875092
1747679565.1368687,0.12221167,0.028676726,-0.09536537,-0.26937854,-0.21132168,1.5875092
1747679565.1373878,0.12221167,0.028676726,-0.09536537,-0.26937854,-0.21132168,1.5875092
1747679565.1379068,0.12221167,0.028676726,-0.09536537,-0.26937854,-0.21132168,1.5875092
1747679565.138425,0.12221167,0.028676726,-0.09536537,-0.26937854,-0.21132168,1.5875092
1747679565.1389437,0.12221167,0.028676726,-0.09536537,-0.26937854,-0.21132168,1.5875092
1747679565.139462,0.12221167,0.028676726,-0.09536537,-0.26937854,-0.21132168,1.5875092
1747679565.1399808,0.12514035,-0.07041051,-0.0626617,-0.26937854,-0.21132168,1.5875092
1747679565.1404994,0.12514035,-0.07041051,-0.0626617,-0.26937854,-0.21132168,1.5875092
1747679565.14102,0.12514035,-0.07041051,-0.0626617,-0.26937854,-0.21132168,1.5875092
1747679565.141565,0.12514035,-0.07041051,-0.0626617,-0.26937854,-0.21132168,1.5875092
1747679565.1420987,0.12514035,-0.07041051,-0.0626617,-0.26937854,-0.21132168,1.5875092
1747679565.1426187,0.12514035,-0.07041051,-0.0626617,-0.26937854,-0.21132168,1.5875092
1747679565.1431377,0.12514035,-0.07041051,-0.0626617,-0.37270913,-0.21771325,1.6951008
1747679565.1436565,0.12514035,-0.07041051,-0.0626617,-0.37270913,-0.21771325,1.6951008
1747679565.144229,0.12514035,-0.07041051,-0.0626617,-0.37270913,-0.21771325,1.6951008
1747679565.1448038,0.12514035,-0.07041051,-0.0626617,-0.37270913,-0.21771325,1.6951008
1747679565.145333,0.12514035,-0.07041051,-0.0626617,-0.37270913,-0.21771325,1.6951008
1747679565.1458762,0.12514035,-0.07041051,-0.0626617,-0.37270913,-0.21771325,1.6951008
1747679565.1464262,0.12514035,-0.07041051,-0.0626617,-0.37270913,-0.21771325,1.6951008
1747679565.146983,0.12514035,-0.07041051,-0.0626617,-0.37270913,-0.21771325,1.6951008
1747679565.1475239,0.12514035,-0.07041051,-0.0626617,-0.37270913,-0.21771325,1.6951008
1747679565.1480658,0.12514035,-0.07041051,-0.0626617,-0.37270913,-0.21771325,1.6951008
1747679565.1486125,0.12514035,-0.07041051,-0.0626617,-0.37270913,-0.21771325,1.6951008
1747679565.149161,0.12514035,-0.07041051,-0.0626617,-0.37270913,-0.21771325,1.6951008
1747679565.149718,0.1300215,-0.1641285,-0.04997072,-0.37270913,-0.21771325,1.6951008
1747679565.1502664,0.1300215,-0.1641285,-0.04997072,-0.37270913,-0.21771325,1.6951008
1747679565.1508198,0.1300215,-0.1641285,-0.04997072,-0.37270913,-0.21771325,1.6951008
1747679565.1513698,0.1300215,-0.1641285,-0.04997072,-0.47497442,-0.236888,1.8772608
1747679565.1519125,0.1300215,-0.1641285,-0.04997072,-0.47497442,-0.236888,1.8772608
1747679565.1524625,0.1300215,-0.1641285,-0.04997072,-0.47497442,-0.236888,1.8772608
1747679565.1530225,0.1300215,-0.1641285,-0.04997072,-0.47497442,-0.236888,1.8772608
1747679565.1535764,0.1300215,-0.1641285,-0.04997072,-0.47497442,-0.236888,1.8772608
1747679565.1541235,0.1300215,-0.1641285,-0.04997072,-0.47497442,-0.236888,1.8772608
1747679565.1546514,0.1300215,-0.1641285,-0.04997072,-0.47497442,-0.236888,1.8772608
1747679565.155205,0.1300215,-0.1641285,-0.04997072,-0.47497442,-0.236888,1.8772608
1747679565.1557665,0.1300215,-0.1641285,-0.04997072,-0.47497442,-0.236888,1.8772608
1747679565.1563132,0.1300215,-0.1641285,-0.04997072,-0.47497442,-0.236888,1.8772608
1747679565.1568522,0.1300215,-0.1641285,-0.04997072,-0.47497442,-0.236888,1.8772608
1747679565.157405,0.1300215,-0.1641285,-0.04997072,-0.47497442,-0.236888,1.8772608
1747679565.157962,0.1300215,-0.1641285,-0.04997072,-0.47497442,-0.236888,1.8772608
1747679565.1585233,0.1300215,-0.1641285,-0.04997072,-0.47497442,-0.236888,1.8772608
1747679565.159083,0.1300215,-0.1641285,-0.04997072,-0.47497442,-0.236888,1.8772608
1747679565.1596498,0.1300215,-0.1641285,-0.04997072,-0.47497442,-0.236888,1.8772608
1747679565.1602123,0.1300215,-0.1641285,-0.04997072,-0.47497442,-0.236888,1.8772608
1747679565.1607697,0.12709281,-0.22563092,-0.028493684,-0.47497442,-0.236888,1.8772608
1747679565.161321,0.12709281,-0.22563092,-0.028493684,-0.47497442,-0.236888,1.8772608
1747679565.1618726,0.12709281,-0.22563092,-0.028493684,-0.47497442,-0.236888,1.8772608
1747679565.1624312,0.12709281,-0.22563092,-0.028493684,-0.47497442,-0.236888,1.8772608
1747679565.16299,0.12709281,-0.22563092,-0.028493684,-0.47497442,-0.236888,1.8772608
1747679565.1635501,0.12709281,-0.22563092,-0.028493684,-0.47497442,-0.236888,1.8772608
1747679565.1641626,0.12709281,-0.22563092,-0.028493684,-0.59961027,-0.22730063,2.1052272
1747679565.164733,0.12709281,-0.22563092,-0.028493684,-0.59961027,-0.22730063,2.1052272
1747679565.1653142,0.12709281,-0.22563092,-0.028493684,-0.59961027,-0.22730063,2.1052272
1747679565.1658783,0.12709281,-0.22563092,-0.028493684,-0.59961027,-0.22730063,2.1052272
1747679565.1664305,0.12709281,-0.22563092,-0.028493684,-0.59961027,-0.22730063,2.1052272
1747679565.166984,0.12709281,-0.22563092,-0.028493684,-0.59961027,-0.22730063,2.1052272
1747679565.1675253,0.12709281,-0.22563092,-0.028493684,-0.59961027,-0.22730063,2.1052272
1747679565.1680589,0.12709281,-0.22563092,-0.028493684,-0.59961027,-0.22730063,2.1052272
1747679565.168614,0.12709281,-0.22563092,-0.028493684,-0.59961027,-0.22730063,2.1052272
1747679565.1691775,0.12709281,-0.22563092,-0.028493684,-0.59961027,-0.22730063,2.1052272
1747679565.1697354,0.12709281,-0.22563092,-0.028493684,-0.59961027,-0.22730063,2.1052272
1747679565.1702876,0.12709281,-0.22563092,-0.028493684,-0.59961027,-0.22730063,2.1052272
1747679565.1708558,0.12709281,-0.22563092,-0.028493684,-0.59961027,-0.22730063,2.1052272
1747679565.1714165,0.13050961,-0.2822522,0.0037218733,-0.59961027,-0.22730063,2.1052272
1747679565.172002,0.13050961,-0.2822522,0.0037218733,-0.7295724,-0.16125429,2.3939137
1747679565.1725774,0.13050961,-0.2822522,0.0037218733,-0.7295724,-0.16125429,2.3939137
1747679565.1731944,0.13050961,-0.2822522,0.0037218733,-0.7295724,-0.16125429,2.3939137
1747679565.1737652,0.13050961,-0.2822522,0.0037218733,-0.7295724,-0.16125429,2.3939137
1747679565.1743176,0.13050961,-0.2822522,0.0037218733,-0.7295724,-0.16125429,2.3939137
1747679565.1749325,0.13050961,-0.2822522,0.0037218733,-0.7295724,-0.16125429,2.3939137
1747679565.1754956,0.13050961,-0.2822522,0.0037218733,-0.7295724,-0.16125429,2.3939137
1747679565.1760507,0.13050961,-0.2822522,0.0037218733,-0.7295724,-0.16125429,2.3939137
1747679565.176602,0.13050961,-0.2822522,0.0037218733,-0.7295724,-0.16125429,2.3939137
1747679565.1771555,0.13050961,-0.2822522,0.0037218733,-0.7295724,-0.16125429,2.3939137
1747679565.1776967,0.13050961,-0.2822522,0.0037218733,-0.7295724,-0.16125429,2.3939137
1747679565.178228,0.13050961,-0.2822522,0.0037218733,-0.7295724,-0.16125429,2.3939137
1747679565.1787558,0.13050961,-0.2822522,0.0037218733,-0.7295724,-0.16125429,2.3939137
1747679565.1792855,0.13050961,-0.2822522,0.0037218733,-0.7295724,-0.16125429,2.3939137
1747679565.1798136,0.13050961,-0.2822522,0.0037218733,-0.7295724,-0.16125429,2.3939137
1747679565.1803405,0.13050961,-0.2822522,0.0037218733,-0.84675145,-0.119709,2.7145581
1747679565.1808712,0.17980917,-0.34424275,0.04130669,-0.84675145,-0.119709,2.7145581
1747679565.181399,0.17980917,-0.34424275,0.04130669,-0.84675145,-0.119709,2.7145581
1747679565.1819727,0.17980917,-0.34424275,0.04130669,-0.84675145,-0.119709,2.7145581
1747679565.1824996,0.17980917,-0.34424275,0.04130669,-0.84675145,-0.119709,2.7145581
1747679565.1830256,0.17980917,-0.34424275,0.04130669,-0.84675145,-0.119709,2.7145581
1747679565.1835701,0.17980917,-0.34424275,0.04130669,-0.84675145,-0.119709,2.7145581
1747679565.1841297,0.17980917,-0.34424275,0.04130669,-0.84675145,-0.119709,2.7145581
1747679565.1846857,0.17980917,-0.34424275,0.04130669,-0.84675145,-0.119709,2.7145581
1747679565.1852188,0.17980917,-0.34424275,0.04130669,-0.84675145,-0.119709,2.7145581
1747679565.185746,0.17980917,-0.34424275,0.04130669,-0.84675145,-0.119709,2.7145581
1747679565.1862984,0.17980917,-0.34424275,0.04130669,-0.84675145,-0.119709,2.7145581
1747679565.1868632,0.17980917,-0.34424275,0.04130669,-0.84675145,-0.119709,2.7145581
1747679565.187384,0.17980917,-0.34424275,0.04130669,-0.84675145,-0.119709,2.7145581
1747679565.187926,0.17980917,-0.34424275,0.04130669,-0.84675145,-0.119709,2.7145581
1747679565.1884806,0.17980917,-0.34424275,0.04130669,-0.84675145,-0.119709,2.7145581
1747679565.1890514,0.17980917,-0.34424275,0.04130669,-0.84675145,-0.119709,2.7145581
1747679565.1896038,0.17980917,-0.34424275,0.04130669,-0.84675145,-0.119709,2.7145581
1747679565.1901948,0.17980917,-0.34424275,0.04130669,-0.84675145,-0.119709,2.7145581
1747679565.190748,0.17980917,-0.34424275,0.04130669,-0.84675145,-0.119709,2.7145581
1747679565.1912918,0.17980917,-0.34424275,0.04130669,-0.84675145,-0.119709,2.7145581
1747679565.1918428,0.17980917,-0.34424275,0.04130669,-0.84675145,-0.119709,2.7145581
1747679565.1923728,0.17980917,-0.34424275,0.04130669,-0.84675145,-0.119709,2.7145581
1747679565.1929097,0.27694398,-0.3901255,0.09109437,-0.84675145,-0.119709,2.7145581
1747679565.1934624,0.27694398,-0.3901255,0.09109437,-0.94049466,-0.13781849,3.0703561
1747679565.1939917,0.27694398,-0.3901255,0.09109437,-0.94049466,-0.13781849,3.0703561
1747679565.1945088,0.27694398,-0.3901255,0.09109437,-0.94049466,-0.13781849,3.0703561
1747679565.1950452,0.27694398,-0.3901255,0.09109437,-0.94049466,-0.13781849,3.0703561
1747679565.1956,0.27694398,-0.3901255,0.09109437,-0.94049466,-0.13781849,3.0703561
1747679565.1961148,0.27694398,-0.3901255,0.09109437,-0.94049466,-0.13781849,3.0703561
1747679565.1966429,0.27694398,-0.3901255,0.09109437,-0.94049466,-0.13781849,3.0703561
1747679565.1971707,0.27694398,-0.3901255,0.09109437,-0.94049466,-0.13781849,3.0703561
1747679565.1976979,0.27694398,-0.3901255,0.09109437,-0.94049466,-0.13781849,3.0703561
1747679565.1982255,0.27694398,-0.3901255,0.09109437,-0.94049466,-0.13781849,3.0703561
1747679565.198762,0.27694398,-0.3901255,0.09109437,-0.94049466,-0.13781849,3.0703561
1747679565.1992965,0.27694398,-0.3901255,0.09109437,-0.94049466,-0.13781849,3.0703561
1747679565.1998353,0.27694398,-0.3901255,0.09109437,-0.94049466,-0.13781849,3.0703561
1747679565.200379,0.27694398,-0.3901255,0.09109437,-0.94049466,-0.13781849,3.0703561
1747679565.2009249,0.27694398,-0.3901255,0.09109437,-0.94049466,-0.13781849,3.0703561
1747679565.2014647,0.40482998,-0.4042808,0.13014352,-0.9564736,-0.18788588,3.2056446
1747679565.2020009,0.40482998,-0.4042808,0.13014352,-0.9564736,-0.18788588,3.2056446
1747679565.2025452,0.40482998,-0.4042808,0.13014352,-0.9564736,-0.18788588,3.2056446
1747679565.2030823,0.40482998,-0.4042808,0.13014352,-0.9564736,-0.18788588,3.2056446
1747679565.2036595,0.40482998,-0.4042808,0.13014352,-0.9564736,-0.18788588,3.2056446
1747679565.2042015,0.40482998,-0.4042808,0.13014352,-0.9564736,-0.18788588,3.2056446
1747679565.2047625,0.40482998,-0.4042808,0.13014352,-0.9564736,-0.18788588,3.2056446
1747679565.205677,0.40482998,-0.4042808,0.13014352,-0.9564736,-0.18788588,3.2056446
1747679565.2062337,0.40482998,-0.4042808,0.13014352,-0.9564736,-0.18788588,3.2056446
1747679565.206792,0.40482998,-0.4042808,0.13014352,-0.9564736,-0.18788588,3.2056446
1747679565.2073276,0.40482998,-0.4042808,0.13014352,-0.9564736,-0.18788588,3.2056446
1747679565.2078555,0.40482998,-0.4042808,0.13014352,-0.9564736,-0.18788588,3.2056446
1747679565.2083845,0.40482998,-0.4042808,0.13014352,-0.9564736,-0.18788588,3.2056446
1747679565.2089877,0.40482998,-0.4042808,0.13014352,-0.9564736,-0.18788588,3.2056446
1747679565.2095158,0.40482998,-0.4042808,0.13014352,-0.9564736,-0.18788588,3.2056446
1747679565.210086,0.40482998,-0.4042808,0.13014352,-0.9564736,-0.18788588,3.2056446
1747679565.210588,0.40482998,-0.4042808,0.13014352,-0.9586041,-0.3050649,3.332411
1747679565.211123,0.40482998,-0.4042808,0.13014352,-0.9586041,-0.3050649,3.332411
1747679565.2116516,0.5502881,-0.40281647,0.16089474,-0.9586041,-0.3050649,3.332411
1747679565.2121902,0.5502881,-0.40281647,0.16089474,-0.9586041,-0.3050649,3.332411
1747679565.2127275,0.5502881,-0.40281647,0.16089474,-0.9586041,-0.3050649,3.332411
1747679565.2132654,0.5502881,-0.40281647,0.16089474,-0.9586041,-0.3050649,3.332411
1747679565.2138104,0.5502881,-0.40281647,0.16089474,-0.9586041,-0.3050649,3.332411
1747679565.2144089,0.5502881,-0.40281647,0.16089474,-0.9586041,-0.3050649,3.332411
1747679565.2149458,0.5502881,-0.40281647,0.16089474,-0.9586041,-0.3050649,3.332411
1747679565.2154794,0.5502881,-0.40281647,0.16089474,-0.9586041,-0.3050649,3.332411
1747679565.2160087,0.5502881,-0.40281647,0.16089474,-0.9586041,-0.3050649,3.332411
1747679565.216537,0.5502881,-0.40281647,0.16089474,-0.9586041,-0.3050649,3.332411
1747679565.2170668,0.5502881,-0.40281647,0.16089474,-0.9586041,-0.3050649,3.332411
1747679565.217596,0.5502881,-0.40281647,0.16089474,-0.9586041,-0.3050649,3.332411
1747679565.2181277,0.5502881,-0.40281647,0.16089474,-0.9586041,-0.3050649,3.332411
1747679565.2186646,0.5502881,-0.40281647,0.16089474,-0.9586041,-0.3050649,3.332411
1747679565.2191982,0.5502881,-0.40281647,0.16089474,-0.9586041,-0.3050649,3.332411
1747679565.2197344,0.5502881,-0.40281647,0.16089474,-0.9586041,-0.3050649,3.332411
1747679565.2203019,0.5502881,-0.40281647,0.16089474,-0.9586041,-0.3050649,3.332411
1747679565.2208476,0.5502881,-0.40281647,0.16089474,-0.9586041,-0.3050649,3.332411
1747679565.221448,0.5502881,-0.40281647,0.16089474,-0.9586041,-0.3050649,3.332411
1747679565.222018,0.5502881,-0.40281647,0.16089474,-0.9586041,-0.3050649,3.332411
1747679565.2225878,0.7499269,-0.37792265,0.19847956,-0.95114726,-0.55433655,3.453851
1747679565.2231002,0.7499269,-0.37792265,0.19847956,-0.95114726,-0.55433655,3.453851
1747679565.2236443,0.7499269,-0.37792265,0.19847956,-0.95114726,-0.55433655,3.453851
1747679565.2241876,0.7499269,-0.37792265,0.19847956,-0.95114726,-0.55433655,3.453851
1747679565.2247152,0.7499269,-0.37792265,0.19847956,-0.95114726,-0.55433655,3.453851
1747679565.2252693,0.7499269,-0.37792265,0.19847956,-0.95114726,-0.55433655,3.453851
1747679565.225812,0.7499269,-0.37792265,0.19847956,-0.95114726,-0.55433655,3.453851
1747679565.2263525,0.7499269,-0.37792265,0.19847956,-0.95114726,-0.55433655,3.453851
1747679565.2268825,0.7499269,-0.37792265,0.19847956,-0.95114726,-0.55433655,3.453851
1747679565.2274168,0.7499269,-0.37792265,0.19847956,-0.95114726,-0.55433655,3.453851
1747679565.227961,0.7499269,-0.37792265,0.19847956,-0.95114726,-0.55433655,3.453851
1747679565.2284882,0.7499269,-0.37792265,0.19847956,-0.95114726,-0.55433655,3.453851
1747679565.2290146,0.7499269,-0.37792265,0.19847956,-0.95114726,-0.55433655,3.453851
1747679565.2295408,0.7499269,-0.37792265,0.19847956,-0.95114726,-0.55433655,3.453851
1747679565.2300673,0.7499269,-0.37792265,0.19847956,-0.95114726,-0.55433655,3.453851
1747679565.2305932,0.7499269,-0.37792265,0.19847956,-0.95114726,-0.55433655,3.453851
1747679565.2311196,0.7499269,-0.37792265,0.19847956,-0.95114726,-0.55433655,3.453851
1747679565.2316456,0.7499269,-0.37792265,0.19847956,-0.95114726,-0.55433655,3.453851
1747679565.2321742,0.7499269,-0.37792265,0.19847956,-0.95114726,-0.55433655,3.453851
1747679565.2327108,0.86121696,-0.35400504,0.25656518,-0.9788441,-0.82704407,3.6455984
1747679565.2332647,0.86121696,-0.35400504,0.25656518,-0.9788441,-0.82704407,3.6455984
1747679565.233816,0.86121696,-0.35400504,0.25656518,-0.9788441,-0.82704407,3.6455984
1747679565.2343621,0.86121696,-0.35400504,0.25656518,-0.9788441,-0.82704407,3.6455984
1747679565.2349043,0.86121696,-0.35400504,0.25656518,-0.9788441,-0.82704407,3.6455984
1747679565.235447,0.86121696,-0.35400504,0.25656518,-0.9788441,-0.82704407,3.6455984
1747679565.2360907,0.86121696,-0.35400504,0.25656518,-0.9788441,-0.82704407,3.6455984
1747679565.2366838,0.86121696,-0.35400504,0.25656518,-0.9788441,-0.82704407,3.6455984
1747679565.2372513,0.86121696,-0.35400504,0.25656518,-0.9788441,-0.82704407,3.6455984
1747679565.2378337,0.86121696,-0.35400504,0.25656518,-0.9788441,-0.82704407,3.6455984
1747679565.2384331,0.86121696,-0.35400504,0.25656518,-0.9788441,-0.82704407,3.6455984
1747679565.2389958,0.86121696,-0.35400504,0.25656518,-0.9788441,-0.82704407,3.6455984
1747679565.2395504,0.86121696,-0.35400504,0.25656518,-0.9788441,-0.82704407,3.6455984
1747679565.2401056,0.86121696,-0.35400504,0.25656518,-0.9788441,-0.82704407,3.6455984
1747679565.2406714,0.86121696,-0.35400504,0.25656518,-0.9788441,-0.82704407,3.6455984
1747679565.241236,0.86121696,-0.35400504,0.25656518,-0.9788441,-0.82704407,3.6455984
1747679565.2417955,0.86121696,-0.35400504,0.25656518,-0.9788441,-0.82704407,3.6455984
1747679565.242352,0.86121696,-0.35400504,0.25656518,-0.9788441,-0.82704407,3.6455984
1747679565.2428873,0.9568874,-0.35839805,0.30879343,-0.9788441,-0.82704407,3.6455984
1747679565.2434342,0.9568874,-0.35839805,0.30879343,-1.0342379,-0.9878989,3.9470682
1747679565.2439687,0.9568874,-0.35839805,0.30879343,-1.0342379,-0.9878989,3.9470682
1747679565.2445078,0.9568874,-0.35839805,0.30879343,-1.0342379,-0.9878989,3.9470682
1747679565.2450702,0.9568874,-0.35839805,0.30879343,-1.0342379,-0.9878989,3.9470682
1747679565.2456486,0.9568874,-0.35839805,0.30879343,-1.0342379,-0.9878989,3.9470682
1747679565.2461922,0.9568874,-0.35839805,0.30879343,-1.0342379,-0.9878989,3.9470682
1747679565.2467353,0.9568874,-0.35839805,0.30879343,-1.0342379,-0.9878989,3.9470682
1747679565.2472796,0.9568874,-0.35839805,0.30879343,-1.0342379,-0.9878989,3.9470682
1747679565.2478356,0.9568874,-0.35839805,0.30879343,-1.0342379,-0.9878989,3.9470682
1747679565.2483764,0.9568874,-0.35839805,0.30879343,-1.0342379,-0.9878989,3.9470682
1747679565.248914,0.9568874,-0.35839805,0.30879343,-1.0342379,-0.9878989,3.9470682
1747679565.249457,0.9568874,-0.35839805,0.30879343,-1.0342379,-0.9878989,3.9470682
1747679565.250002,0.9568874,-0.35839805,0.30879343,-1.0342379,-0.9878989,3.9470682
1747679565.251246,0.9568874,-0.35839805,0.30879343,-1.0342379,-0.9878989,3.9470682
1747679565.2538602,0.9568874,-0.35839805,0.30879343,-1.0342379,-0.9878989,3.9470682
1747679565.2546709,0.9568874,-0.35839805,0.30879343,-1.0342379,-0.9878989,3.9470682
1747679565.2561262,1.1609193,-0.36474356,0.40153518,-1.0342379,-0.9878989,3.9470682
1747679565.2571194,1.1609193,-0.36474356,0.40153518,-1.0342379,-0.9878989,3.9470682
1747679565.258163,1.1609193,-0.36474356,0.40153518,-1.0342379,-0.9878989,3.9470682
1747679565.2587357,1.1609193,-0.36474356,0.40153518,-1.0342379,-0.9878989,3.9470682
1747679565.2594407,1.1609193,-0.36474356,0.40153518,-1.10348,-0.9676589,4.3806305
1747679565.2609055,1.1609193,-0.36474356,0.40153518,-1.10348,-0.9676589,4.3806305
1747679565.2614722,1.1609193,-0.36474356,0.40153518,-1.10348,-0.9676589,4.3806305
1747679565.2620327,1.1609193,-0.36474356,0.40153518,-1.10348,-0.9676589,4.3806305
1747679565.2629669,1.5289576,-0.36816037,0.5230757,-1.1269158,-0.7556714,4.8386936
1747679565.2635403,1.5289576,-0.36816037,0.5230757,-1.1269158,-0.7556714,4.8386936
1747679565.2642014,1.5289576,-0.36816037,0.5230757,-1.1269158,-0.7556714,4.8386936
1747679565.264768,1.5289576,-0.36816037,0.5230757,-1.1269158,-0.7556714,4.8386936
1747679565.265314,1.5289576,-0.36816037,0.5230757,-1.1269158,-0.7556714,4.8386936
1747679565.265926,1.5289576,-0.36816037,0.5230757,-1.1269158,-0.7556714,4.8386936
1747679565.2676063,1.5289576,-0.36816037,0.5230757,-1.1269158,-0.7556714,4.8386936
1747679565.268542,1.5289576,-0.36816037,0.5230757,-1.1269158,-0.7556714,4.8386936
1747679565.2693663,1.5289576,-0.36816037,0.5230757,-1.0406294,-0.3956123,5.1082053
1747679565.269929,1.9887614,-0.3535169,0.60361457,-1.0406294,-0.3956123,5.1082053
1747679565.2705941,1.9887614,-0.3535169,0.60361457,-1.0406294,-0.3956123,5.1082053
1747679565.2711525,1.9887614,-0.3535169,0.60361457,-1.0406294,-0.3956123,5.1082053
1747679565.2717345,1.9887614,-0.3535169,0.60361457,-1.0406294,-0.3956123,5.1082053
1747679565.2722628,1.9887614,-0.3535169,0.60361457,-1.0406294,-0.3956123,5.1082053
1747679565.2729268,1.9887614,-0.3535169,0.60361457,-1.0406294,-0.3956123,5.1082053
1747679565.2734935,1.9887614,-0.3535169,0.60361457,-1.0406294,-0.3956123,5.1082053
1747679565.2741702,1.9887614,-0.3535169,0.60361457,-1.0406294,-0.3956123,5.1082053
1747679565.2750883,1.9887614,-0.3535169,0.60361457,-1.0406294,-0.3956123,5.1082053
1747679565.2756562,1.9887614,-0.3535169,0.60361457,-1.0406294,-0.3956123,5.1082053
1747679565.2762141,1.9887614,-0.3535169,0.60361457,-1.0406294,-0.3956123,5.1082053
1747679565.2767704,1.9887614,-0.3535169,0.60361457,-1.0406294,-0.3956123,5.1082053
1747679565.2773254,1.9887614,-0.3535169,0.60361457,-1.0406294,-0.3956123,5.1082053
1747679565.2778845,1.9887614,-0.3535169,0.60361457,-1.0406294,-0.3956123,5.1082053
1747679565.278443,1.9887614,-0.3535169,0.60361457,-1.0406294,-0.3956123,5.1082053
1747679565.2789974,1.9887614,-0.3535169,0.60361457,-1.0406294,-0.3956123,5.1082053
1747679565.2795908,1.9887614,-0.3535169,0.60361457,-1.0406294,-0.3956123,5.1082053
1747679565.2801206,1.9887614,-0.3535169,0.60361457,-1.0406294,-0.3956123,5.1082053
1747679565.2806723,1.9887614,-0.3535169,0.60361457,-0.89362305,-0.07603319,5.041094
1747679565.2812083,1.9887614,-0.3535169,0.60361457,-0.89362305,-0.07603319,5.041094
1747679565.281764,2.409516,-0.27932352,0.5494339,-0.89362305,-0.07603319,5.041094
1747679565.2823179,2.409516,-0.27932352,0.5494339,-0.89362305,-0.07603319,5.041094
1747679565.282876,2.409516,-0.27932352,0.5494339,-0.89362305,-0.07603319,5.041094
1747679565.283435,2.409516,-0.27932352,0.5494339,-0.89362305,-0.07603319,5.041094
1747679565.2839754,2.409516,-0.27932352,0.5494339,-0.89362305,-0.07603319,5.041094
1747679565.2845204,2.409516,-0.27932352,0.5494339,-0.89362305,-0.07603319,5.041094
1747679565.285058,2.409516,-0.27932352,0.5494339,-0.89362305,-0.07603319,5.041094
1747679565.2855885,2.409516,-0.27932352,0.5494339,-0.89362305,-0.07603319,5.041094
1747679565.2861233,2.409516,-0.27932352,0.5494339,-0.89362305,-0.07603319,5.041094
1747679565.2866514,2.409516,-0.27932352,0.5494339,-0.89362305,-0.07603319,5.041094
1747679565.2871866,2.409516,-0.27932352,0.5494339,-0.89362305,-0.07603319,5.041094
1747679565.2877004,2.409516,-0.27932352,0.5494339,-0.89362305,-0.07603319,5.041094
1747679565.28825,2.409516,-0.27932352,0.5494339,-0.89362305,-0.07603319,5.041094
1747679565.2887905,2.409516,-0.27932352,0.5494339,-0.89362305,-0.07603319,5.041094
1747679565.289325,2.5906067,-0.1914629,0.41764298,-0.89362305,-0.07603319,5.041094
1747679565.2898638,2.5906067,-0.1914629,0.41764298,-0.89362305,-0.07603319,5.041094
1747679565.290421,2.5906067,-0.1914629,0.41764298,-0.77963984,-0.01957422,4.629902
1747679565.290983,2.5906067,-0.1914629,0.41764298,-0.77963984,-0.01957422,4.629902
1747679565.2915301,2.5906067,-0.1914629,0.41764298,-0.77963984,-0.01957422,4.629902
1747679565.2920856,2.5906067,-0.1914629,0.41764298,-0.77963984,-0.01957422,4.629902
1747679565.2926376,2.5906067,-0.1914629,0.41764298,-0.77963984,-0.01957422,4.629902
1747679565.2931762,2.5906067,-0.1914629,0.41764298,-0.77963984,-0.01957422,4.629902
1747679565.2937288,2.5906067,-0.1914629,0.41764298,-0.77963984,-0.01957422,4.629902
1747679565.2942894,2.5906067,-0.1914629,0.41764298,-0.77963984,-0.01957422,4.629902
1747679565.294865,2.5906067,-0.1914629,0.41764298,-0.77963984,-0.01957422,4.629902
1747679565.2954106,2.5906067,-0.1914629,0.41764298,-0.77963984,-0.01957422,4.629902
1747679565.2959313,2.5906067,-0.1914629,0.41764298,-0.77963984,-0.01957422,4.629902
1747679565.2964585,2.5906067,-0.1914629,0.41764298,-0.77963984,-0.01957422,4.629902
1747679565.2971077,2.5906067,-0.1914629,0.41764298,-0.77963984,-0.01957422,4.629902
1747679565.2976801,2.5906067,-0.1914629,0.41764298,-0.77963984,-0.01957422,4.629902
1747679565.2987866,2.5906067,-0.1914629,0.41764298,-0.77963984,-0.01957422,4.629902
1747679565.2993653,2.5906067,-0.1914629,0.41764298,-0.77963984,-0.01957422,4.629902
1747679565.3010883,2.5906067,-0.1914629,0.41764298,-0.77963984,-0.01957422,4.629902
1747679565.3015609,2.5906067,-0.1914629,0.41764298,-0.7253114,-0.13675322,4.161186
1747679565.3020968,2.3855987,-0.15192564,0.27804223,-0.7253114,-0.13675322,4.161186
1747679565.3026345,2.3855987,-0.15192564,0.27804223,-0.7253114,-0.13675322,4.161186
1747679565.3031876,2.3855987,-0.15192564,0.27804223,-0.7253114,-0.13675322,4.161186
1747679565.303743,2.3855987,-0.15192564,0.27804223,-0.7253114,-0.13675322,4.161186
1747679565.3042784,2.3855987,-0.15192564,0.27804223,-0.7253114,-0.13675322,4.161186
1747679565.3048213,2.3855987,-0.15192564,0.27804223,-0.7253114,-0.13675322,4.161186
1747679565.3053634,2.3855987,-0.15192564,0.27804223,-0.7253114,-0.13675322,4.161186
1747679565.3059173,2.3855987,-0.15192564,0.27804223,-0.7253114,-0.13675322,4.161186
1747679565.3064857,2.3855987,-0.15192564,0.27804223,-0.7253114,-0.13675322,4.161186
1747679565.3070395,2.3855987,-0.15192564,0.27804223,-0.7253114,-0.13675322,4.161186
1747679565.3076117,2.3855987,-0.15192564,0.27804223,-0.7253114,-0.13675322,4.161186
1747679565.3081346,2.3855987,-0.15192564,0.27804223,-0.7253114,-0.13675322,4.161186
1747679565.3086808,2.3855987,-0.15192564,0.27804223,-0.7253114,-0.13675322,4.161186
1747679565.3092127,2.3855987,-0.15192564,0.27804223,-0.7253114,-0.13675322,4.161186
1747679565.3097494,2.3855987,-0.15192564,0.27804223,-0.7253114,-0.13675322,4.161186
1747679565.3102791,1.9282353,-0.20561823,0.13014352,-0.7253114,-0.13675322,4.161186
1747679565.310816,1.9282353,-0.20561823,0.13014352,-0.75300825,-0.23156169,4.0184407
1747679565.311351,1.9282353,-0.20561823,0.13014352,-0.75300825,-0.23156169,4.0184407
1747679565.311882,1.9282353,-0.20561823,0.13014352,-0.75300825,-0.23156169,4.0184407
1747679565.3124387,1.9282353,-0.20561823,0.13014352,-0.75300825,-0.23156169,4.0184407
1747679565.3130014,1.9282353,-0.20561823,0.13014352,-0.75300825,-0.23156169,4.0184407
1747679565.3135622,1.9282353,-0.20561823,0.13014352,-0.75300825,-0.23156169,4.0184407
1747679565.3141775,1.9282353,-0.20561823,0.13014352,-0.75300825,-0.23156169,4.0184407
1747679565.3147407,1.9282353,-0.20561823,0.13014352,-0.75300825,-0.23156169,4.0184407
1747679565.3152866,1.9282353,-0.20561823,0.13014352,-0.75300825,-0.23156169,4.0184407
1747679565.3158216,1.9282353,-0.20561823,0.13014352,-0.75300825,-0.23156169,4.0184407
1747679565.3163674,1.9282353,-0.20561823,0.13014352,-0.75300825,-0.23156169,4.0184407
1747679565.316898,1.9282353,-0.20561823,0.13014352,-0.75300825,-0.23156169,4.0184407
1747679565.317427,1.9282353,-0.20561823,0.13014352,-0.75300825,-0.23156169,4.0184407
1747679565.3179574,1.9282353,-0.20561823,0.13014352,-0.75300825,-0.23156169,4.0184407
1747679565.318488,1.9282353,-0.20561823,0.13014352,-0.75300825,-0.23156169,4.0184407
1747679565.3190181,1.9282353,-0.20561823,0.13014352,-0.75300825,-0.23156169,4.0184407
1747679565.319547,1.9282353,-0.20561823,0.13014352,-0.75300825,-0.23156169,4.0184407
1747679565.3200762,1.9282353,-0.20561823,0.13014352,-0.75300825,-0.23156169,4.0184407
1747679565.32061,1.9282353,-0.20561823,0.13014352,-0.75300825,-0.23156169,4.0184407
1747679565.3211555,1.9282353,-0.20561823,0.13014352,-0.8179893,-0.32104382,4.181426
1747679565.3216922,1.7759435,-0.29933622,0.08670134,-0.8179893,-0.32104382,4.181426
1747679565.3222215,1.7759435,-0.29933622,0.08670134,-0.8179893,-0.32104382,4.181426
1747679565.3227568,1.7759435,-0.29933622,0.08670134,-0.8179893,-0.32104382,4.181426
1747679565.323313,1.7759435,-0.29933622,0.08670134,-0.8179893,-0.32104382,4.181426
1747679565.323847,1.7759435,-0.29933622,0.08670134,-0.8179893,-0.32104382,4.181426
1747679565.324398,1.7759435,-0.29933622,0.08670134,-0.8179893,-0.32104382,4.181426
1747679565.3249505,1.7759435,-0.29933622,0.08670134,-0.8179893,-0.32104382,4.181426
1747679565.3254783,1.7759435,-0.29933622,0.08670134,-0.8179893,-0.32104382,4.181426
1747679565.3260276,1.7759435,-0.29933622,0.08670134,-0.8179893,-0.32104382,4.181426
1747679565.3265476,1.7759435,-0.29933622,0.08670134,-0.8179893,-0.32104382,4.181426
1747679565.3271103,1.7759435,-0.29933622,0.08670134,-0.8179893,-0.32104382,4.181426
1747679565.3277335,1.7759435,-0.29933622,0.08670134,-0.8179893,-0.32104382,4.181426
1747679565.3282108,1.7759435,-0.29933622,0.08670134,-0.8179893,-0.32104382,4.181426
1747679565.3287714,1.7759435,-0.29933622,0.08670134,-0.8179893,-0.32104382,4.181426
1747679565.3293278,1.7759435,-0.29933622,0.08670134,-0.8179893,-0.32104382,4.181426
1747679565.3305209,1.7759435,-0.29933622,0.08670134,-0.8179893,-0.32104382,4.181426
1747679565.33091,1.7759435,-0.29933622,0.08670134,-0.8179893,-0.32104382,4.181426
1747679565.331915,1.7759435,-0.29933622,0.08670134,-0.8179893,-0.32104382,4.181426
1747679565.333028,1.654403,-0.52630943,0.07498659,-0.8179893,-0.32104382,4.181426
1747679565.333583,1.654403,-0.52630943,0.07498659,-0.8179893,-0.32104382,4.181426
1747679565.3341365,1.654403,-0.52630943,0.07498659,-0.8968188,-0.54368395,4.649077
1747679565.334697,1.654403,-0.52630943,0.07498659,-0.8968188,-0.54368395,4.649077
1747679565.3352559,1.654403,-0.52630943,0.07498659,-0.8968188,-0.54368395,4.649077
1747679565.3358147,1.654403,-0.52630943,0.07498659,-0.8968188,-0.54368395,4.649077
1747679565.3363435,1.654403,-0.52630943,0.07498659,-0.8968188,-0.54368395,4.649077
1747679565.3369021,1.654403,-0.52630943,0.07498659,-0.8968188,-0.54368395,4.649077
1747679565.3374596,1.654403,-0.52630943,0.07498659,-0.8968188,-0.54368395,4.649077
1747679565.3380184,1.654403,-0.52630943,0.07498659,-0.8968188,-0.54368395,4.649077
1747679565.338593,1.654403,-0.52630943,0.07498659,-0.8968188,-0.54368395,4.649077
1747679565.339162,1.654403,-0.52630943,0.07498659,-0.8968188,-0.54368395,4.649077
1747679565.3397243,1.654403,-0.52630943,0.07498659,-0.8968188,-0.54368395,4.649077
1747679565.3402567,1.654403,-0.52630943,0.07498659,-0.8968188,-0.54368395,4.649077
1747679565.3407836,1.654403,-0.52630943,0.07498659,-0.8968188,-0.54368395,4.649077
1747679565.34131,1.654403,-0.52630943,0.07498659,-0.8968188,-0.54368395,4.649077
1747679565.341842,1.7530023,-0.7762241,0.09499928,-0.8968188,-0.54368395,4.649077
1747679565.3423736,1.7530023,-0.7762241,0.09499928,-0.90853673,-0.9410273,5.4714603
1747679565.3429577,1.7530023,-0.7762241,0.09499928,-0.90853673,-0.9410273,5.4714603
1747679565.3435383,1.7530023,-0.7762241,0.09499928,-0.90853673,-0.9410273,5.4714603
1747679565.3441224,1.7530023,-0.7762241,0.09499928,-0.90853673,-0.9410273,5.4714603
1747679565.345851,1.7530023,-0.7762241,0.09499928,-0.90853673,-0.9410273,5.4714603
1747679565.3466997,1.7530023,-0.7762241,0.09499928,-0.90853673,-0.9410273,5.4714603
1747679565.3477018,1.7530023,-0.7762241,0.09499928,-0.90853673,-0.9410273,5.4714603
1747679565.3486974,1.7530023,-0.7762241,0.09499928,-0.90853673,-0.9410273,5.4714603
1747679565.349695,1.7530023,-0.7762241,0.09499928,-0.90853673,-0.9410273,5.4714603
1747679565.350684,1.7530023,-0.7762241,0.09499928,-0.90853673,-0.9410273,5.4714603
1747679565.3516822,1.7530023,-0.7762241,0.09499928,-0.90853673,-0.9410273,5.4714603
1747679565.3526812,2.0141435,-0.8606679,0.08279642,-0.90853673,-0.9410273,5.4714603
1747679565.3536901,2.0141435,-0.8606679,0.08279642,-0.8829704,-1.311739,6.204362
1747679565.3546832,2.0141435,-0.8606679,0.08279642,-0.8829704,-1.311739,6.204362
1747679565.35568,2.0141435,-0.8606679,0.08279642,-0.8829704,-1.311739,6.204362
1747679565.3566794,2.0141435,-0.8606679,0.08279642,-0.8829704,-1.311739,6.204362
1747679565.3576796,2.0141435,-0.8606679,0.08279642,-0.8829704,-1.311739,6.204362
1747679565.358741,2.0141435,-0.8606679,0.08279642,-0.8829704,-1.311739,6.204362
1747679565.3596978,2.0141435,-0.8606679,0.08279642,-0.8829704,-1.311739,6.204362
1747679565.3606987,2.0141435,-0.8606679,0.08279642,-0.8829704,-1.311739,6.204362
1747679565.362092,2.0141435,-0.8606679,0.08279642,-0.8829704,-1.311739,6.204362
1747679565.3627217,2.0141435,-0.8606679,0.08279642,-0.8829704,-1.311739,6.204362
1747679565.3632512,2.0141435,-0.8606679,0.08279642,-0.8829704,-1.311739,6.204362
1747679565.3638227,2.0141435,-0.8606679,0.08279642,-0.8829704,-1.311739,6.204362
1747679565.36436,2.0141435,-0.8606679,0.08279642,-0.8829704,-1.311739,6.204362
1747679565.364943,2.0141435,-0.8606679,0.08279642,-0.8829704,-1.311739,6.204362
1747679565.3654742,2.4705305,-0.86359656,-0.028981797,-0.8829704,-1.311739,6.204362
1747679565.3660085,2.4705305,-0.86359656,-0.028981797,-0.8829704,-1.311739,6.204362
1747679565.366559,2.4705305,-0.86359656,-0.028981797,-0.8829704,-1.311739,6.204362
1747679565.3671098,2.4705305,-0.86359656,-0.028981797,-0.8829704,-1.311739,6.204362
1747679565.3676608,2.4705305,-0.86359656,-0.028981797,-0.8829704,-1.311739,6.204362
1747679565.368253,2.4705305,-0.86359656,-0.028981797,-0.8829704,-1.311739,6.204362
1747679565.3687522,3.1880589,-0.9114317,-0.22569194,-0.8829704,-1.311739,6.204362
1747679565.3692887,3.1880589,-0.9114317,-0.22569194,-0.8829704,-1.311739,6.204362
1747679565.3698404,3.1880589,-0.9114317,-0.22569194,-1.2334422,-1.8986993,7.3058443
1747679565.3703775,3.1880589,-0.9114317,-0.22569194,-1.2334422,-1.8986993,7.3058443
1747679565.3709135,3.1880589,-0.9114317,-0.22569194,-1.2334422,-1.8986993,7.3058443
1747679565.371463,3.1880589,-0.9114317,-0.22569194,-1.2334422,-1.8986993,7.3058443
1747679565.3720164,3.1880589,-0.9114317,-0.22569194,-1.2334422,-1.8986993,7.3058443
1747679565.3725634,3.1880589,-0.9114317,-0.22569194,-1.2334422,-1.8986993,7.3058443
1747679565.37311,3.1880589,-0.9114317,-0.22569194,-1.2334422,-1.8986993,7.3058443
1747679565.373661,3.1880589,-0.9114317,-0.22569194,-1.2334422,-1.8986993,7.3058443
1747679565.3742292,3.1880589,-0.9114317,-0.22569194,-1.2334422,-1.8986993,7.3058443
1747679565.3747659,3.1880589,-0.9114317,-0.22569194,-1.2334422,-1.8986993,7.3058443
1747679565.375306,3.1880589,-0.9114317,-0.22569194,-1.2334422,-1.8986993,7.3058443
1747679565.3758671,3.1880589,-0.9114317,-0.22569194,-1.2334422,-1.8986993,7.3058443
1747679565.3764338,3.1880589,-0.9114317,-0.22569194,-1.2334422,-1.8986993,7.3058443
1747679565.3770015,3.1880589,-0.9114317,-0.22569194,-1.2334422,-1.8986993,7.3058443
1747679565.3775458,3.1880589,-0.9114317,-0.22569194,-1.2334422,-1.8986993,7.3058443
1747679565.378101,3.1880589,-0.9114317,-0.22569194,-1.2334422,-1.8986993,7.3058443
1747679565.3786502,3.6010036,-0.89141905,-0.36431646,-1.2334422,-1.8986993,7.3058443
1747679565.3792036,3.6010036,-0.89141905,-0.36431646,-1.2334422,-1.8986993,7.3058443
1747679565.3797514,3.6010036,-0.89141905,-0.36431646,-1.2334422,-1.8986993,7.3058443
1747679565.3803067,3.6010036,-0.89141905,-0.36431646,-1.2334422,-1.8986993,7.3058443
1747679565.380855,3.6010036,-0.89141905,-0.36431646,-1.5998929,-1.9658109,7.396392
1747679565.381409,3.6010036,-0.89141905,-0.36431646,-1.5998929,-1.9658109,7.396392
1747679565.3819551,3.6010036,-0.89141905,-0.36431646,-1.5998929,-1.9658109,7.396392
1747679565.3825014,3.6010036,-0.89141905,-0.36431646,-1.5998929,-1.9658109,7.396392
1747679565.3830473,3.6010036,-0.89141905,-0.36431646,-1.5998929,-1.9658109,7.396392
1747679565.3836026,3.6010036,-0.89141905,-0.36431646,-1.5998929,-1.9658109,7.396392
1747679565.3841283,3.6010036,-0.89141905,-0.36431646,-1.5998929,-1.9658109,7.396392
1747679565.3846557,3.6010036,-0.89141905,-0.36431646,-1.5998929,-1.9658109,7.396392
1747679565.3851776,3.6010036,-0.89141905,-0.36431646,-1.5998929,-1.9658109,7.396392
1747679565.3856988,3.6010036,-0.89141905,-0.36431646,-1.5998929,-1.9658109,7.396392
1747679565.3862197,3.6010036,-0.89141905,-0.36431646,-1.5998929,-1.9658109,7.396392
1747679565.3867407,3.6010036,-0.89141905,-0.36431646,-1.5998929,-1.9658109,7.396392
1747679565.3872645,3.6010036,-0.89141905,-0.36431646,-1.5998929,-1.9658109,7.396392
1747679565.3877835,3.6010036,-0.89141905,-0.36431646,-1.5998929,-1.9658109,7.396392
1747679565.3883152,3.6010036,-0.89141905,-0.36431646,-1.5998929,-1.9658109,7.396392
1747679565.388913,3.6010036,-0.89141905,-0.36431646,-1.5998929,-1.9658109,7.396392
1747679565.3894894,3.6010036,-0.89141905,-0.36431646,-1.5998929,-1.9658109,7.396392
1747679565.3900356,3.6010036,-0.89141905,-0.36431646,-1.5998929,-1.9658109,7.396392
1747679565.3905776,3.6010036,-0.89141905,-0.36431646,-1.5998929,-1.9658109,7.396392
1747679565.3911107,3.6010036,-0.89141905,-0.36431646,-1.5998929,-1.9658109,7.396392
1747679565.3916483,3.6010036,-0.89141905,-0.36431646,-1.5998929,-1.9658109,7.396392
1747679565.3922083,4.0017457,-0.8421196,-0.4199615,-1.5998929,-1.9658109,7.396392
1747679565.3927696,4.0017457,-0.8421196,-0.4199615,-2.2017667,-2.0116172,7.405979
1747679565.3933303,4.0017457,-0.8421196,-0.4199615,-2.2017667,-2.0116172,7.405979
1747679565.393879,4.0017457,-0.8421196,-0.4199615,-2.2017667,-2.0116172,7.405979
1747679565.3944178,4.0017457,-0.8421196,-0.4199615,-2.2017667,-2.0116172,7.405979
1747679565.394943,4.0017457,-0.8421196,-0.4199615,-2.2017667,-2.0116172,7.405979
1747679565.3954618,4.0017457,-0.8421196,-0.4199615,-2.2017667,-2.0116172,7.405979
1747679565.3959804,4.0017457,-0.8421196,-0.4199615,-2.2017667,-2.0116172,7.405979
1747679565.3964987,4.0017457,-0.8421196,-0.4199615,-2.2017667,-2.0116172,7.405979
1747679565.3970168,4.0017457,-0.8421196,-0.4199615,-2.2017667,-2.0116172,7.405979
1747679565.397535,4.0017457,-0.8421196,-0.4199615,-2.2017667,-2.0116172,7.405979
1747679565.3980532,4.0017457,-0.8421196,-0.4199615,-2.2017667,-2.0116172,7.405979
1747679565.3985713,4.0017457,-0.8421196,-0.4199615,-2.2017667,-2.0116172,7.405979
1747679565.3990898,4.0017457,-0.8421196,-0.4199615,-2.2017667,-2.0116172,7.405979
1747679565.3996084,4.0017457,-0.8421196,-0.4199615,-2.2017667,-2.0116172,7.405979
1747679565.4001272,4.0017457,-0.8421196,-0.4199615,-2.2017667,-2.0116172,7.405979
1747679565.400646,4.0017457,-0.8421196,-0.4199615,-2.2017667,-2.0116172,7.405979
1747679565.401172,4.3009596,-0.7811052,-0.40434185,-2.965561,-2.091512,7.5050488
1747679565.4016924,4.3009596,-0.7811052,-0.40434185,-2.965561,-2.091512,7.5050488
1747679565.4022105,4.3009596,-0.7811052,-0.40434185,-2.965561,-2.091512,7.5050488
1747679565.4027288,4.3009596,-0.7811052,-0.40434185,-2.965561,-2.091512,7.5050488
1747679565.4032466,4.3009596,-0.7811052,-0.40434185,-2.965561,-2.091512,7.5050488
1747679565.4037645,4.3009596,-0.7811052,-0.40434185,-2.965561,-2.091512,7.5050488
1747679565.4043071,4.3009596,-0.7811052,-0.40434185,-2.965561,-2.091512,7.5050488
1747679565.4048502,4.3009596,-0.7811052,-0.40434185,-2.965561,-2.091512,7.5050488
1747679565.4053752,4.3009596,-0.7811052,-0.40434185,-2.965561,-2.091512,7.5050488
1747679565.4058938,4.3009596,-0.7811052,-0.40434185,-2.965561,-2.091512,7.5050488
1747679565.4064124,4.3009596,-0.7811052,-0.40434185,-2.965561,-2.091512,7.5050488
1747679565.406933,4.3009596,-0.7811052,-0.40434185,-2.965561,-2.091512,7.5050488
1747679565.4074862,4.3009596,-0.7811052,-0.40434185,-2.965561,-2.091512,7.5050488
1747679565.4080389,4.3009596,-0.7811052,-0.40434185,-2.965561,-2.091512,7.5050488
1747679565.4085717,4.3009596,-0.7811052,-0.40434185,-2.965561,-2.091512,7.5050488
1747679565.409092,4.3009596,-0.7811052,-0.40434185,-2.965561,-2.091512,7.5050488
1747679565.4096162,4.6943803,-0.6829942,-0.33454147,-3.4758222,-2.1266656,7.582813
1747679565.4101348,4.6943803,-0.6829942,-0.33454147,-3.4758222,-2.1266656,7.582813
1747679565.4106536,4.6943803,-0.6829942,-0.33454147,-3.4758222,-2.1266656,7.582813
1747679565.4111726,4.6943803,-0.6829942,-0.33454147,-3.4758222,-2.1266656,7.582813
1747679565.411691,4.6943803,-0.6829942,-0.33454147,-3.4758222,-2.1266656,7.582813
1747679565.4122088,4.6943803,-0.6829942,-0.33454147,-3.4758222,-2.1266656,7.582813
1747679565.412727,4.6943803,-0.6829942,-0.33454147,-3.4758222,-2.1266656,7.582813
1747679565.4132452,4.6943803,-0.6829942,-0.33454147,-3.4758222,-2.1266656,7.582813
1747679565.4137733,4.6943803,-0.6829942,-0.33454147,-3.4758222,-2.1266656,7.582813
1747679565.4143143,4.6943803,-0.6829942,-0.33454147,-3.4758222,-2.1266656,7.582813
1747679565.41484,4.6943803,-0.6829942,-0.33454147,-3.4758222,-2.1266656,7.582813
1747679565.415359,4.6943803,-0.6829942,-0.33454147,-3.4758222,-2.1266656,7.582813
1747679565.4158773,4.6943803,-0.6829942,-0.33454147,-3.4758222,-2.1266656,7.582813
1747679565.416395,4.6943803,-0.6829942,-0.33454147,-3.4758222,-2.1266656,7.582813
1747679565.4169133,4.6943803,-0.6829942,-0.33454147,-3.4758222,-2.1266656,7.582813
1747679565.417431,4.6943803,-0.6829942,-0.33454147,-3.4758222,-2.1266656,7.582813
1747679565.417949,4.6943803,-0.6829942,-0.33454147,-3.4758222,-2.1266656,7.582813
1747679565.418467,4.6943803,-0.6829942,-0.33454147,-3.4758222,-2.1266656,7.582813
1747679565.4189851,4.6943803,-0.6829942,-0.33454147,-3.4758222,-2.1266656,7.582813
1747679565.4196758,4.6943803,-0.6829942,-0.33454147,-3.4758222,-2.1266656,7.582813
1747679565.4202347,4.6943803,-0.6829942,-0.33454147,-3.4758222,-2.1266656,7.582813
1747679565.4207983,4.6943803,-0.6829942,-0.33454147,-3.4758222,-2.1266656,7.582813
1747679565.4213517,4.6943803,-0.6829942,-0.33454147,-3.4758222,-2.1266656,7.582813
1747679565.4219139,4.6943803,-0.6829942,-0.33454147,-3.4758222,-2.1266656,7.582813
1747679565.4224627,4.959914,-0.5878119,-0.2720628,-3.9690392,-2.1607542,7.53168
1747679565.4230118,4.959914,-0.5878119,-0.2720628,-3.9690392,-2.1607542,7.53168
1747679565.423581,4.959914,-0.5878119,-0.2720628,-3.9690392,-2.1607542,7.53168
1747679565.4241388,4.959914,-0.5878119,-0.2720628,-3.9690392,-2.1607542,7.53168
1747679565.4246793,4.959914,-0.5878119,-0.2720628,-3.9690392,-2.1607542,7.53168
1747679565.4252024,4.959914,-0.5878119,-0.2720628,-3.9690392,-2.1607542,7.53168
1747679565.4257214,4.959914,-0.5878119,-0.2720628,-3.9690392,-2.1607542,7.53168
1747679565.4262397,4.959914,-0.5878119,-0.2720628,-3.9690392,-2.1607542,7.53168
1747679565.4267583,4.959914,-0.5878119,-0.2720628,-3.9690392,-2.1607542,7.53168
1747679565.4272768,4.959914,-0.5878119,-0.2720628,-3.9690392,-2.1607542,7.53168
1747679565.4277952,4.959914,-0.5878119,-0.2720628,-3.9690392,-2.1607542,7.53168
1747679565.4283133,4.959914,-0.5878119,-0.2720628,-3.9690392,-2.1607542,7.53168
1747679565.4288316,4.959914,-0.5878119,-0.2720628,-3.9690392,-2.1607542,7.53168
1747679565.4293497,4.959914,-0.5878119,-0.2720628,-3.9690392,-2.1607542,7.53168
1747679565.4298677,4.959914,-0.5878119,-0.2720628,-3.9690392,-2.1607542,7.53168
1747679565.4303858,4.959914,-0.5878119,-0.2720628,-3.9690392,-2.1607542,7.53168
1747679565.4309058,4.959914,-0.5878119,-0.2720628,-3.9690392,-2.1607542,7.53168
1747679565.4314284,4.959914,-0.5878119,-0.2720628,-4.568783,-2.1309268,7.26856
1747679565.4319494,5.3015943,-0.3828038,-0.09146046,-4.568783,-2.1309268,7.26856
1747679565.432468,5.3015943,-0.3828038,-0.09146046,-4.568783,-2.1309268,7.26856
1747679565.432986,5.3015943,-0.3828038,-0.09146046,-4.568783,-2.1309268,7.26856
1747679565.4335144,5.3015943,-0.3828038,-0.09146046,-4.568783,-2.1309268,7.26856
1747679565.4340537,5.3015943,-0.3828038,-0.09146046,-4.568783,-2.1309268,7.26856
1747679565.4345791,5.3015943,-0.3828038,-0.09146046,-4.568783,-2.1309268,7.26856
1747679565.435123,5.3015943,-0.3828038,-0.09146046,-4.568783,-2.1309268,7.26856
1747679565.4356842,5.3015943,-0.3828038,-0.09146046,-4.568783,-2.1309268,7.26856
1747679565.4362369,5.3015943,-0.3828038,-0.09146046,-4.568783,-2.1309268,7.26856
1747679565.4367871,5.3015943,-0.3828038,-0.09146046,-4.568783,-2.1309268,7.26856
1747679565.4373384,5.3015943,-0.3828038,-0.09146046,-4.568783,-2.1309268,7.26856
1747679565.4379005,5.3015943,-0.3828038,-0.09146046,-4.568783,-2.1309268,7.26856
1747679565.4384677,5.3015943,-0.3828038,-0.09146046,-4.568783,-2.1309268,7.26856
1747679565.4394999,5.3015943,-0.3828038,-0.09146046,-4.568783,-2.1309268,7.26856
1747679565.440075,5.3015943,-0.3828038,-0.09146046,-4.568783,-2.1309268,7.26856
1747679565.4406288,5.3015943,-0.3828038,-0.09146046,-4.568783,-2.1309268,7.26856
1747679565.4411612,5.3015943,-0.3828038,-0.09146046,-4.568783,-2.1309268,7.26856
1747679565.4416926,5.353335,-0.23246452,0.21898036,-4.568783,-2.1309268,7.26856
1747679565.4422133,5.353335,-0.23246452,0.21898036,-4.568783,-2.1309268,7.26856
1747679565.442733,5.353335,-0.23246452,0.21898036,-4.568783,-2.1309268,7.26856
1747679565.443276,5.353335,-0.23246452,0.21898036,-5.0332375,-2.0531626,6.8445854
1747679565.4438045,5.353335,-0.23246452,0.21898036,-5.0332375,-2.0531626,6.8445854
1747679565.4443328,5.353335,-0.23246452,0.21898036,-5.0332375,-2.0531626,6.8445854
1747679565.4448535,5.353335,-0.23246452,0.21898036,-5.0332375,-2.0531626,6.8445854
1747679565.445372,5.353335,-0.23246452,0.21898036,-5.0332375,-2.0531626,6.8445854
1747679565.4458902,5.353335,-0.23246452,0.21898036,-5.0332375,-2.0531626,6.8445854
1747679565.446409,5.353335,-0.23246452,0.21898036,-5.0332375,-2.0531626,6.8445854
1747679565.446927,5.353335,-0.23246452,0.21898036,-5.0332375,-2.0531626,6.8445854
1747679565.4474452,5.353335,-0.23246452,0.21898036,-5.0332375,-2.0531626,6.8445854
1747679565.4479635,5.353335,-0.23246452,0.21898036,-5.0332375,-2.0531626,6.8445854
1747679565.4484818,5.353335,-0.23246452,0.21898036,-5.0332375,-2.0531626,6.8445854
1747679565.4490001,5.353335,-0.23246452,0.21898036,-5.0332375,-2.0531626,6.8445854
1747679565.4495187,5.353335,-0.23246452,0.21898036,-5.0332375,-2.0531626,6.8445854
1747679565.4500668,5.353335,-0.23246452,0.21898036,-5.0332375,-2.0531626,6.8445854
1747679565.4506283,5.353335,-0.23246452,0.21898036,-5.0332375,-2.0531626,6.8445854
1747679565.4511757,5.353335,-0.23246452,0.21898036,-5.0332375,-2.0531626,6.8445854
1747679565.4517164,5.353335,-0.23246452,0.21898036,-5.0332375,-2.0531626,6.8445854
1747679565.452256,5.353335,-0.23246452,0.21898036,-5.0332375,-2.0531626,6.8445854
1747679565.4527893,5.353335,-0.23246452,0.21898036,-5.0332375,-2.0531626,6.8445854
1747679565.4533088,5.353335,-0.23246452,0.21898036,-5.0332375,-2.0531626,6.8445854
1747679565.453849,5.353335,-0.23246452,0.21898036,-5.0332375,-2.0531626,6.8445854
1747679565.454426,5.353335,-0.23246452,0.21898036,-5.0332375,-2.0531626,6.8445854
1747679565.4549713,5.353335,-0.23246452,0.21898036,-5.0332375,-2.0531626,6.8445854
1747679565.4555044,5.353335,-0.23246452,0.21898036,-5.0332375,-2.0531626,6.8445854
1747679565.4560237,5.353335,-0.23246452,0.21898036,-5.0332375,-2.0531626,6.8445854
1747679565.4565427,5.353335,-0.23246452,0.21898036,-5.0332375,-2.0531626,6.8445854
1747679565.457061,5.353335,-0.23246452,0.21898036,-5.0332375,-2.0531626,6.8445854
1747679565.4575796,5.353335,-0.23246452,0.21898036,-5.0332375,-2.0531626,6.8445854
1747679565.4580982,5.353335,-0.23246452,0.21898036,-5.0332375,-2.0531626,6.8445854
1747679565.4586163,5.353335,-0.23246452,0.21898036,-5.0332375,-2.0531626,6.8445854
1747679565.4591348,5.353335,-0.23246452,0.21898036,-5.0332375,-2.0531626,6.8445854
1747679565.4596553,5.353335,-0.23246452,0.21898036,-5.209006,-2.1277308,6.2352543
1747679565.4601765,5.2283773,0.046736963,0.6870822,-5.209006,-2.1277308,6.2352543
1747679565.4606953,5.2283773,0.046736963,0.6870822,-5.209006,-2.1277308,6.2352543
1747679565.4612136,5.2283773,0.046736963,0.6870822,-5.209006,-2.1277308,6.2352543
1747679565.461732,5.2283773,0.046736963,0.6870822,-5.209006,-2.1277308,6.2352543
1747679565.462251,4.991642,0.30202085,0.97946274,-5.0215197,-2.1746025,5.6823826
1747679565.46277,4.991642,0.30202085,0.97946274,-5.0215197,-2.1746025,5.6823826
1747679565.4632883,4.991642,0.30202085,0.97946274,-5.0215197,-2.1746025,5.6823826
1747679565.4638064,4.991642,0.30202085,0.97946274,-5.0215197,-2.1746025,5.6823826
1747679565.4643338,4.991642,0.30202085,0.97946274,-5.0215197,-2.1746025,5.6823826
1747679565.4648716,4.991642,0.30202085,0.97946274,-5.0215197,-2.1746025,5.6823826
1747679565.465402,4.991642,0.30202085,0.97946274,-5.0215197,-2.1746025,5.6823826
1747679565.4659235,4.991642,0.30202085,0.97946274,-5.0215197,-2.1746025,5.6823826
1747679565.4665325,4.991642,0.30202085,0.97946274,-5.0215197,-2.1746025,5.6823826
1747679565.4670513,4.991642,0.30202085,0.97946274,-5.0215197,-2.1746025,5.6823826
1747679565.4675698,4.991642,0.30202085,0.97946274,-5.0215197,-2.1746025,5.6823826
1747679565.4680889,4.991642,0.30202085,0.97946274,-4.660395,-2.2257352,5.1007485
1747679565.4686072,4.991642,0.30202085,0.97946274,-4.660395,-2.2257352,5.1007485
1747679565.4691253,4.991642,0.30202085,0.97946274,-4.660395,-2.2257352,5.1007485
1747679565.4696465,4.991642,0.30202085,0.97946274,-4.660395,-2.2257352,5.1007485
1747679565.4701962,4.991642,0.30202085,0.97946274,-4.660395,-2.2257352,5.1007485
1747679565.470741,4.991642,0.30202085,0.97946274,-4.660395,-2.2257352,5.1007485
1747679565.4712737,4.991642,0.30202085,0.97946274,-4.660395,-2.2257352,5.1007485
1747679565.4717932,4.991642,0.30202085,0.97946274,-4.660395,-2.2257352,5.1007485
1747679565.4723144,4.991642,0.30202085,0.97946274,-4.660395,-2.2257352,5.1007485
1747679565.4728353,4.991642,0.30202085,0.97946274,-4.660395,-2.2257352,5.1007485
1747679565.4733696,4.991642,0.30202085,0.97946274,-4.660395,-2.2257352,5.1007485
1747679565.4739203,4.991642,0.30202085,0.97946274,-4.660395,-2.2257352,5.1007485
1747679565.4744465,4.991642,0.30202085,0.97946274,-4.660395,-2.2257352,5.1007485
1747679565.4749677,4.991642,0.30202085,0.97946274,-4.660395,-2.2257352,5.1007485
1747679565.4754891,4.991642,0.30202085,0.97946274,-4.660395,-2.2257352,5.1007485
1747679565.4760098,4.991642,0.30202085,0.97946274,-4.660395,-2.2257352,5.1007485
1747679565.4765308,4.991642,0.30202085,0.97946274,-4.660395,-2.2257352,5.1007485
1747679565.4770522,4.6480093,0.4679798,1.0853837,-4.660395,-2.2257352,5.1007485
1747679565.4775734,4.6480093,0.4679798,1.0853837,-4.660395,-2.2257352,5.1007485
1747679565.4780946,4.6480093,0.4679798,1.0853837,-4.660395,-2.2257352,5.1007485
1747679565.4786193,4.6480093,0.4679798,1.0853837,-4.660395,-2.2257352,5.1007485
1747679565.4791427,4.16624,0.5792699,1.0448701,-4.2609215,-2.3109562,4.501005
1747679565.479664,4.16624,0.5792699,1.0448701,-4.2609215,-2.3109562,4.501005
1747679565.480185,4.16624,0.5792699,1.0448701,-4.2609215,-2.3109562,4.501005
1747679565.480721,4.16624,0.5792699,1.0448701,-4.2609215,-2.3109562,4.501005
1747679565.4812634,4.16624,0.5792699,1.0448701,-4.2609215,-2.3109562,4.501005
1747679565.4817958,4.16624,0.5792699,1.0448701,-4.2609215,-2.3109562,4.501005
1747679565.4823322,4.16624,0.5792699,1.0448701,-4.2609215,-2.3109562,4.501005
1747679565.4828675,4.16624,0.5792699,1.0448701,-4.2609215,-2.3109562,4.501005
1747679565.4833894,4.16624,0.5792699,1.0448701,-4.2609215,-2.3109562,4.501005
1747679565.4839213,4.16624,0.5792699,1.0448701,-4.2609215,-2.3109562,4.501005
1747679565.4844728,4.16624,0.5792699,1.0448701,-4.2609215,-2.3109562,4.501005
1747679565.4849997,4.16624,0.5792699,1.0448701,-4.2609215,-2.3109562,4.501005
1747679565.4855232,4.16624,0.5792699,1.0448701,-4.2609215,-2.3109562,4.501005
1747679565.4860978,4.16624,0.5792699,1.0448701,-4.2609215,-2.3109562,4.501005
1747679565.4866486,4.16624,0.5792699,1.0448701,-4.2609215,-2.3109562,4.501005
1747679565.4871864,4.16624,0.5792699,1.0448701,-4.2609215,-2.3109562,4.501005
1747679565.4877243,4.16624,0.5792699,1.0448701,-4.2609215,-2.3109562,4.501005
1747679565.4882774,3.581479,0.6314981,0.972141,-4.2609215,-2.3109562,4.501005
1747679565.4887993,3.581479,0.6314981,0.972141,-3.920037,-2.5261395,3.9641123
1747679565.4893205,3.581479,0.6314981,0.972141,-3.920037,-2.5261395,3.9641123
1747679565.4898412,3.581479,0.6314981,0.972141,-3.920037,-2.5261395,3.9641123
1747679565.4903603,3.581479,0.6314981,0.972141,-3.920037,-2.5261395,3.9641123
1747679565.4908788,3.581479,0.6314981,0.972141,-3.920037,-2.5261395,3.9641123
1747679565.4913971,3.581479,0.6314981,0.972141,-3.920037,-2.5261395,3.9641123
1747679565.4919152,3.581479,0.6314981,0.972141,-3.920037,-2.5261395,3.9641123
1747679565.4924333,3.581479,0.6314981,0.972141,-3.920037,-2.5261395,3.9641123
1747679565.4929516,3.581479,0.6314981,0.972141,-3.920037,-2.5261395,3.9641123
1747679565.4934697,3.581479,0.6314981,0.972141,-3.920037,-2.5261395,3.9641123
1747679565.4939964,3.581479,0.6314981,0.972141,-3.920037,-2.5261395,3.9641123
1747679565.4945297,3.581479,0.6314981,0.972141,-3.920037,-2.5261395,3.9641123
1747679565.495056,3.581479,0.6314981,0.972141,-3.920037,-2.5261395,3.9641123
1747679565.4955745,3.581479,0.6314981,0.972141,-3.920037,-2.5261395,3.9641123
1747679565.4961169,3.581479,0.6314981,0.972141,-3.920037,-2.5261395,3.9641123
1747679565.4966624,3.581479,0.6314981,0.972141,-3.920037,-2.5261395,3.9641123
1747679565.4971871,3.581479,0.6314981,0.972141,-3.920037,-2.5261395,3.9641123
1747679565.4977064,3.581479,0.6314981,0.972141,-3.5365422,-2.9266787,3.4751563
1747679565.4982255,3.581479,0.6314981,0.972141,-3.5365422,-2.9266787,3.4751563
1747679565.4987438,3.0030634,0.69446486,1.1190635,-3.5365422,-2.9266787,3.4751563
1747679565.4992626,3.0030634,0.69446486,1.1190635,-3.5365422,-2.9266787,3.4751563
1747679565.499781,3.0030634,0.69446486,1.1190635,-3.5365422,-2.9266787,3.4751563
1747679565.5003018,3.0030634,0.69446486,1.1190635,-3.5365422,-2.9266787,3.4751563
1747679565.5008564,3.0030634,0.69446486,1.1190635,-3.5365422,-2.9266787,3.4751563
1747679565.5014088,3.0030634,0.69446486,1.1190635,-3.5365422,-2.9266787,3.4751563
1747679565.5019412,3.0030634,0.69446486,1.1190635,-3.5365422,-2.9266787,3.4751563
1747679565.502461,3.0030634,0.69446486,1.1190635,-3.5365422,-2.9266787,3.4751563
1747679565.5029793,3.0030634,0.69446486,1.1190635,-3.5365422,-2.9266787,3.4751563
1747679565.5034974,3.0030634,0.69446486,1.1190635,-3.5365422,-2.9266787,3.4751563
1747679565.5040336,3.0030634,0.69446486,1.1190635,-3.5365422,-2.9266787,3.4751563
1747679565.5045736,3.0030634,0.69446486,1.1190635,-3.5365422,-2.9266787,3.4751563
1747679565.5050955,3.0030634,0.69446486,1.1190635,-3.5365422,-2.9266787,3.4751563
1747679565.505614,3.0030634,0.69446486,1.1190635,-3.5365422,-2.9266787,3.4751563
1747679565.5061321,3.0030634,0.69446486,1.1190635,-3.5365422,-2.9266787,3.4751563
1747679565.5066507,3.0030634,0.69446486,1.1190635,-3.5365422,-2.9266787,3.4751563
1747679565.5071688,3.0030634,0.69446486,1.1190635,-3.5365422,-2.9266787,3.4751563
1747679565.5076869,3.0030634,0.69446486,1.1190635,-3.5365422,-2.9266787,3.4751563
1747679565.5082054,3.0030634,0.69446486,1.1190635,-3.5365422,-2.9266787,3.4751563
1747679565.5087237,3.0030634,0.69446486,1.1190635,-3.5365422,-2.9266787,3.4751563
1747679565.5092416,3.0030634,0.69446486,1.1190635,-3.5365422,-2.9266787,3.4751563
1747679565.5097594,3.0030634,0.69446486,1.1190635,-3.5365422,-2.9266787,3.4751563
1747679565.5102777,3.0030634,0.69446486,1.1190635,-3.5365422,-2.9266787,3.4751563
1747679565.5107956,3.0030634,0.69446486,1.1190635,-3.5365422,-2.9266787,3.4751563
1747679565.511419,2.3641217,0.8326013,1.3826454,-3.5365422,-2.9266787,3.4751563
1747679565.5119834,2.3641217,0.8326013,1.3826454,-3.5365422,-2.9266787,3.4751563
1747679565.5125349,2.3641217,0.8326013,1.3826454,-2.9080365,-3.3996558,3.0202887
1747679565.5131276,2.3641217,0.8326013,1.3826454,-2.9080365,-3.3996558,3.0202887
1747679565.5136764,2.3641217,0.8326013,1.3826454,-2.9080365,-3.3996558,3.0202887
1747679565.5142214,2.3641217,0.8326013,1.3826454,-2.9080365,-3.3996558,3.0202887
1747679565.5147624,2.3641217,0.8326013,1.3826454,-2.9080365,-3.3996558,3.0202887
1747679565.5152886,2.3641217,0.8326013,1.3826454,-2.9080365,-3.3996558,3.0202887
1747679565.5158074,2.3641217,0.8326013,1.3826454,-2.9080365,-3.3996558,3.0202887
1747679565.5163298,2.3641217,0.8326013,1.3826454,-2.9080365,-3.3996558,3.0202887
1747679565.5168824,2.3641217,0.8326013,1.3826454,-2.9080365,-3.3996558,3.0202887
1747679565.517431,2.3641217,0.8326013,1.3826454,-2.9080365,-3.3996558,3.0202887
1747679565.517964,2.3641217,0.8326013,1.3826454,-2.9080365,-3.3996558,3.0202887
1747679565.5184834,2.3641217,0.8326013,1.3826454,-2.9080365,-3.3996558,3.0202887
1747679565.519002,2.3641217,0.8326013,1.3826454,-2.9080365,-3.3996558,3.0202887
1747679565.5195203,2.3641217,0.8326013,1.3826454,-2.9080365,-3.3996558,3.0202887
1747679565.5200388,2.3641217,0.8326013,1.3826454,-2.9080365,-3.3996558,3.0202887
1747679565.5205574,2.3641217,0.8326013,1.3826454,-2.9080365,-3.3996558,3.0202887
1747679565.5210755,2.3641217,0.8326013,1.3826454,-2.9080365,-3.3996558,3.0202887
1747679565.5215943,2.3641217,0.8326013,1.3826454,-2.9080365,-3.3996558,3.0202887
1747679565.5221133,2.3641217,0.8326013,1.3826454,-2.9080365,-3.3996558,3.0202887
1747679565.5226321,1.6002223,1.0766586,1.7721606,-2.9080365,-3.3996558,3.0202887
1747679565.5231512,1.6002223,1.0766586,1.7721606,-2.9080365,-3.3996558,3.0202887
1747679565.5236795,1.6002223,1.0766586,1.7721606,-1.9652783,-3.933353,2.6602297
1747679565.5242174,1.6002223,1.0766586,1.7721606,-1.9652783,-3.933353,2.6602297
1747679565.5247433,1.6002223,1.0766586,1.7721606,-1.9652783,-3.933353,2.6602297
1747679565.5252624,1.6002223,1.0766586,1.7721606,-1.9652783,-3.933353,2.6602297
1747679565.5257804,1.6002223,1.0766586,1.7721606,-1.9652783,-3.933353,2.6602297
1747679565.5262988,1.6002223,1.0766586,1.7721606,-1.9652783,-3.933353,2.6602297
1747679565.526848,1.6002223,1.0766586,1.7721606,-1.9652783,-3.933353,2.6602297
1747679565.527387,1.6002223,1.0766586,1.7721606,-1.9652783,-3.933353,2.6602297
1747679565.5279086,1.6002223,1.0766586,1.7721606,-1.9652783,-3.933353,2.6602297
1747679565.5284274,1.6002223,1.0766586,1.7721606,-1.9652783,-3.933353,2.6602297
1747679565.5289454,1.6002223,1.0766586,1.7721606,-1.9652783,-3.933353,2.6602297
1747679565.5294638,1.6002223,1.0766586,1.7721606,-1.9652783,-3.933353,2.6602297
1747679565.5299816,1.6002223,1.0766586,1.7721606,-1.9652783,-3.933353,2.6602297
1747679565.5304997,1.6002223,1.0766586,1.7721606,-1.9652783,-3.933353,2.6602297
1747679565.531018,1.6002223,1.0766586,1.7721606,-1.9652783,-3.933353,2.6602297
1747679565.5315363,1.6002223,1.0766586,1.7721606,-1.9652783,-3.933353,2.6602297
1747679565.5320575,1.6002223,1.0766586,1.7721606,-1.9652783,-3.933353,2.6602297
1747679565.532616,1.6002223,1.0766586,1.7721606,-1.9652783,-3.933353,2.6602297
1747679565.5331511,1.6002223,1.0766586,1.7721606,-1.9652783,-3.933353,2.6602297
1747679565.5336711,1.6002223,1.0766586,1.7721606,-1.9652783,-3.933353,2.6602297
1747679565.5342076,1.6002223,1.0766586,1.7721606,-1.9652783,-3.933353,2.6602297
1747679565.5347588,1.6002223,1.0766586,1.7721606,-1.9652783,-3.933353,2.6602297
1747679565.5352836,1.6002223,1.0766586,1.7721606,-1.9652783,-3.933353,2.6602297
1747679565.5358021,1.6002223,1.0766586,1.7721606,-1.9652783,-3.933353,2.6602297
1747679565.536321,1.6002223,1.0766586,1.7721606,-1.9652783,-3.933353,2.6602297
1747679565.5368392,1.6002223,1.0766586,1.7721606,-1.9652783,-3.933353,2.6602297
1747679565.5373573,1.6002223,1.0766586,1.7721606,-1.9652783,-3.933353,2.6602297
1747679565.5378757,1.6002223,1.0766586,1.7721606,-1.9652783,-3.933353,2.6602297
1747679565.538394,1.6002223,1.0766586,1.7721606,-1.9652783,-3.933353,2.6602297
1747679565.5389118,1.6002223,1.0766586,1.7721606,-1.9652783,-3.933353,2.6602297
1747679565.53943,1.6002223,1.0766586,1.7721606,-1.9652783,-3.933353,2.6602297
1747679565.5399482,1.6002223,1.0766586,1.7721606,-1.9652783,-3.933353,2.6602297
1747679565.540466,1.6002223,1.0766586,1.7721606,-1.9652783,-3.933353,2.6602297
1747679565.5409844,1.6002223,1.0766586,1.7721606,-1.9652783,-3.933353,2.6602297
1747679565.5415025,1.6002223,1.0766586,1.7721606,-1.9652783,-3.933353,2.6602297
1747679565.5420601,1.6002223,1.0766586,1.7721606,-1.9652783,-3.933353,2.6602297
1747679565.5426311,1.6002223,1.0766586,1.7721606,-1.9652783,-3.933353,2.6602297
1747679565.5431864,1.6002223,1.0766586,1.7721606,-1.9652783,-3.933353,2.6602297
1747679565.5438066,1.6002223,1.0766586,1.7721606,-1.9652783,-3.933353,2.6602297
1747679565.5443625,1.6002223,1.0766586,1.7721606,-1.9652783,-3.933353,2.6602297
1747679565.5449095,1.6002223,1.0766586,1.7721606,-1.9652783,-3.933353,2.6602297
1747679565.5454483,1.6002223,1.0766586,1.7721606,-1.9652783,-3.933353,2.6602297
1747679565.5459867,1.6002223,1.0766586,1.7721606,-1.9652783,-3.933353,2.6602297
1747679565.5465248,1.6002223,1.0766586,1.7721606,-1.9652783,-3.933353,2.6602297
1747679565.5470674,1.6002223,1.0766586,1.7721606,-1.9652783,-3.933353,2.6602297
1747679565.5476105,1.6002223,1.0766586,1.7721606,-1.9652783,-3.933353,2.6602297
1747679565.5481596,1.6002223,1.0766586,1.7721606,-1.9652783,-3.933353,2.6602297
1747679565.548725,1.6002223,1.0766586,1.7721606,-1.9652783,-3.933353,2.6602297
1747679565.5492923,1.6002223,1.0766586,1.7721606,-1.9652783,-3.933353,2.6602297
1747679565.5498579,0.89977807,1.3070486,2.0835776,0.57750607,-4.754671,2.293779
1747679565.5504167,0.89977807,1.3070486,2.0835776,0.57750607,-4.754671,2.293779
1747679565.5509646,0.89977807,1.3070486,2.0835776,0.57750607,-4.754671,2.293779
1747679565.5515242,0.89977807,1.3070486,2.0835776,0.57750607,-4.754671,2.293779
1747679565.552059,0.89977807,1.3070486,2.0835776,0.57750607,-4.754671,2.293779
1747679565.5525835,0.89977807,1.3070486,2.0835776,0.57750607,-4.754671,2.293779
1747679565.5531032,0.89977807,1.3070486,2.0835776,0.57750607,-4.754671,2.293779
1747679565.553622,0.89977807,1.3070486,2.0835776,0.57750607,-4.754671,2.293779
1747679565.554148,0.89977807,1.3070486,2.0835776,0.57750607,-4.754671,2.293779
1747679565.5546737,0.64302987,1.287036,1.8536758,0.57750607,-4.754671,2.293779
1747679565.5551941,0.64302987,1.287036,1.8536758,0.57750607,-4.754671,2.293779
1747679565.5557127,0.64302987,1.287036,1.8536758,0.57750607,-4.754671,2.293779
1747679565.5562327,0.64302987,1.287036,1.8536758,0.57750607,-4.754671,2.293779
1747679565.5567534,0.64302987,1.287036,1.8536758,0.57750607,-4.754671,2.293779
