timestamp,acc_x,acc_y,acc_z,gyro_x,gyro_y,gyro_z
1747679292.6294944,-0.111107066,0.57390064,0.71295226,0.30173594,-0.25406536,-0.6708498
1747679292.6300333,-0.111107066,0.57390064,0.71295226,0.30173594,-0.25406536,-0.6708498
1747679292.6305566,-0.111107066,0.57390064,0.71295226,0.30173594,-0.25406536,-0.6708498
1747679292.631076,-0.111107066,0.57390064,0.71295226,0.30173594,-0.25406536,-0.6708498
1747679292.6315947,-0.111107066,0.57390064,0.71295226,0.30173594,-0.25406536,-0.6708498
1747679292.6321497,-0.111107066,0.57390064,0.71295226,0.30173594,-0.25406536,-0.6708498
1747679292.6326697,-0.111107066,0.57390064,0.71295226,0.30173594,-0.25406536,-0.6708498
1747679292.633191,-0.111107066,0.57390064,0.71295226,0.30173594,-0.25406536,-0.6708498
1747679292.6337419,-0.21849224,0.609533,0.6656051,0.22290641,-0.4085286,-0.6175866
1747679292.6343083,-0.21849224,0.609533,0.6656051,0.22290641,-0.4085286,-0.6175866
1747679292.6348314,-0.21849224,0.609533,0.6656051,0.22290641,-0.4085286,-0.6175866
1747679292.6353505,-0.21849224,0.609533,0.6656051,0.22290641,-0.4085286,-0.6175866
1747679292.635869,-0.21849224,0.609533,0.6656051,0.22290641,-0.4085286,-0.6175866
1747679292.6363876,-0.21849224,0.609533,0.6656051,0.22290641,-0.4085286,-0.6175866
1747679292.6369064,-0.21849224,0.609533,0.6656051,0.22290641,-0.4085286,-0.6175866
1747679292.6374602,-0.21849224,0.609533,0.6656051,0.22290641,-0.4085286,-0.6175866
1747679292.6379824,-0.21849224,0.609533,0.6656051,0.22290641,-0.4085286,-0.6175866
1747679292.6385028,-0.21849224,0.609533,0.6656051,0.22290641,-0.4085286,-0.6175866
1747679292.6390219,-0.21849224,0.609533,0.6656051,0.22290641,-0.4085286,-0.6175866
1747679292.6395402,-0.21849224,0.609533,0.6656051,0.22290641,-0.4085286,-0.6175866
1747679292.640059,-0.21849224,0.609533,0.6656051,0.22290641,-0.4085286,-0.6175866
1747679292.6405776,-0.21849224,0.609533,0.6656051,0.22290641,-0.4085286,-0.6175866
1747679292.641101,-0.21849224,0.609533,0.6656051,0.22290641,-0.4085286,-0.6175866
1747679292.6416516,-0.21849224,0.609533,0.6656051,0.22290641,-0.4085286,-0.6175866
1747679292.6422005,-0.21849224,0.609533,0.6656051,0.22290641,-0.4085286,-0.6175866
1747679292.6428933,-0.15991852,0.58171046,0.6617002,0.11531479,-0.46072653,-0.49188548
1747679292.6435943,-0.15991852,0.58171046,0.6617002,0.11531479,-0.46072653,-0.49188548
1747679292.6449904,-0.15991852,0.58171046,0.6617002,0.11531479,-0.46072653,-0.49188548
1747679292.6455967,-0.15991852,0.58171046,0.6617002,0.11531479,-0.46072653,-0.49188548
1747679292.6461504,-0.15991852,0.58171046,0.6617002,0.11531479,-0.46072653,-0.49188548
1747679292.646687,-0.15991852,0.58171046,0.6617002,0.11531479,-0.46072653,-0.49188548
1747679292.64721,-0.15991852,0.58171046,0.6617002,0.11531479,-0.46072653,-0.49188548
1747679292.6477315,-0.15991852,0.58171046,0.6617002,0.11531479,-0.46072653,-0.49188548
1747679292.6482556,-0.15991852,0.58171046,0.6617002,0.11531479,-0.46072653,-0.49188548
1747679292.648777,-0.15991852,0.58171046,0.6617002,0.11531479,-0.46072653,-0.49188548
1747679292.6493065,-0.15991852,0.58171046,0.6617002,0.11531479,-0.46072653,-0.49188548
1747679292.6498454,-0.15991852,0.58171046,0.6617002,0.11531479,-0.46072653,-0.49188548
1747679292.6503735,-0.15991852,0.58171046,0.6617002,0.11531479,-0.46072653,-0.49188548
1747679292.6510677,-0.15991852,0.58171046,0.6617002,0.042876862,-0.51292443,-0.47058022
1747679292.651617,-0.15991852,0.58171046,0.6617002,0.042876862,-0.51292443,-0.47058022
1747679292.6521459,-0.15991852,0.58171046,0.6617002,0.042876862,-0.51292443,-0.47058022
1747679292.6526754,-0.07596282,0.58512723,0.7383342,0.042876862,-0.51292443,-0.47058022
1747679292.6531997,-0.07596282,0.58512723,0.7383342,0.042876862,-0.51292443,-0.47058022
1747679292.6537275,-0.07596282,0.58512723,0.7383342,0.042876862,-0.51292443,-0.47058022
1747679292.6542602,-0.07596282,0.58512723,0.7383342,0.042876862,-0.51292443,-0.47058022
1747679292.6547842,-0.07596282,0.58512723,0.7383342,0.042876862,-0.51292443,-0.47058022
1747679292.6553056,-0.07596282,0.58512723,0.7383342,0.042876862,-0.51292443,-0.47058022
1747679292.6558275,-0.07596282,0.58512723,0.7383342,0.042876862,-0.51292443,-0.47058022
1747679292.656349,-0.07596282,0.58512723,0.7383342,0.042876862,-0.51292443,-0.47058022
1747679292.656876,-0.07596282,0.58512723,0.7383342,0.042876862,-0.51292443,-0.47058022
1747679292.6574976,-0.07596282,0.58512723,0.7383342,0.042876862,-0.51292443,-0.47058022
1747679292.658096,-0.07596282,0.58512723,0.7383342,0.042876862,-0.51292443,-0.47058022
1747679292.6586518,-0.07596282,0.58512723,0.7383342,0.042876862,-0.51292443,-0.47058022
1747679292.6592116,-0.07596282,0.58512723,0.7383342,0.042876862,-0.51292443,-0.47058022
1747679292.6597414,-0.07596282,0.58512723,0.7383342,0.042876862,-0.51292443,-0.47058022
1747679292.66029,-0.07596282,0.58512723,0.7383342,0.042876862,-0.51292443,-0.47058022
1747679292.6617382,-0.07596282,0.58512723,0.7383342,0.01944106,-0.46179178,-0.4886897
1747679292.6622972,-0.07596282,0.58512723,0.7383342,0.01944106,-0.46179178,-0.4886897
1747679292.6628406,-0.013972278,0.59293705,0.7822645,0.01944106,-0.46179178,-0.4886897
1747679292.6633763,-0.013972278,0.59293705,0.7822645,0.01944106,-0.46179178,-0.4886897
1747679292.6639152,-0.013972278,0.59293705,0.7822645,0.01944106,-0.46179178,-0.4886897
1747679292.664461,-0.013972278,0.59293705,0.7822645,0.01944106,-0.46179178,-0.4886897
1747679292.665013,-0.013972278,0.59293705,0.7822645,0.01944106,-0.46179178,-0.4886897
1747679292.7113035,0.020683851,0.6710354,0.62997276,-0.005060002,-0.31265488,-0.85620564
1747679292.7126222,0.020683851,0.6710354,0.62997276,-0.005060002,-0.31265488,-0.85620564
1747679292.713423,0.020683851,0.6710354,0.62997276,-0.005060002,-0.31265488,-0.85620564
1747679292.7139957,0.044601463,0.6817739,0.6114244,-0.005060002,-0.31265488,-0.85620564
1747679292.7148378,0.044601463,0.6817739,0.6114244,-0.122239,-0.7526088,-0.83809614
1747679292.7154002,0.044601463,0.6817739,0.6114244,-0.122239,-0.7526088,-0.83809614
1747679292.71595,0.044601463,0.6817739,0.6114244,-0.122239,-0.7526088,-0.83809614
1747679292.716484,0.044601463,0.6817739,0.6114244,-0.122239,-0.7526088,-0.83809614
1747679292.717005,0.044601463,0.6817739,0.6114244,-0.122239,-0.7526088,-0.83809614
1747679292.7175243,0.044601463,0.6817739,0.6114244,-0.122239,-0.7526088,-0.83809614
1747679292.7180433,0.044601463,0.6817739,0.6114244,-0.122239,-0.7526088,-0.83809614
1747679292.718562,0.044601463,0.6817739,0.6114244,-0.122239,-0.7526088,-0.83809614
1747679292.7190852,0.044601463,0.6817739,0.6114244,-0.122239,-0.7526088,-0.83809614
1747679292.7237253,0.044601463,0.6817739,0.6114244,-0.122239,-0.7526088,-0.83809614
1747679292.7248664,0.044601463,0.6817739,0.6114244,-0.122239,-0.7526088,-0.83809614
1747679292.725429,0.044601463,0.6817739,0.6114244,-0.122239,-0.7526088,-0.83809614
1747679292.725977,0.044601463,0.6817739,0.6114244,-0.122239,-0.7526088,-0.83809614
1747679292.7265224,0.044601463,0.6817739,0.6114244,-0.122239,-0.7526088,-0.83809614
1747679292.727065,0.17346369,0.6959292,0.63583016,-0.122239,-0.7526088,-0.83809614
1747679292.7276082,0.17346369,0.6959292,0.63583016,-0.22130851,-1.2000195,-0.8519446
1747679292.7281501,0.17346369,0.6959292,0.63583016,-0.22130851,-1.2000195,-0.8519446
1747679292.728691,0.17346369,0.6959292,0.63583016,-0.22130851,-1.2000195,-0.8519446
1747679292.7292275,0.17346369,0.6959292,0.63583016,-0.22130851,-1.2000195,-0.8519446
1747679292.7297623,0.17346369,0.6959292,0.63583016,-0.22130851,-1.2000195,-0.8519446
1747679292.7303002,0.17346369,0.6959292,0.63583016,-0.22130851,-1.2000195,-0.8519446
1747679292.730845,0.17346369,0.6959292,0.63583016,-0.22130851,-1.2000195,-0.8519446
1747679292.7313938,0.17346369,0.6959292,0.63583016,-0.22130851,-1.2000195,-0.8519446
1747679292.7319386,0.17346369,0.6959292,0.63583016,-0.31079066,-1.3811144,-0.91692567
1747679292.7324817,0.21641776,0.7213112,0.6275322,-0.31079066,-1.3811144,-0.91692567
1747679292.7330148,0.21641776,0.7213112,0.6275322,-0.31079066,-1.3811144,-0.91692567
1747679292.7335424,0.21641776,0.7213112,0.6275322,-0.31079066,-1.3811144,-0.91692567
1747679292.7340667,0.21641776,0.7213112,0.6275322,-0.31079066,-1.3811144,-0.91692567
1747679292.7345946,0.21641776,0.7213112,0.6275322,-0.31079066,-1.3811144,-0.91692567
1747679292.73512,0.21641776,0.7213112,0.6275322,-0.31079066,-1.3811144,-0.91692567
1747679292.7362576,0.21641776,0.7213112,0.6275322,-0.31079066,-1.3811144,-0.91692567
1747679292.7411973,0.21641776,0.7213112,0.6275322,-0.31079066,-1.3811144,-0.91692567
1747679292.74177,0.21641776,0.7213112,0.6275322,-0.31079066,-1.3811144,-0.91692567
1747679292.7423453,0.21641776,0.7213112,0.6275322,-0.31079066,-1.3811144,-0.91692567
1747679292.7429035,0.23154932,0.7891591,0.67243874,-0.31079066,-1.3811144,-0.91692567
1747679292.74345,0.23154932,0.7891591,0.67243874,-0.41092545,-1.3065459,-0.9574057
1747679292.7439795,0.23154932,0.7891591,0.67243874,-0.41092545,-1.3065459,-0.9574057
1747679292.7445085,0.23154932,0.7891591,0.67243874,-0.41092545,-1.3065459,-0.9574057
1747679292.7450407,0.23154932,0.7891591,0.67243874,-0.41092545,-1.3065459,-0.9574057
1747679292.7455652,0.23154932,0.7891591,0.67243874,-0.41092545,-1.3065459,-0.9574057
1747679292.7460866,0.23154932,0.7891591,0.67243874,-0.41092545,-1.3065459,-0.9574057
1747679292.746608,0.23154932,0.7891591,0.67243874,-0.41092545,-1.3065459,-0.9574057
1747679292.7471411,0.23154932,0.7891591,0.67243874,-0.41092545,-1.3065459,-0.9574057
1747679292.7476628,0.23154932,0.7891591,0.67243874,-0.41092545,-1.3065459,-0.9574057
1747679292.7481842,0.23154932,0.7891591,0.67243874,-0.41092545,-1.3065459,-0.9574057
1747679292.7487054,0.23154932,0.7891591,0.67243874,-0.41092545,-1.3065459,-0.9574057
1747679292.7492263,0.23154932,0.7891591,0.67243874,-0.41092545,-1.3065459,-0.9574057
1747679292.7497475,0.23154932,0.7891591,0.67243874,-0.41092545,-1.3065459,-0.9574057
1747679292.7502685,0.23154932,0.7891591,0.67243874,-0.41092545,-1.3065459,-0.9574057
1747679292.7507954,0.23154932,0.7891591,0.67243874,-0.41092545,-1.3065459,-0.9574057
1747679292.7519321,0.23154932,0.7891591,0.67243874,-0.41092545,-1.3065459,-0.9574057
1747679292.7531223,0.23154932,0.7891591,0.67243874,-0.41092545,-1.3065459,-0.9574057
1747679292.7537615,0.30427837,0.84919715,0.83644515,-0.41092545,-1.3065459,-0.9574057
1747679292.754308,0.30427837,0.84919715,0.83644515,-0.41092545,-1.3065459,-0.9574057
1747679292.754857,0.30427837,0.84919715,0.83644515,-0.41092545,-1.3065459,-0.9574057
1747679292.7557757,0.30427837,0.84919715,0.83644515,-0.4769718,-0.9592699,-0.9957552
1747679292.7563303,0.30427837,0.84919715,0.83644515,-0.4769718,-0.9592699,-0.9957552
1747679292.7568717,0.30427837,0.84919715,0.83644515,-0.4769718,-0.9592699,-0.9957552
1747679292.757418,0.30427837,0.84919715,0.83644515,-0.4769718,-0.9592699,-0.9957552
1747679292.7579544,0.30427837,0.84919715,0.83644515,-0.4769718,-0.9592699,-0.9957552
1747679292.7584772,0.30427837,0.84919715,0.83644515,-0.4769718,-0.9592699,-0.9957552
1747679292.7589989,0.30427837,0.84919715,0.83644515,-0.4769718,-0.9592699,-0.9957552
1747679292.7600114,0.30427837,0.84919715,0.83644515,-0.4769718,-0.9592699,-0.9957552
1747679292.7605338,0.30427837,0.84919715,0.83644515,-0.4769718,-0.9592699,-0.9957552
1747679292.7610526,0.30427837,0.84919715,0.83644515,-0.4769718,-0.9592699,-0.9957552
1747679292.7615716,0.30427837,0.84919715,0.83644515,-0.4769718,-0.9592699,-0.9957552
1747679292.7620902,0.30427837,0.84919715,0.83644515,-0.4769718,-0.9592699,-0.9957552
1747679292.7626083,0.30427837,0.84919715,0.83644515,-0.4769718,-0.9592699,-0.9957552
1747679292.7631269,0.30427837,0.84919715,0.83644515,-0.4769718,-0.9592699,-0.9957552
1747679292.7636452,0.30427837,0.84919715,0.83644515,-0.4769718,-0.9592699,-0.9957552
1747679292.7641683,0.30427837,0.84919715,0.83644515,-0.4769718,-0.9592699,-0.9957552
1747679292.7647078,0.30427837,0.84919715,0.83644515,-0.4769718,-0.9592699,-0.9957552
1747679292.765231,0.30427837,0.84919715,0.83644515,-0.4769718,-0.9592699,-0.9957552
1747679292.7657547,0.30427837,0.84919715,0.83644515,-0.4769718,-0.9592699,-0.9957552
1747679292.7662814,0.30427837,0.84919715,0.83644515,-0.4769718,-0.9592699,-0.9957552
1747679292.7668185,0.41361603,0.8882464,0.9662837,-0.3949465,-0.652474,-1.1385006
1747679292.7681105,0.41361603,0.8882464,0.9662837,-0.3949465,-0.652474,-1.1385006
1747679292.7686675,0.41361603,0.8882464,0.9662837,-0.3949465,-0.652474,-1.1385006
1747679292.769205,0.41361603,0.8882464,0.9662837,-0.3949465,-0.652474,-1.1385006
1747679292.7697291,0.41361603,0.8882464,0.9662837,-0.3949465,-0.652474,-1.1385006
1747679292.7702487,0.41361603,0.8882464,0.9662837,-0.3949465,-0.652474,-1.1385006
1747679292.7707677,0.41361603,0.8882464,0.9662837,-0.3949465,-0.652474,-1.1385006
1747679292.7713106,0.41361603,0.8882464,0.9662837,-0.3949465,-0.652474,-1.1385006
1747679292.7718296,0.41361603,0.8882464,0.9662837,-0.3949465,-0.652474,-1.1385006
1747679292.7723482,0.41361603,0.8882464,0.9662837,-0.3949465,-0.652474,-1.1385006
1747679292.7728667,0.41361603,0.8882464,0.9662837,-0.3949465,-0.652474,-1.1385006
1747679292.7733903,0.41361603,0.8882464,0.9662837,-0.3949465,-0.652474,-1.1385006
1747679292.7739325,0.4531533,0.9351053,0.97946274,-0.25859275,-0.7046719,-1.3238564
1747679292.7744575,0.4531533,0.9351053,0.97946274,-0.25859275,-0.7046719,-1.3238564
1747679292.774977,0.4531533,0.9351053,0.97946274,-0.25859275,-0.7046719,-1.3238564
1747679292.7754962,0.4531533,0.9351053,0.97946274,-0.25859275,-0.7046719,-1.3238564
1747679292.7760148,0.4531533,0.9351053,0.97946274,-0.25859275,-0.7046719,-1.3238564
1747679292.7765336,0.4531533,0.9351053,0.97946274,-0.25859275,-0.7046719,-1.3238564
1747679292.777052,0.4531533,0.9351053,0.97946274,-0.25859275,-0.7046719,-1.3238564
1747679292.7775705,0.4531533,0.9351053,0.97946274,-0.25859275,-0.7046719,-1.3238564
1747679292.7780888,0.4531533,0.9351053,0.97946274,-0.25859275,-0.7046719,-1.3238564
1747679292.7786071,0.4531533,0.9351053,0.97946274,-0.25859275,-0.7046719,-1.3238564
1747679292.779126,0.4531533,0.9351053,0.97946274,-0.25859275,-0.7046719,-1.3238564
1747679292.7796447,0.4531533,0.9351053,0.97946274,-0.25859275,-0.7046719,-1.3238564
1747679292.7801628,0.4531533,0.9351053,0.97946274,-0.25859275,-0.7046719,-1.3238564
1747679292.780681,0.4531533,0.9351053,0.97946274,-0.25859275,-0.7046719,-1.3238564
1747679292.7811992,0.4531533,0.9351053,0.97946274,-0.25859275,-0.7046719,-1.3238564
1747679292.7817223,0.4531533,0.9351053,0.97946274,-0.25859275,-0.7046719,-1.3238564
1747679292.78545,0.5175844,1.0654318,0.9189365,-0.15845796,-1.0018804,-1.5837808
1747679292.7860146,0.5175844,1.0654318,0.9189365,-0.15845796,-1.0018804,-1.5837808
1747679292.7866762,0.5175844,1.0654318,0.9189365,-0.15845796,-1.0018804,-1.5837808
1747679292.7873006,0.5175844,1.0654318,0.9189365,-0.15845796,-1.0018804,-1.5837808
1747679292.787853,0.5175844,1.0654318,0.9189365,-0.15845796,-1.0018804,-1.5837808
1747679292.7883801,0.5175844,1.0654318,0.9189365,-0.15845796,-1.0018804,-1.5837808
1747679292.7889006,0.5175844,1.0654318,0.9189365,-0.15845796,-1.0018804,-1.5837808
1747679292.7894204,0.5175844,1.0654318,0.9189365,-0.15845796,-1.0018804,-1.5837808
1747679292.789939,0.5175844,1.0654318,0.9189365,-0.15845796,-1.0018804,-1.5837808
1747679292.7904575,0.5175844,1.0654318,0.9189365,-0.15845796,-1.0018804,-1.5837808
1747679292.7909758,0.5175844,1.0654318,0.9189365,-0.15845796,-1.0018804,-1.5837808
1747679292.791494,0.5175844,1.0654318,0.9189365,-0.15845796,-1.0018804,-1.5837808
1747679292.7920122,0.5175844,1.0654318,0.9189365,-0.15845796,-1.0018804,-1.5837808
1747679292.7925308,0.5175844,1.0654318,0.9189365,-0.15845796,-1.0018804,-1.5837808
1747679292.7930536,0.5175844,1.0654318,0.9189365,-0.15845796,-1.0018804,-1.5837808
1747679292.7935796,0.5175844,1.0654318,0.9189365,-0.15845796,-1.0018804,-1.5837808
1747679292.7941093,0.5175844,1.0654318,0.9189365,-0.15845796,-1.0018804,-1.5837808
1747679292.7946362,0.524418,1.1830676,0.9638431,-0.13182637,-1.5110765,-1.900164
1747679292.7951586,0.524418,1.1830676,0.9638431,-0.13182637,-1.5110765,-1.900164
1747679292.7956777,0.524418,1.1830676,0.9638431,-0.13182637,-1.5110765,-1.900164
1747679292.7961967,0.524418,1.1830676,0.9638431,-0.13182637,-1.5110765,-1.900164
1747679292.7967153,0.524418,1.1830676,0.9638431,-0.13182637,-1.5110765,-1.900164
1747679292.7972338,0.524418,1.1830676,0.9638431,-0.13182637,-1.5110765,-1.900164
1747679292.7977705,0.524418,1.1830676,0.9638431,-0.13182637,-1.5110765,-1.900164
1747679292.7994406,0.524418,1.1830676,0.9638431,-0.13182637,-1.5110765,-1.900164
1747679292.7999887,0.524418,1.1830676,0.9638431,-0.13182637,-1.5110765,-1.900164
1747679292.8005223,0.524418,1.1830676,0.9638431,-0.13182637,-1.5110765,-1.900164
1747679292.8010423,0.524418,1.1830676,0.9638431,-0.13182637,-1.5110765,-1.900164
1747679292.8015614,0.524418,1.1830676,0.9638431,-0.13182637,-1.5110765,-1.900164
1747679292.80208,0.524418,1.1830676,0.9638431,-0.13182637,-1.5110765,-1.900164
1747679292.802599,0.524418,1.1830676,0.9638431,-0.13182637,-1.5110765,-1.900164
1747679292.8031273,0.524418,1.1830676,0.9638431,-0.13182637,-1.5110765,-1.900164
1747679292.8036516,0.524418,1.1830676,0.9638431,-0.13182637,-1.5110765,-1.900164
1747679292.8041925,0.524418,1.1830676,0.9638431,-0.13182637,-1.5110765,-1.900164
1747679292.8047206,0.44534346,1.231879,1.0829431,-0.13182637,-1.5110765,-1.900164
1747679292.8052473,0.44534346,1.231879,1.0829431,-0.08815057,-1.8956367,-2.0908463
1747679292.805769,0.44534346,1.231879,1.0829431,-0.08815057,-1.8956367,-2.0908463
1747679292.8062918,0.44534346,1.231879,1.0829431,-0.08815057,-1.8956367,-2.0908463
1747679292.8068128,0.44534346,1.231879,1.0829431,-0.08815057,-1.8956367,-2.0908463
1747679292.807331,0.44534346,1.231879,1.0829431,-0.08815057,-1.8956367,-2.0908463
1747679292.80785,0.44534346,1.231879,1.0829431,-0.08815057,-1.8956367,-2.0908463
1747679292.8083684,0.44534346,1.231879,1.0829431,-0.08815057,-1.8956367,-2.0908463
1747679292.808887,0.44534346,1.231879,1.0829431,-0.08815057,-1.8956367,-2.0908463
1747679292.8094053,0.44534346,1.231879,1.0829431,-0.08815057,-1.8956367,-2.0908463
1747679292.809924,0.44534346,1.231879,1.0829431,-0.08815057,-1.8956367,-2.0908463
1747679292.810442,0.44534346,1.231879,1.0829431,-0.08815057,-1.8956367,-2.0908463
1747679292.81096,0.44534346,1.231879,1.0829431,-0.08815057,-1.8956367,-2.0908463
1747679292.8114789,0.44534346,1.231879,1.0829431,-0.08815057,-1.8956367,-2.0908463
1747679292.8119972,0.44534346,1.231879,1.0829431,-0.08815057,-1.8956367,-2.0908463
1747679292.812583,0.44534346,1.231879,1.0829431,-0.08815057,-1.8956367,-2.0908463
1747679292.813138,0.44534346,1.231879,1.0829431,-0.08815057,-1.8956367,-2.0908463
1747679292.816214,0.13929567,1.3192514,1.466601,0.21118851,-2.919355,-2.3347917
1747679292.8167765,0.13929567,1.3192514,1.466601,0.21118851,-2.919355,-2.3347917
1747679292.817319,0.13929567,1.3192514,1.466601,0.21118851,-2.919355,-2.3347917
1747679292.817857,0.13929567,1.3192514,1.466601,0.21118851,-2.919355,-2.3347917
1747679292.818398,0.13929567,1.3192514,1.466601,0.21118851,-2.919355,-2.3347917
1747679292.8189895,0.13929567,1.3192514,1.466601,0.21118851,-2.919355,-2.3347917
1747679292.819578,0.13929567,1.3192514,1.466601,0.21118851,-2.919355,-2.3347917
1747679292.820138,0.13929567,1.3192514,1.466601,0.21118851,-2.919355,-2.3347917
1747679292.820693,0.13929567,1.3192514,1.466601,0.21118851,-2.919355,-2.3347917
1747679292.8212266,0.13929567,1.3192514,1.466601,0.21118851,-2.919355,-2.3347917
1747679292.8217466,0.13929567,1.3192514,1.466601,0.21118851,-2.919355,-2.3347917
1747679292.8222659,0.13929567,1.3192514,1.466601,0.21118851,-2.919355,-2.3347917
1747679292.8228037,0.13929567,1.3192514,1.466601,0.21118851,-2.919355,-2.3347917
1747679292.8233275,0.13929567,1.3192514,1.466601,0.21118851,-2.919355,-2.3347917
1747679292.8238678,0.13929567,1.3192514,1.466601,0.21118851,-2.919355,-2.3347917
1747679292.8243904,0.13929567,1.3192514,1.466601,0.21118851,-2.919355,-2.3347917
1747679292.8249092,0.13929567,1.3192514,1.466601,0.21118851,-2.919355,-2.3347917
1747679292.8254282,0.13929567,1.3192514,1.466601,0.21118851,-2.919355,-2.3347917
1747679292.8259466,0.13929567,1.3192514,1.466601,0.21118851,-2.919355,-2.3347917
1747679292.8264651,0.13929567,1.3192514,1.466601,0.21118851,-2.919355,-2.3347917
1747679292.8269897,-0.09304683,1.3695272,1.9132258,0.7065361,-4.0080543,-2.405099
1747679292.8275123,-0.09304683,1.3695272,1.9132258,0.7065361,-4.0080543,-2.405099
1747679292.8280456,-0.09304683,1.3695272,1.9132258,0.7065361,-4.0080543,-2.405099
1747679292.8285851,-0.09304683,1.3695272,1.9132258,0.7065361,-4.0080543,-2.405099
1747679292.829956,-0.09304683,1.3695272,1.9132258,0.7065361,-4.0080543,-2.405099
1747679292.8305116,-0.09304683,1.3695272,1.9132258,0.7065361,-4.0080543,-2.405099
1747679292.8310583,-0.09304683,1.3695272,1.9132258,0.7065361,-4.0080543,-2.405099
1747679292.8315928,-0.09304683,1.3695272,1.9132258,0.7065361,-4.0080543,-2.405099
1747679292.832132,-0.28145903,1.4061358,2.5414293,0.7065361,-4.0080543,-2.405099
1747679292.8326712,-0.28145903,1.4061358,2.5414293,0.7065361,-4.0080543,-2.405099
1747679292.8332052,-0.28145903,1.4061358,2.5414293,0.7065361,-4.0080543,-2.405099
1747679292.8337305,-0.28145903,1.4061358,2.5414293,0.7065361,-4.0080543,-2.405099
1747679292.834271,-0.28145903,1.4061358,2.5414293,0.7065361,-4.0080543,-2.405099
1747679292.834794,-0.28145903,1.4061358,2.5414293,0.7065361,-4.0080543,-2.405099
1747679292.8353155,-0.28145903,1.4061358,2.5414293,0.7065361,-4.0080543,-2.405099
1747679292.8358405,-0.28145903,1.4061358,2.5414293,0.7065361,-4.0080543,-2.405099
1747679292.8363626,-0.28145903,1.4061358,2.5414293,0.7065361,-4.0080543,-2.405099
1747679292.8368852,-0.28145903,1.4061358,2.5414293,1.6769913,-5.257609,-2.3465095
1747679292.8374457,-0.28145903,1.4061358,2.5414293,1.6769913,-5.257609,-2.3465095
1747679292.8379657,-0.28145903,1.4061358,2.5414293,1.6769913,-5.257609,-2.3465095
1747679292.8384848,-0.28145903,1.4061358,2.5414293,1.6769913,-5.257609,-2.3465095
1747679292.8390036,-0.28145903,1.4061358,2.5414293,1.6769913,-5.257609,-2.3465095
1747679292.8395221,-0.28145903,1.4061358,2.5414293,1.6769913,-5.257609,-2.3465095
1747679292.8400404,-0.28145903,1.4061358,2.5414293,1.6769913,-5.257609,-2.3465095
1747679292.840559,-0.28145903,1.4061358,2.5414293,1.6769913,-5.257609,-2.3465095
1747679292.8410778,-0.28145903,1.4061358,2.5414293,1.6769913,-5.257609,-2.3465095
1747679292.8416033,-0.28145903,1.4061358,2.5414293,1.6769913,-5.257609,-2.3465095
1747679292.8421268,-0.28145903,1.4061358,2.5414293,1.6769913,-5.257609,-2.3465095
1747679292.8426657,-0.39323723,1.423708,2.8709064,1.6769913,-5.257609,-2.3465095
1747679292.8432488,-0.39323723,1.423708,2.8709064,1.6769913,-5.257609,-2.3465095
1747679292.8438058,-0.39323723,1.423708,2.8709064,1.6769913,-5.257609,-2.3465095
1747679292.844364,-0.39323723,1.423708,2.8709064,2.5142884,-5.7178025,-2.1483705
1747679292.8449216,-0.39323723,1.423708,2.8709064,2.5142884,-5.7178025,-2.1483705
1747679292.8456142,-0.39323723,1.423708,2.8709064,2.5142884,-5.7178025,-2.1483705
1747679292.846169,-0.39323723,1.423708,2.8709064,2.5142884,-5.7178025,-2.1483705
1747679292.8467052,-0.39323723,1.423708,2.8709064,2.5142884,-5.7178025,-2.1483705
1747679292.847228,-0.39323723,1.423708,2.8709064,2.5142884,-5.7178025,-2.1483705
1747679292.8477614,-0.39323723,1.423708,2.8709064,2.5142884,-5.7178025,-2.1483705
1747679292.8482933,-0.39323723,1.423708,2.8709064,2.5142884,-5.7178025,-2.1483705
1747679292.8488238,-0.39323723,1.423708,2.8709064,2.5142884,-5.7178025,-2.1483705
1747679292.8493547,-0.39323723,1.423708,2.8709064,2.5142884,-5.7178025,-2.1483705
1747679292.849879,-0.39323723,1.423708,2.8709064,2.5142884,-5.7178025,-2.1483705
1747679292.8504016,-0.39323723,1.423708,2.8709064,2.5142884,-5.7178025,-2.1483705
1747679292.8509235,-0.39323723,1.423708,2.8709064,2.5142884,-5.7178025,-2.1483705
1747679292.8514447,-0.39323723,1.423708,2.8709064,2.5142884,-5.7178025,-2.1483705
1747679292.8519657,-0.39323723,1.423708,2.8709064,2.5142884,-5.7178025,-2.1483705
1747679292.852487,-0.39323723,1.423708,2.8709064,2.5142884,-5.7178025,-2.1483705
1747679292.8530083,-0.39323723,1.423708,2.8709064,2.5142884,-5.7178025,-2.1483705
1747679292.8535337,-0.39323723,1.423708,2.8709064,2.5142884,-5.7178025,-2.1483705
1747679292.854089,-0.39323723,1.423708,2.8709064,3.8724997,-5.253348,-1.9129472
1747679292.8546326,-0.23899306,1.3426809,2.7234957,3.8724997,-5.253348,-1.9129472
1747679292.8551562,-0.23899306,1.3426809,2.7234957,3.8724997,-5.253348,-1.9129472
1747679292.8556778,-0.23899306,1.3426809,2.7234957,3.8724997,-5.253348,-1.9129472
1747679292.8561993,-0.23899306,1.3426809,2.7234957,3.8724997,-5.253348,-1.9129472
1747679292.856721,-0.23899306,1.3426809,2.7234957,3.8724997,-5.253348,-1.9129472
1747679292.857242,-0.23899306,1.3426809,2.7234957,3.8724997,-5.253348,-1.9129472
1747679292.8577633,-0.23899306,1.3426809,2.7234957,3.8724997,-5.253348,-1.9129472
1747679292.8582847,-0.23899306,1.3426809,2.7234957,3.8724997,-5.253348,-1.9129472
1747679292.858845,-0.23899306,1.3426809,2.7234957,3.8724997,-5.253348,-1.9129472
1747679292.8594062,-0.23899306,1.3426809,2.7234957,3.8724997,-5.253348,-1.9129472
1747679292.8599098,-0.23899306,1.3426809,2.7234957,3.8724997,-5.253348,-1.9129472
1747679292.8604631,-0.23899306,1.3426809,2.7234957,3.8724997,-5.253348,-1.9129472
1747679292.8610508,-0.23899306,1.3426809,2.7234957,3.8724997,-5.253348,-1.9129472
1747679292.861635,0.21641776,1.2987506,2.4140313,4.3401504,-5.1968884,-2.0567577
1747679292.8621705,0.21641776,1.2987506,2.4140313,4.3401504,-5.1968884,-2.0567577
1747679292.8626926,0.21641776,1.2987506,2.4140313,4.3401504,-5.1968884,-2.0567577
1747679292.863212,0.21641776,1.2987506,2.4140313,4.3401504,-5.1968884,-2.0567577
1747679292.863731,0.21641776,1.2987506,2.4140313,4.3401504,-5.1968884,-2.0567577
1747679292.8643043,0.21641776,1.2987506,2.4140313,4.3401504,-5.1968884,-2.0567577
1747679292.8648698,0.21641776,1.2987506,2.4140313,4.3401504,-5.1968884,-2.0567577
1747679292.865393,0.21641776,1.2987506,2.4140313,4.3401504,-5.1968884,-2.0567577
1747679292.8659124,0.21641776,1.2987506,2.4140313,4.3401504,-5.1968884,-2.0567577
1747679292.8664312,0.21641776,1.2987506,2.4140313,4.3401504,-5.1968884,-2.0567577
1747679292.8669498,0.21641776,1.2987506,2.4140313,4.3401504,-5.1968884,-2.0567577
1747679292.8674686,0.21641776,1.2987506,2.4140313,4.3401504,-5.1968884,-2.0567577
1747679292.8679872,0.21641776,1.2987506,2.4140313,4.3401504,-5.1968884,-2.0567577
1747679292.868506,0.21641776,1.2987506,2.4140313,4.3401504,-5.1968884,-2.0567577
1747679292.8690245,0.21641776,1.2987506,2.4140313,4.3401504,-5.1968884,-2.0567577
1747679292.869543,0.21641776,1.2987506,2.4140313,4.3401504,-5.1968884,-2.0567577
1747679292.8700614,0.21641776,1.2987506,2.4140313,4.3401504,-5.1968884,-2.0567577
1747679292.87058,0.21641776,1.2987506,2.4140313,4.3401504,-5.1968884,-2.0567577
1747679292.8711026,0.21641776,1.2987506,2.4140313,4.3401504,-5.1968884,-2.0567577
1747679292.8716242,0.21641776,1.2987506,2.4140313,4.3401504,-5.1968884,-2.0567577
1747679292.8721807,0.5468713,1.6540979,1.8702717,4.1824913,-5.593167,-2.445579
1747679292.8727002,0.5468713,1.6540979,1.8702717,4.1824913,-5.593167,-2.445579
1747679292.8732188,0.5468713,1.6540979,1.8702717,4.1824913,-5.593167,-2.445579
1747679292.8737504,0.5468713,1.6540979,1.8702717,4.1824913,-5.593167,-2.445579
1747679292.8743196,0.5468713,1.6540979,1.8702717,4.1824913,-5.593167,-2.445579
1747679292.8748934,0.5468713,1.6540979,1.8702717,4.1824913,-5.593167,-2.445579
1747679292.8754675,0.5468713,1.6540979,1.8702717,4.1824913,-5.593167,-2.445579
1747679292.8760445,0.5468713,1.6540979,1.8702717,4.1824913,-5.593167,-2.445579
1747679292.8766158,0.5468713,1.6540979,1.8702717,4.1824913,-5.593167,-2.445579
1747679292.8771863,0.5468713,1.6540979,1.8702717,4.1824913,-5.593167,-2.445579
1747679292.8777308,0.5468713,1.6540979,1.8702717,4.1824913,-5.593167,-2.445579
1747679292.878264,0.5468713,1.6540979,1.8702717,4.1824913,-5.593167,-2.445579
1747679292.8787842,0.5468713,1.6540979,1.8702717,4.1824913,-5.593167,-2.445579
1747679292.879303,0.5468713,1.6540979,1.8702717,4.1824913,-5.593167,-2.445579
1747679292.8798268,0.5468713,1.6540979,1.8702717,4.1824913,-5.593167,-2.445579
1747679292.8803961,0.5468713,1.6540979,1.8702717,4.1824913,-5.593167,-2.445579
1747679292.8809605,0.5468713,1.6540979,1.8702717,4.1824913,-5.593167,-2.445579
1747679292.881522,0.5468713,1.6540979,1.8702717,4.1824913,-5.593167,-2.445579
1747679292.882139,0.5468713,1.6540979,1.8702717,4.1824913,-5.593167,-2.445579
1747679292.8827088,0.5468713,1.6540979,1.8702717,4.1824913,-5.593167,-2.445579
1747679292.8832757,0.5468713,1.6540979,1.8702717,4.1824913,-5.593167,-2.445579
1747679292.8838346,0.66353065,1.8674041,1.6144997,3.7744954,-5.8967667,-2.8642275
1747679292.8843863,0.66353065,1.8674041,1.6144997,3.7744954,-5.8967667,-2.8642275
1747679292.8849158,0.66353065,1.8674041,1.6144997,3.7744954,-5.8967667,-2.8642275
1747679292.885439,0.66353065,1.8674041,1.6144997,3.7744954,-5.8967667,-2.8642275
1747679292.8859615,0.66353065,1.8674041,1.6144997,3.7744954,-5.8967667,-2.8642275
1747679292.8864841,0.66353065,1.8674041,1.6144997,3.7744954,-5.8967667,-2.8642275
1747679292.8870068,0.66353065,1.8674041,1.6144997,3.7744954,-5.8967667,-2.8642275
1747679292.887529,0.66353065,1.8674041,1.6144997,3.7744954,-5.8967667,-2.8642275
1747679292.888059,0.66353065,1.8674041,1.6144997,3.7744954,-5.8967667,-2.8642275
1747679292.8885813,0.66353065,1.8674041,1.6144997,3.7744954,-5.8967667,-2.8642275
1747679292.8891246,0.66353065,1.8674041,1.6144997,3.7744954,-5.8967667,-2.8642275
1747679292.889661,0.66353065,1.8674041,1.6144997,3.7744954,-5.8967667,-2.8642275
1747679292.8901863,0.66353065,1.8674041,1.6144997,3.7744954,-5.8967667,-2.8642275
1747679292.8907087,0.66353065,1.8674041,1.6144997,3.7744954,-5.8967667,-2.8642275
1747679292.8912642,0.66353065,1.8674041,1.6144997,3.7744954,-5.8967667,-2.8642275
1747679292.8918486,0.66353065,1.8674041,1.6144997,3.7744954,-5.8967667,-2.8642275
1747679292.8923914,0.66353065,1.8674041,1.6144997,3.7744954,-5.8967667,-2.8642275
1747679292.8929253,0.66353065,1.8674041,1.6144997,3.7744954,-5.8967667,-2.8642275
1747679292.8934457,0.66353065,1.8674041,1.6144997,3.7744954,-5.8967667,-2.8642275
1747679292.894001,0.66353065,1.8674041,1.6144997,3.7744954,-5.8967667,-2.8642275
1747679292.894575,0.66353065,1.8674041,1.6144997,2.6421201,-5.2277813,-3.5758238
1747679292.8951035,0.66353065,1.8674041,1.6144997,2.6421201,-5.2277813,-3.5758238
1747679292.8956246,0.5400377,2.0001712,1.3528703,2.6421201,-5.2277813,-3.5758238
1747679292.896144,0.5400377,2.0001712,1.3528703,2.6421201,-5.2277813,-3.5758238
1747679292.8966627,0.5400377,2.0001712,1.3528703,2.6421201,-5.2277813,-3.5758238
1747679292.8971817,0.5400377,2.0001712,1.3528703,2.6421201,-5.2277813,-3.5758238
1747679292.8977,0.5400377,2.0001712,1.3528703,2.6421201,-5.2277813,-3.5758238
1747679292.8982184,0.5400377,2.0001712,1.3528703,2.6421201,-5.2277813,-3.5758238
1747679292.8987372,0.5400377,2.0001712,1.3528703,2.6421201,-5.2277813,-3.5758238
1747679292.8992558,0.5400377,2.0001712,1.3528703,2.6421201,-5.2277813,-3.5758238
1747679292.8997746,0.5400377,2.0001712,1.3528703,2.6421201,-5.2277813,-3.5758238
1747679292.900293,0.5400377,2.0001712,1.3528703,2.6421201,-5.2277813,-3.5758238
1747679292.9008117,0.5400377,2.0001712,1.3528703,2.6421201,-5.2277813,-3.5758238
1747679292.9013305,0.5400377,2.0001712,1.3528703,2.6421201,-5.2277813,-3.5758238
1747679292.9018488,0.5400377,2.0001712,1.3528703,2.6421201,-5.2277813,-3.5758238
1747679292.9023676,0.5400377,2.0001712,1.3528703,2.6421201,-5.2277813,-3.5758238
1747679292.902886,0.5400377,2.0001712,1.3528703,2.6421201,-5.2277813,-3.5758238
1747679292.9034045,0.5400377,2.0001712,1.3528703,2.6421201,-5.2277813,-3.5758238
1747679292.9039948,0.3857935,2.0187194,1.4587913,2.6421201,-5.2277813,-3.5758238
1747679292.9045548,0.3857935,2.0187194,1.4587913,1.9752651,-4.457596,-3.7164385
1747679292.9051218,0.3857935,2.0187194,1.4587913,1.9752651,-4.457596,-3.7164385
1747679292.9056978,0.3857935,2.0187194,1.4587913,1.9752651,-4.457596,-3.7164385
1747679292.9062471,0.3857935,2.0187194,1.4587913,1.9752651,-4.457596,-3.7164385
1747679292.9067807,0.3857935,2.0187194,1.4587913,1.9752651,-4.457596,-3.7164385
1747679292.9073362,0.3857935,2.0187194,1.4587913,1.9752651,-4.457596,-3.7164385
1747679292.907896,0.3857935,2.0187194,1.4587913,1.9752651,-4.457596,-3.7164385
1747679292.9084673,0.3857935,2.0187194,1.4587913,1.9752651,-4.457596,-3.7164385
1747679292.9089963,0.3857935,2.0187194,1.4587913,1.9752651,-4.457596,-3.7164385
1747679292.9095168,0.3857935,2.0187194,1.4587913,1.9752651,-4.457596,-3.7164385
1747679292.9100354,0.3857935,2.0187194,1.4587913,1.9752651,-4.457596,-3.7164385
1747679292.9105544,0.3857935,2.0187194,1.4587913,1.9752651,-4.457596,-3.7164385
1747679292.9110732,0.3857935,2.0187194,1.4587913,1.9752651,-4.457596,-3.7164385
1747679292.9115922,0.3857935,2.0187194,1.4587913,1.9752651,-4.457596,-3.7164385
1747679292.912111,0.3857935,2.0187194,1.4587913,1.9752651,-4.457596,-3.7164385
1747679292.91263,0.3857935,2.0187194,1.4587913,1.9752651,-4.457596,-3.7164385
1747679292.9131484,0.3857935,2.0187194,1.4587913,1.9752651,-4.457596,-3.7164385
1747679292.9137225,0.3857935,2.0187194,1.4587913,1.9752651,-4.457596,-3.7164385
1747679292.9142773,0.3857935,2.0187194,1.4587913,1.9752651,-4.457596,-3.7164385
1747679292.914802,0.3857935,2.0187194,1.4587913,1.9752651,-4.457596,-3.7164385
1747679292.9153583,0.3857935,2.0187194,1.4587913,1.9752651,-4.457596,-3.7164385
1747679292.91588,0.3857935,2.0187194,1.4587913,0.9270457,-3.0983193,-3.7452006
1747679292.9163997,0.3150169,1.9337876,2.2236667,0.9270457,-3.0983193,-3.7452006
1747679292.916919,0.3150169,1.9337876,2.2236667,0.9270457,-3.0983193,-3.7452006
1747679292.9174383,0.3150169,1.9337876,2.2236667,0.9270457,-3.0983193,-3.7452006
1747679292.9179566,0.3150169,1.9337876,2.2236667,0.9270457,-3.0983193,-3.7452006
1747679292.9184756,0.3150169,1.9337876,2.2236667,0.9270457,-3.0983193,-3.7452006
1747679292.9190261,0.3150169,1.9337876,2.2236667,0.9270457,-3.0983193,-3.7452006
1747679292.91956,0.3150169,1.9337876,2.2236667,0.9270457,-3.0983193,-3.7452006
1747679292.92008,0.3150169,1.9337876,2.2236667,0.9270457,-3.0983193,-3.7452006
1747679292.920599,0.3150169,1.9337876,2.2236667,0.9270457,-3.0983193,-3.7452006
1747679292.921118,0.3150169,1.9337876,2.2236667,0.9270457,-3.0983193,-3.7452006
1747679292.9216366,0.3150169,1.9337876,2.2236667,0.9270457,-3.0983193,-3.7452006
1747679292.9221556,0.3150169,1.9337876,2.2236667,0.9270457,-3.0983193,-3.7452006
1747679292.9226742,0.3150169,1.9337876,2.2236667,0.9270457,-3.0983193,-3.7452006
1747679292.9232259,0.3150169,1.9337876,2.2236667,0.9270457,-3.0983193,-3.7452006
1747679292.9237936,0.3150169,1.9337876,2.2236667,0.9270457,-3.0983193,-3.7452006
1747679292.9243443,0.3150169,1.9337876,2.2236667,0.9270457,-3.0983193,-3.7452006
1747679292.9248827,0.3150169,1.9337876,2.2236667,0.9270457,-3.0983193,-3.7452006
1747679292.9254067,0.5317397,1.5950361,2.7386274,0.9270457,-3.0983193,-3.7452006
1747679292.9259346,0.5317397,1.5950361,2.7386274,0.9270457,-3.0983193,-3.7452006
1747679292.9264655,0.5317397,1.5950361,2.7386274,0.9270457,-3.0983193,-3.7452006
1747679292.9269893,0.5317397,1.5950361,2.7386274,0.9270457,-3.0983193,-3.7452006
1747679292.9275112,0.5317397,1.5950361,2.7386274,0.4721781,-2.4857926,-3.7313523
1747679292.9280303,0.5317397,1.5950361,2.7386274,0.4721781,-2.4857926,-3.7313523
1747679292.928549,0.5317397,1.5950361,2.7386274,0.4721781,-2.4857926,-3.7313523
1747679292.9290679,0.5317397,1.5950361,2.7386274,0.4721781,-2.4857926,-3.7313523
1747679292.9295866,0.5317397,1.5950361,2.7386274,0.4721781,-2.4857926,-3.7313523
1747679292.9301057,0.5317397,1.5950361,2.7386274,0.4721781,-2.4857926,-3.7313523
1747679292.930625,0.5317397,1.5950361,2.7386274,0.4721781,-2.4857926,-3.7313523
1747679292.9311438,0.5317397,1.5950361,2.7386274,0.4721781,-2.4857926,-3.7313523
1747679292.931662,0.5317397,1.5950361,2.7386274,0.4721781,-2.4857926,-3.7313523
1747679292.9321806,0.5317397,1.5950361,2.7386274,0.4721781,-2.4857926,-3.7313523
1747679292.9326994,0.5317397,1.5950361,2.7386274,0.4721781,-2.4857926,-3.7313523
1747679292.9332178,0.5317397,1.5950361,2.7386274,0.4721781,-2.4857926,-3.7313523
1747679292.9337366,0.5317397,1.5950361,2.7386274,0.4721781,-2.4857926,-3.7313523
1747679292.9343486,0.5317397,1.5950361,2.7386274,0.4721781,-2.4857926,-3.7313523
1747679292.934926,0.5317397,1.5950361,2.7386274,0.4721781,-2.4857926,-3.7313523
1747679292.9354732,0.5317397,1.5950361,2.7386274,0.4721781,-2.4857926,-3.7313523
1747679292.9360046,0.5317397,1.5950361,2.7386274,0.4721781,-2.4857926,-3.7313523
1747679292.9365253,0.5317397,1.5950361,2.7386274,0.25912538,-1.626125,-3.8826196
1747679292.937047,0.5317397,1.5950361,2.7386274,0.25912538,-1.626125,-3.8826196
1747679292.9375684,0.8490141,1.1811152,3.08226,0.25912538,-1.626125,-3.8826196
1747679292.9381225,0.8490141,1.1811152,3.08226,0.25912538,-1.626125,-3.8826196
1747679292.9386947,0.8490141,1.1811152,3.08226,0.25912538,-1.626125,-3.8826196
1747679292.9392662,0.8490141,1.1811152,3.08226,0.25912538,-1.626125,-3.8826196
1747679292.9397995,0.8490141,1.1811152,3.08226,0.25912538,-1.626125,-3.8826196
1747679292.94032,0.8490141,1.1811152,3.08226,0.25912538,-1.626125,-3.8826196
1747679292.9408398,0.8490141,1.1811152,3.08226,0.25912538,-1.626125,-3.8826196
1747679292.941359,1.0520698,0.6847026,3.4922762,0.30493173,-0.36591807,-4.3342915
1747679292.9418805,1.0520698,0.6847026,3.4922762,0.30493173,-0.36591807,-4.3342915
1747679292.9424,1.0520698,0.6847026,3.4922762,0.30493173,-0.36591807,-4.3342915
1747679292.942919,1.0520698,0.6847026,3.4922762,0.30493173,-0.36591807,-4.3342915
1747679292.943494,1.0520698,0.6847026,3.4922762,0.30493173,-0.36591807,-4.3342915
1747679292.9440484,1.0520698,0.6847026,3.4922762,0.30493173,-0.36591807,-4.3342915
1747679292.9445765,1.0520698,0.6847026,3.4922762,0.30493173,-0.36591807,-4.3342915
1747679292.9450984,1.0520698,0.6847026,3.4922762,0.30493173,-0.36591807,-4.3342915
1747679292.9456203,1.0520698,0.6847026,3.4922762,0.30493173,-0.36591807,-4.3342915
1747679292.9461417,1.0520698,0.6847026,3.4922762,0.30493173,-0.36591807,-4.3342915
1747679292.946663,1.0520698,0.6847026,3.4922762,0.30493173,-0.36591807,-4.3342915
1747679292.9471843,1.0520698,0.6847026,3.4922762,0.30493173,-0.36591807,-4.3342915
1747679292.9477055,1.0520698,0.6847026,3.4922762,0.30493173,-0.36591807,-4.3342915
1747679292.948227,1.0520698,0.6847026,3.4922762,0.30493173,-0.36591807,-4.3342915
1747679292.9487479,1.0520698,0.6847026,3.4922762,0.30493173,-0.36591807,-4.3342915
1747679292.949269,1.0520698,0.6847026,3.4922762,0.30493173,-0.36591807,-4.3342915
1747679292.9498277,1.0520698,0.6847026,3.4922762,0.30493173,-0.36591807,-4.3342915
1747679292.9503696,1.0520698,0.6847026,3.4922762,0.30493173,-0.36591807,-4.3342915
1747679292.9508932,1.0520698,0.6847026,3.4922762,0.30493173,-0.36591807,-4.3342915
1747679292.9514148,1.0520698,0.6847026,3.4922762,0.30493173,-0.36591807,-4.3342915
1747679292.9519358,1.0520698,0.6847026,3.4922762,0.30493173,-0.36591807,-4.3342915
1747679292.9524572,1.0520698,0.6847026,3.4922762,0.5286371,0.48522758,-4.551605
1747679292.9529796,1.0520698,0.6847026,3.4922762,0.5286371,0.48522758,-4.551605
1747679292.953501,1.0520698,0.6847026,3.4922762,0.5286371,0.48522758,-4.551605
1747679292.9540367,0.8714675,0.31031877,3.6850815,0.5286371,0.48522758,-4.551605
1747679292.9545999,0.8714675,0.31031877,3.6850815,0.5286371,0.48522758,-4.551605
1747679292.9551566,0.8714675,0.31031877,3.6850815,0.5286371,0.48522758,-4.551605
1747679292.9556923,0.8714675,0.31031877,3.6850815,0.5286371,0.48522758,-4.551605
1747679292.9562144,0.8714675,0.31031877,3.6850815,0.5286371,0.48522758,-4.551605
1747679292.956736,0.8714675,0.31031877,3.6850815,0.5286371,0.48522758,-4.551605
1747679292.9572573,0.8714675,0.31031877,3.6850815,0.5286371,0.48522758,-4.551605
1747679292.957779,0.8714675,0.31031877,3.6850815,0.5286371,0.48522758,-4.551605
1747679292.9583004,0.8714675,0.31031877,3.6850815,0.5286371,0.48522758,-4.551605
1747679292.9588225,0.8714675,0.31031877,3.6850815,0.5286371,0.48522758,-4.551605
1747679292.9593472,0.8714675,0.31031877,3.6850815,0.5286371,0.48522758,-4.551605
1747679292.9598553,0.8714675,0.31031877,3.6850815,0.5286371,0.48522758,-4.551605
1747679292.960375,0.8714675,0.31031877,3.6850815,0.5286371,0.48522758,-4.551605
1747679292.9608936,0.8714675,0.31031877,3.6850815,0.5286371,0.48522758,-4.551605
1747679292.9614143,0.8714675,0.31031877,3.6850815,0.5286371,0.48522758,-4.551605
1747679292.9619353,0.8714675,0.31031877,3.6850815,1.2125363,1.763544,-4.450405
1747679292.962456,0.8714675,0.31031877,3.6850815,1.2125363,1.763544,-4.450405
1747679292.962977,0.4492484,-0.17926005,3.7646441,1.2125363,1.763544,-4.450405
1747679292.963496,0.4492484,-0.17926005,3.7646441,1.2125363,1.763544,-4.450405
1747679292.9640148,0.4492484,-0.17926005,3.7646441,1.2125363,1.763544,-4.450405
1747679292.9645593,0.4492484,-0.17926005,3.7646441,1.2125363,1.763544,-4.450405
1747679292.965157,0.4492484,-0.17926005,3.7646441,1.2125363,1.763544,-4.450405
1747679292.9657066,0.4492484,-0.17926005,3.7646441,1.2125363,1.763544,-4.450405
1747679292.9662526,0.4492484,-0.17926005,3.7646441,1.2125363,1.763544,-4.450405
1747679292.9667864,0.4492484,-0.17926005,3.7646441,1.2125363,1.763544,-4.450405
1747679292.9673061,0.4492484,-0.17926005,3.7646441,1.2125363,1.763544,-4.450405
1747679292.9678254,0.4492484,-0.17926005,3.7646441,1.2125363,1.763544,-4.450405
1747679292.968344,0.4492484,-0.17926005,3.7646441,1.2125363,1.763544,-4.450405
1747679292.968863,0.4492484,-0.17926005,3.7646441,1.2125363,1.763544,-4.450405
1747679292.9693818,0.4492484,-0.17926005,3.7646441,1.2125363,1.763544,-4.450405
1747679292.969936,0.4492484,-0.17926005,3.7646441,1.2125363,1.763544,-4.450405
1747679292.9704986,0.4492484,-0.17926005,3.7646441,1.2125363,1.763544,-4.450405
1747679292.971059,0.4492484,-0.17926005,3.7646441,1.2125363,1.763544,-4.450405
1747679292.971604,0.4492484,-0.17926005,3.7646441,1.2125363,1.763544,-4.450405
1747679292.972144,0.4492484,-0.17926005,3.7646441,1.2125363,1.763544,-4.450405
1747679292.9726925,-0.14771566,-0.5526677,3.7153447,1.2125363,1.763544,-4.450405
1747679292.973246,-0.14771566,-0.5526677,3.7153447,2.4546337,2.6945844,-3.8772933
1747679292.9738464,-0.14771566,-0.5526677,3.7153447,2.4546337,2.6945844,-3.8772933
1747679292.9744086,-0.14771566,-0.5526677,3.7153447,2.4546337,2.6945844,-3.8772933
1747679292.9749835,-0.14771566,-0.5526677,3.7153447,2.4546337,2.6945844,-3.8772933
1747679292.9755182,-0.14771566,-0.5526677,3.7153447,2.4546337,2.6945844,-3.8772933
1747679292.9760387,-0.14771566,-0.5526677,3.7153447,2.4546337,2.6945844,-3.8772933
1747679292.9765577,-0.14771566,-0.5526677,3.7153447,2.4546337,2.6945844,-3.8772933
1747679292.9770768,-0.14771566,-0.5526677,3.7153447,2.4546337,2.6945844,-3.8772933
1747679292.9776182,-0.14771566,-0.5526677,3.7153447,2.4546337,2.6945844,-3.8772933
1747679292.978137,-0.14771566,-0.5526677,3.7153447,2.4546337,2.6945844,-3.8772933
1747679292.9786558,-0.14771566,-0.5526677,3.7153447,2.4546337,2.6945844,-3.8772933
1747679292.9791744,-0.14771566,-0.5526677,3.7153447,2.4546337,2.6945844,-3.8772933
1747679292.979711,-0.14771566,-0.5526677,3.7153447,2.4546337,2.6945844,-3.8772933
1747679292.9802446,-0.14771566,-0.5526677,3.7153447,2.4546337,2.6945844,-3.8772933
1747679292.9807649,-0.14771566,-0.5526677,3.7153447,2.4546337,2.6945844,-3.8772933
1747679292.9812837,-0.14771566,-0.5526677,3.7153447,2.4546337,2.6945844,-3.8772933
1747679292.9818022,-0.14771566,-0.5526677,3.7153447,2.4546337,2.6945844,-3.8772933
1747679292.9823208,-0.14771566,-0.5526677,3.7153447,2.4546337,2.6945844,-3.8772933
1747679292.9828403,-0.52649254,-0.6190512,3.415154,2.4546337,2.6945844,-3.8772933
1747679292.9833589,-0.52649254,-0.6190512,3.415154,2.4546337,2.6945844,-3.8772933
1747679292.9838777,-0.52649254,-0.6190512,3.415154,2.4546337,2.6945844,-3.8772933
1747679292.9844139,-0.52649254,-0.6190512,3.415154,2.4546337,2.6945844,-3.8772933
1747679292.9849696,-0.52649254,-0.6190512,3.415154,2.4546337,2.6945844,-3.8772933
1747679292.9855418,-0.52649254,-0.6190512,3.415154,2.4546337,2.6945844,-3.8772933
1747679292.9861035,-0.52649254,-0.6190512,3.415154,2.4546337,2.6945844,-3.8772933
1747679292.9866548,-0.52649254,-0.6190512,3.415154,2.4546337,2.6945844,-3.8772933
1747679292.9871998,-0.52649254,-0.6190512,3.415154,2.4546337,2.6945844,-3.8772933
1747679292.9877405,-0.52649254,-0.6190512,3.415154,4.0045924,2.2514348,-2.9643624
1747679292.9882736,-0.52649254,-0.6190512,3.415154,4.0045924,2.2514348,-2.9643624
1747679292.988794,-0.52649254,-0.6190512,3.415154,4.0045924,2.2514348,-2.9643624
1747679292.9893136,-0.52649254,-0.6190512,3.415154,4.0045924,2.2514348,-2.9643624
1747679292.9898326,-0.52649254,-0.6190512,3.415154,4.0045924,2.2514348,-2.9643624
1747679292.9903517,-0.52649254,-0.6190512,3.415154,4.0045924,2.2514348,-2.9643624
1747679292.9908702,-0.52649254,-0.6190512,3.415154,4.0045924,2.2514348,-2.9643624
1747679292.9913898,-0.52649254,-0.6190512,3.415154,4.0045924,2.2514348,-2.9643624
1747679292.9919114,-0.52649254,-0.6190512,3.415154,4.0045924,2.2514348,-2.9643624
1747679292.9924324,-0.36297414,-0.6200274,2.8733468,5.418197,0.63542974,-2.1004336
1747679292.992952,-0.36297414,-0.6200274,2.8733468,5.418197,0.63542974,-2.1004336
1747679292.9935038,-0.36297414,-0.6200274,2.8733468,5.418197,0.63542974,-2.1004336
1747679292.9940538,-0.36297414,-0.6200274,2.8733468,5.418197,0.63542974,-2.1004336
1747679292.994589,-0.36297414,-0.6200274,2.8733468,5.418197,0.63542974,-2.1004336
1747679292.9952347,-0.36297414,-0.6200274,2.8733468,5.418197,0.63542974,-2.1004336
1747679292.9957879,-0.36297414,-0.6200274,2.8733468,5.418197,0.63542974,-2.1004336
1747679292.9963245,-0.36297414,-0.6200274,2.8733468,5.418197,0.63542974,-2.1004336
1747679292.9968476,-0.36297414,-0.6200274,2.8733468,5.418197,0.63542974,-2.1004336
1747679292.9974005,-0.36297414,-0.6200274,2.8733468,5.418197,0.63542974,-2.1004336
1747679292.9979346,-0.36297414,-0.6200274,2.8733468,5.418197,0.63542974,-2.1004336
1747679292.998455,-0.36297414,-0.6200274,2.8733468,5.418197,0.63542974,-2.1004336
1747679292.9989746,-0.36297414,-0.6200274,2.8733468,5.418197,0.63542974,-2.1004336
1747679292.9994931,-0.36297414,-0.6200274,2.8733468,5.418197,0.63542974,-2.1004336
1747679293.000012,-0.36297414,-0.6200274,2.8733468,5.418197,0.63542974,-2.1004336
1747679293.0005622,-0.36297414,-0.6200274,2.8733468,5.418197,0.63542974,-2.1004336
1747679293.0011158,-0.36297414,-0.6200274,2.8733468,5.418197,0.63542974,-2.1004336
1747679293.0016768,-0.36297414,-0.6200274,2.8733468,5.418197,0.63542974,-2.1004336
1747679293.0022109,-0.36297414,-0.6200274,2.8733468,5.418197,0.63542974,-2.1004336
1747679293.0027306,-0.36297414,-0.6200274,2.8733468,5.418197,0.63542974,-2.1004336
1747679293.0032496,-0.36297414,-0.6200274,2.8733468,5.418197,0.63542974,-2.1004336
1747679293.0037856,-0.36297414,-0.6200274,2.8733468,5.418197,0.63542974,-2.1004336
1747679293.0043373,-0.36297414,-0.6200274,2.8733468,5.418197,0.63542974,-2.1004336
1747679293.004863,-0.36297414,-0.6200274,2.8733468,5.418197,0.63542974,-2.1004336
1747679293.0053823,-0.36297414,-0.6200274,2.8733468,5.418197,0.63542974,-2.1004336
1747679293.0059023,0.1231879,-0.6629815,2.3735178,5.804888,-0.03142528,-1.9033598
1747679293.0064218,0.1231879,-0.6629815,2.3735178,5.804888,-0.03142528,-1.9033598
1747679293.0069425,0.1231879,-0.6629815,2.3735178,5.804888,-0.03142528,-1.9033598
1747679293.0074618,0.1231879,-0.6629815,2.3735178,5.804888,-0.03142528,-1.9033598
1747679293.0079803,0.1231879,-0.6629815,2.3735178,5.804888,-0.03142528,-1.9033598
1747679293.0084987,0.1231879,-0.6629815,2.3735178,5.804888,-0.03142528,-1.9033598
1747679293.0090172,0.1231879,-0.6629815,2.3735178,5.804888,-0.03142528,-1.9033598
1747679293.009536,0.1231879,-0.6629815,2.3735178,5.804888,-0.03142528,-1.9033598
1747679293.0100543,0.1231879,-0.6629815,2.3735178,5.804888,-0.03142528,-1.9033598
1747679293.0106044,0.1231879,-0.6629815,2.3735178,5.804888,-0.03142528,-1.9033598
1747679293.0111592,0.1231879,-0.6629815,2.3735178,5.804888,-0.03142528,-1.9033598
1747679293.0116923,0.1231879,-0.6629815,2.3735178,5.804888,-0.03142528,-1.9033598
1747679293.0122123,0.1231879,-0.6629815,2.3735178,5.804888,-0.03142528,-1.9033598
1747679293.012731,0.1231879,-0.6629815,2.3735178,5.804888,-0.03142528,-1.9033598
1747679293.0132499,0.1231879,-0.6629815,2.3735178,5.804888,-0.03142528,-1.9033598
1747679293.0137682,0.1231879,-0.6629815,2.3735178,5.804888,-0.03142528,-1.9033598
1747679293.0143027,0.1231879,-0.6629815,2.3735178,5.804888,-0.03142528,-1.9033598
1747679293.0148525,0.7596892,-0.7200909,1.7887566,6.0211363,-0.56512237,-2.0407789
1747679293.0153778,0.7596892,-0.7200909,1.7887566,6.0211363,-0.56512237,-2.0407789
1747679293.0159209,0.7596892,-0.7200909,1.7887566,6.0211363,-0.56512237,-2.0407789
1747679293.0164552,0.7596892,-0.7200909,1.7887566,6.0211363,-0.56512237,-2.0407789
1747679293.0170138,0.7596892,-0.7200909,1.7887566,6.0211363,-0.56512237,-2.0407789
1747679293.0175633,0.7596892,-0.7200909,1.7887566,6.0211363,-0.56512237,-2.0407789
1747679293.0180964,0.7596892,-0.7200909,1.7887566,6.0211363,-0.56512237,-2.0407789
1747679293.0186164,0.7596892,-0.7200909,1.7887566,6.0211363,-0.56512237,-2.0407789
1747679293.0191352,0.7596892,-0.7200909,1.7887566,6.0211363,-0.56512237,-2.0407789
1747679293.019654,0.7596892,-0.7200909,1.7887566,6.0211363,-0.56512237,-2.0407789
1747679293.0201733,0.7596892,-0.7200909,1.7887566,6.0211363,-0.56512237,-2.0407789
1747679293.0206926,0.7596892,-0.7200909,1.7887566,6.0211363,-0.56512237,-2.0407789
1747679293.0212114,0.7596892,-0.7200909,1.7887566,6.0211363,-0.56512237,-2.0407789
1747679293.0217304,0.7596892,-0.7200909,1.7887566,6.0211363,-0.56512237,-2.0407789
1747679293.022249,0.7596892,-0.7200909,1.7887566,6.0211363,-0.56512237,-2.0407789
1747679293.0227673,0.7596892,-0.7200909,1.7887566,6.0211363,-0.56512237,-2.0407789
1747679293.023286,0.7596892,-0.7200909,1.7887566,6.0211363,-0.56512237,-2.0407789
1747679293.0238385,0.7596892,-0.7200909,1.7887566,6.0211363,-0.56512237,-2.0407789
1747679293.0243871,0.7596892,-0.7200909,1.7887566,6.0211363,-0.56512237,-2.0407789
1747679293.0249186,0.7596892,-0.7200909,1.7887566,6.0211363,-0.56512237,-2.0407789
1747679293.0255234,0.7596892,-0.7200909,1.7887566,6.0211363,-0.56512237,-2.0407789
1747679293.026073,0.7596892,-0.7200909,1.7887566,6.0211363,-0.56512237,-2.0407789
1747679293.0266073,1.112596,-0.767438,1.2528069,6.0211363,-0.56512237,-2.0407789
1747679293.0272028,1.112596,-0.767438,1.2528069,6.0211363,-0.56512237,-2.0407789
1747679293.0277715,1.112596,-0.767438,1.2528069,6.0211363,-0.56512237,-2.0407789
1747679293.0283053,1.112596,-0.767438,1.2528069,6.0211363,-0.56512237,-2.0407789
1747679293.028825,1.112596,-0.767438,1.2528069,6.0211363,-0.56512237,-2.0407789
1747679293.0293443,1.112596,-0.767438,1.2528069,6.0211363,-0.56512237,-2.0407789
1747679293.029863,1.112596,-0.767438,1.2528069,6.0211363,-0.56512237,-2.0407789
1747679293.0303817,1.112596,-0.767438,1.2528069,6.0211363,-0.56512237,-2.0407789
1747679293.0309002,1.112596,-0.767438,1.2528069,6.0211363,-0.56512237,-2.0407789
1747679293.0314188,1.112596,-0.767438,1.2528069,6.0211363,-0.56512237,-2.0407789
1747679293.0319378,1.112596,-0.767438,1.2528069,6.0211363,-0.56512237,-2.0407789
1747679293.032488,1.112596,-0.767438,1.2528069,6.0211363,-0.56512237,-2.0407789
1747679293.0330355,1.112596,-0.767438,1.2528069,6.0211363,-0.56512237,-2.0407789
1747679293.0335853,1.112596,-0.767438,1.2528069,6.0211363,-0.56512237,-2.0407789
1747679293.034127,1.112596,-0.767438,1.2528069,6.0211363,-0.56512237,-2.0407789
1747679293.0346885,1.112596,-0.767438,1.2528069,6.0211363,-0.56512237,-2.0407789
1747679293.0352185,1.112596,-0.767438,1.2528069,6.0211363,-0.56512237,-2.0407789
1747679293.035739,1.0847734,-0.8889785,0.793003,5.190231,0.33076435,-3.2466574
1747679293.0362587,1.0847734,-0.8889785,0.793003,5.190231,0.33076435,-3.2466574
1747679293.0367777,1.0847734,-0.8889785,0.793003,5.190231,0.33076435,-3.2466574
1747679293.037345,1.0847734,-0.8889785,0.793003,5.190231,0.33076435,-3.2466574
1747679293.0378656,1.0847734,-0.8889785,0.793003,5.190231,0.33076435,-3.2466574
1747679293.0383844,1.0847734,-0.8889785,0.793003,5.190231,0.33076435,-3.2466574
1747679293.038903,1.0847734,-0.8889785,0.793003,5.190231,0.33076435,-3.2466574
1747679293.0394216,1.0847734,-0.8889785,0.793003,5.190231,0.33076435,-3.2466574
1747679293.0399399,1.0847734,-0.8889785,0.793003,5.190231,0.33076435,-3.2466574
1747679293.0404582,1.0847734,-0.8889785,0.793003,5.190231,0.33076435,-3.2466574
1747679293.0410001,1.0847734,-0.8889785,0.793003,5.190231,0.33076435,-3.2466574
1747679293.0415432,1.0847734,-0.8889785,0.793003,5.190231,0.33076435,-3.2466574
1747679293.042065,1.0847734,-0.8889785,0.793003,5.190231,0.33076435,-3.2466574
1747679293.0425832,1.0847734,-0.8889785,0.793003,5.190231,0.33076435,-3.2466574
1747679293.0431023,1.0847734,-0.8889785,0.793003,5.190231,0.33076435,-3.2466574
1747679293.043631,1.0847734,-0.8889785,0.793003,5.190231,0.33076435,-3.2466574
1747679293.0441813,1.0847734,-0.8889785,0.793003,5.190231,0.33076435,-3.2466574
1747679293.0447085,1.0847734,-0.8889785,0.793003,5.190231,0.33076435,-3.2466574
1747679293.0452302,1.0847734,-0.8889785,0.793003,5.190231,0.33076435,-3.2466574
1747679293.0457518,1.0847734,-0.8889785,0.793003,5.190231,0.33076435,-3.2466574
1747679293.046277,1.0847734,-0.8889785,0.793003,5.190231,0.33076435,-3.2466574
1747679293.046826,0.63082695,-0.98172027,0.5631011,4.455199,1.2000195,-3.58115
1747679293.0473623,0.63082695,-0.98172027,0.5631011,4.455199,1.2000195,-3.58115
1747679293.0479214,0.63082695,-0.98172027,0.5631011,4.455199,1.2000195,-3.58115
1747679293.0484655,0.63082695,-0.98172027,0.5631011,4.455199,1.2000195,-3.58115
1747679293.0490015,0.63082695,-0.98172027,0.5631011,4.455199,1.2000195,-3.58115
1747679293.049524,0.63082695,-0.98172027,0.5631011,4.455199,1.2000195,-3.58115
1747679293.0500457,0.63082695,-0.98172027,0.5631011,4.455199,1.2000195,-3.58115
1747679293.0505674,0.63082695,-0.98172027,0.5631011,4.455199,1.2000195,-3.58115
1747679293.0510888,0.63082695,-0.98172027,0.5631011,4.455199,1.2000195,-3.58115
1747679293.0516107,0.63082695,-0.98172027,0.5631011,4.455199,1.2000195,-3.58115
1747679293.0521595,0.63082695,-0.98172027,0.5631011,4.455199,1.2000195,-3.58115
1747679293.052686,0.33014846,-0.98172027,0.50159866,4.0535946,1.8764619,-3.4874067
1747679293.0532084,0.33014846,-0.98172027,0.50159866,4.0535946,1.8764619,-3.4874067
1747679293.0537446,0.33014846,-0.98172027,0.50159866,4.0535946,1.8764619,-3.4874067
1747679293.0542998,0.33014846,-0.98172027,0.50159866,4.0535946,1.8764619,-3.4874067
1747679293.0548275,0.33014846,-0.98172027,0.50159866,4.0535946,1.8764619,-3.4874067
1747679293.0553486,0.33014846,-0.98172027,0.50159866,4.0535946,1.8764619,-3.4874067
1747679293.0559056,0.33014846,-0.98172027,0.50159866,4.0535946,1.8764619,-3.4874067
1747679293.0564845,0.33014846,-0.98172027,0.50159866,4.0535946,1.8764619,-3.4874067
1747679293.0570364,0.33014846,-0.98172027,0.50159866,4.0535946,1.8764619,-3.4874067
1747679293.0575922,0.33014846,-0.98172027,0.50159866,4.0535946,1.8764619,-3.4874067
1747679293.0581415,0.33014846,-0.98172027,0.50159866,4.0535946,1.8764619,-3.4874067
1747679293.0586932,0.33014846,-0.98172027,0.50159866,4.0535946,1.8764619,-3.4874067
1747679293.059219,0.33014846,-0.98172027,0.50159866,4.0535946,1.8764619,-3.4874067
1747679293.0597272,0.33014846,-0.98172027,0.50159866,4.0535946,1.8764619,-3.4874067
1747679293.0602462,0.33014846,-0.98172027,0.50159866,4.0535946,1.8764619,-3.4874067
1747679293.060765,0.33014846,-0.98172027,0.50159866,4.0535946,1.8764619,-3.4874067
1747679293.0612836,0.33014846,-0.98172027,0.50159866,4.0535946,1.8764619,-3.4874067
1747679293.061802,0.33014846,-0.98172027,0.50159866,4.0535946,1.8764619,-3.4874067
1747679293.0623207,0.33014846,-0.98172027,0.50159866,4.0535946,1.8764619,-3.4874067
1747679293.0628397,0.33014846,-0.98172027,0.50159866,3.676491,2.964096,-3.096455
1747679293.0633755,0.33014846,-0.98172027,0.50159866,3.676491,2.964096,-3.096455
1747679293.063946,0.33014846,-0.98172027,0.50159866,3.676491,2.964096,-3.096455
1747679293.0644956,0.33014846,-0.98172027,0.50159866,3.676491,2.964096,-3.096455
1747679293.0650291,0.33014846,-0.98172027,0.50159866,3.676491,2.964096,-3.096455
1747679293.0655491,0.33014846,-0.98172027,0.50159866,3.676491,2.964096,-3.096455
1747679293.0660677,0.33014846,-0.98172027,0.50159866,3.676491,2.964096,-3.096455
1747679293.0665867,0.33014846,-0.98172027,0.50159866,3.676491,2.964096,-3.096455
1747679293.0671062,0.33014846,-0.98172027,0.50159866,3.676491,2.964096,-3.096455
1747679293.0676248,0.33014846,-0.98172027,0.50159866,3.676491,2.964096,-3.096455
1747679293.0681436,0.33014846,-0.98172027,0.50159866,3.676491,2.964096,-3.096455
1747679293.0686626,0.33014846,-0.98172027,0.50159866,3.676491,2.964096,-3.096455
1747679293.0691812,0.33014846,-0.98172027,0.50159866,3.676491,2.964096,-3.096455
1747679293.0696993,0.33014846,-0.98172027,0.50159866,3.676491,2.964096,-3.096455
1747679293.0702176,0.33014846,-0.98172027,0.50159866,3.676491,2.964096,-3.096455
1747679293.0707538,0.33014846,-0.98172027,0.50159866,3.676491,2.964096,-3.096455
1747679293.0712976,0.04362523,-0.9446236,0.3414971,3.5571816,3.60645,-2.805638
1747679293.071822,0.04362523,-0.9446236,0.3414971,3.5571816,3.60645,-2.805638
1747679293.0723414,0.04362523,-0.9446236,0.3414971,3.5571816,3.60645,-2.805638
1747679293.0728617,0.04362523,-0.9446236,0.3414971,3.5571816,3.60645,-2.805638
1747679293.073381,0.04362523,-0.9446236,0.3414971,3.5571816,3.60645,-2.805638
1747679293.0738993,0.04362523,-0.9446236,0.3414971,3.5571816,3.60645,-2.805638
1747679293.074451,0.04362523,-0.9446236,0.3414971,3.5571816,3.60645,-2.805638
1747679293.0750089,0.04362523,-0.9446236,0.3414971,3.5571816,3.60645,-2.805638
1747679293.0755317,0.04362523,-0.9446236,0.3414971,3.5571816,3.60645,-2.805638
1747679293.0760505,0.04362523,-0.9446236,0.3414971,3.5571816,3.60645,-2.805638
1747679293.076569,0.04362523,-0.9446236,0.3414971,3.5571816,3.60645,-2.805638
1747679293.077088,0.04362523,-0.9446236,0.3414971,3.5571816,3.60645,-2.805638
1747679293.077607,0.04362523,-0.9446236,0.3414971,3.5571816,3.60645,-2.805638
1747679293.0781255,0.04362523,-0.9446236,0.3414971,3.5571816,3.60645,-2.805638
1747679293.0786443,0.04362523,-0.9446236,0.3414971,3.5571816,3.60645,-2.805638
1747679293.0791748,0.04362523,-0.9446236,0.3414971,3.5571816,3.60645,-2.805638
1747679293.0797262,0.04362523,-0.9446236,0.3414971,3.5571816,3.60645,-2.805638
1747679293.0802724,0.04362523,-0.9446236,0.3414971,3.5571816,3.60645,-2.805638
1747679293.0808055,0.04362523,-0.9446236,0.3414971,3.5571816,3.60645,-2.805638
1747679293.0813255,0.04362523,-0.9446236,0.3414971,3.5571816,3.60645,-2.805638
1747679293.0818448,0.04362523,-0.9446236,0.3414971,3.5571816,3.60645,-2.805638
1747679293.0823634,0.04362523,-0.9446236,0.3414971,3.5571816,3.60645,-2.805638
1747679293.0828826,0.04362523,-0.9446236,0.3414971,3.5571816,3.60645,-2.805638
1747679293.0834012,0.04362523,-0.9446236,0.3414971,3.5571816,3.60645,-2.805638
1747679293.0839531,0.04362523,-0.9446236,0.3414971,3.5571816,3.60645,-2.805638
1747679293.0845194,-0.068641104,-0.9612195,0.16870458,3.4517205,4.1529303,-2.4519706
1747679293.08505,-0.068641104,-0.9612195,0.16870458,3.4517205,4.1529303,-2.4519706
1747679293.0855699,-0.068641104,-0.9612195,0.16870458,3.4517205,4.1529303,-2.4519706
1747679293.0861495,-0.068641104,-0.9612195,0.16870458,3.4517205,4.1529303,-2.4519706
1747679293.0867143,-0.068641104,-0.9612195,0.16870458,3.4517205,4.1529303,-2.4519706
1747679293.0872622,-0.068641104,-0.9612195,0.16870458,3.4517205,4.1529303,-2.4519706
1747679293.087806,-0.068641104,-0.9612195,0.16870458,3.4517205,4.1529303,-2.4519706
1747679293.0883431,-0.068641104,-0.9612195,0.16870458,3.4517205,4.1529303,-2.4519706
1747679293.0888634,-0.068641104,-0.9612195,0.16870458,3.4517205,4.1529303,-2.4519706
1747679293.0893824,-0.068641104,-0.9612195,0.16870458,3.4517205,4.1529303,-2.4519706
1747679293.0899012,-0.068641104,-0.9612195,0.16870458,3.4517205,4.1529303,-2.4519706
1747679293.0904202,-0.068641104,-0.9612195,0.16870458,3.4517205,4.1529303,-2.4519706
1747679293.0909388,-0.068641104,-0.9612195,0.16870458,3.4517205,4.1529303,-2.4519706
1747679293.0914576,-0.068641104,-0.9612195,0.16870458,3.4517205,4.1529303,-2.4519706
1747679293.0919762,-0.068641104,-0.9612195,0.16870458,3.4517205,4.1529303,-2.4519706
1747679293.0924957,-0.18871726,-0.8225949,0.0066505605,3.4517205,4.1529303,-2.4519706
1747679293.0930164,-0.18871726,-0.8225949,0.0066505605,3.4517205,4.1529303,-2.4519706
1747679293.093537,-0.18871726,-0.8225949,0.0066505605,3.3238888,4.0325556,-1.9672756
1747679293.0940733,-0.18871726,-0.8225949,0.0066505605,3.3238888,4.0325556,-1.9672756
1747679293.0946257,-0.18871726,-0.8225949,0.0066505605,3.3238888,4.0325556,-1.9672756
1747679293.095164,-0.18871726,-0.8225949,0.0066505605,3.3238888,4.0325556,-1.9672756
1747679293.095718,-0.18871726,-0.8225949,0.0066505605,3.3238888,4.0325556,-1.9672756
1747679293.0962667,-0.18871726,-0.8225949,0.0066505605,3.3238888,4.0325556,-1.9672756
1747679293.0968,-0.18871726,-0.8225949,0.0066505605,3.3238888,4.0325556,-1.9672756
1747679293.0973198,-0.18871726,-0.8225949,0.0066505605,3.3238888,4.0325556,-1.9672756
1747679293.097839,-0.18871726,-0.8225949,0.0066505605,3.3238888,4.0325556,-1.9672756
1747679293.0983582,-0.18871726,-0.8225949,0.0066505605,3.3238888,4.0325556,-1.9672756
1747679293.0988774,-0.18871726,-0.8225949,0.0066505605,3.3238888,4.0325556,-1.9672756
1747679293.0993965,-0.18871726,-0.8225949,0.0066505605,3.3238888,4.0325556,-1.9672756
1747679293.0999148,-0.18871726,-0.8225949,0.0066505605,3.3238888,4.0325556,-1.9672756
1747679293.1004333,-0.18871726,-0.8225949,0.0066505605,3.3238888,4.0325556,-1.9672756
1747679293.1009555,-0.18871726,-0.8225949,0.0066505605,3.3238888,4.0325556,-1.9672756
1747679293.1014993,-0.18871726,-0.8225949,0.0066505605,3.3238888,4.0325556,-1.9672756
1747679293.102044,-0.18871726,-0.8225949,0.0066505605,3.3238888,4.0325556,-1.9672756
1747679293.1025786,-0.18871726,-0.8225949,0.0066505605,3.3238888,4.0325556,-1.9672756
1747679293.1031024,-0.31904384,-0.7313175,-0.07388833,3.3238888,4.0325556,-1.9672756
1747679293.103622,-0.31904384,-0.7313175,-0.07388833,3.3238888,4.0325556,-1.9672756
1747679293.1041572,-0.31904384,-0.7313175,-0.07388833,3.2866046,3.5084457,-1.665806
1747679293.1046972,-0.31904384,-0.7313175,-0.07388833,3.2866046,3.5084457,-1.665806
1747679293.1052427,-0.31904384,-0.7313175,-0.07388833,3.2866046,3.5084457,-1.665806
1747679293.1057618,-0.31904384,-0.7313175,-0.07388833,3.2866046,3.5084457,-1.665806
1747679293.1062808,-0.31904384,-0.7313175,-0.07388833,3.2866046,3.5084457,-1.665806
1747679293.1067994,-0.31904384,-0.7313175,-0.07388833,3.2866046,3.5084457,-1.665806
1747679293.1073182,-0.31904384,-0.7313175,-0.07388833,3.2866046,3.5084457,-1.665806
1747679293.1078372,-0.31904384,-0.7313175,-0.07388833,3.2866046,3.5084457,-1.665806
1747679293.1083558,-0.31904384,-0.7313175,-0.07388833,3.2866046,3.5084457,-1.665806
1747679293.1088746,-0.31904384,-0.7313175,-0.07388833,3.2866046,3.5084457,-1.665806
1747679293.1093931,-0.31904384,-0.7313175,-0.07388833,3.2866046,3.5084457,-1.665806
1747679293.1099408,-0.31904384,-0.7313175,-0.07388833,3.2866046,3.5084457,-1.665806
1747679293.1104958,-0.31904384,-0.7313175,-0.07388833,3.2866046,3.5084457,-1.665806
1747679293.1110597,-0.31904384,-0.7313175,-0.07388833,3.2866046,3.5084457,-1.665806
1747679293.1115937,-0.31904384,-0.7313175,-0.07388833,3.2866046,3.5084457,-1.665806
1747679293.1121187,-0.31904384,-0.7313175,-0.07388833,3.2866046,3.5084457,-1.665806
1747679293.1126382,-0.31904384,-0.7313175,-0.07388833,3.2866046,3.5084457,-1.665806
1747679293.113157,-0.31904384,-0.7313175,-0.07388833,3.2866046,3.5084457,-1.665806
1747679293.113709,-0.6084957,-0.73571056,-0.3560185,3.1726215,2.442117,-1.1129342
1747679293.1142669,-0.6084957,-0.73571056,-0.3560185,3.1726215,2.442117,-1.1129342
1747679293.1147897,-0.6084957,-0.73571056,-0.3560185,3.1726215,2.442117,-1.1129342
1747679293.1153092,-0.6084957,-0.73571056,-0.3560185,3.1726215,2.442117,-1.1129342
1747679293.1158285,-0.6084957,-0.73571056,-0.3560185,3.1726215,2.442117,-1.1129342
1747679293.1163638,-0.6084957,-0.73571056,-0.3560185,3.1726215,2.442117,-1.1129342
1747679293.1169229,-0.6084957,-0.73571056,-0.3560185,3.1726215,2.442117,-1.1129342
1747679293.1174626,-0.6084957,-0.73571056,-0.3560185,3.1726215,2.442117,-1.1129342
1747679293.1180117,-0.6084957,-0.73571056,-0.3560185,3.1726215,2.442117,-1.1129342
1747679293.1185546,-0.6084957,-0.73571056,-0.3560185,3.1726215,2.442117,-1.1129342
1747679293.1190886,-0.6084957,-0.73571056,-0.3560185,3.1726215,2.442117,-1.1129342
1747679293.1196086,-0.6084957,-0.73571056,-0.3560185,3.1726215,2.442117,-1.1129342
1747679293.120128,-0.6084957,-0.73571056,-0.3560185,3.1726215,2.442117,-1.1129342
1747679293.1206472,-0.6084957,-0.73571056,-0.3560185,3.1726215,2.442117,-1.1129342
1747679293.121169,-0.6084957,-0.73571056,-0.3560185,3.1726215,2.442117,-1.1129342
1747679293.1216905,-0.6084957,-0.73571056,-0.3560185,3.1726215,2.442117,-1.1129342
1747679293.1222098,-0.6084957,-0.73571056,-0.3560185,3.1726215,2.442117,-1.1129342
1747679293.1227279,-0.6084957,-0.73571056,-0.3560185,3.1726215,2.442117,-1.1129342
1747679293.1232464,-0.6084957,-0.73571056,-0.3560185,3.1726215,2.442117,-1.1129342
1747679293.1237721,-0.6084957,-0.73571056,-0.3560185,3.1726215,2.442117,-1.1129342
1747679293.1243129,-0.6084957,-0.73571056,-0.3560185,3.1726215,2.442117,-1.1129342
1747679293.1248348,-0.67292684,-0.6971495,-0.4565701,3.0405288,2.0117505,-0.7305045
1747679293.125354,-0.67292684,-0.6971495,-0.4565701,3.0405288,2.0117505,-0.7305045
1747679293.1258893,-0.67292684,-0.6971495,-0.4565701,3.0405288,2.0117505,-0.7305045
1747679293.1264462,-0.67292684,-0.6971495,-0.4565701,3.0405288,2.0117505,-0.7305045
1747679293.1270072,-0.67292684,-0.6971495,-0.4565701,3.0405288,2.0117505,-0.7305045
1747679293.127562,-0.67292684,-0.6971495,-0.4565701,3.0405288,2.0117505,-0.7305045
1747679293.1280954,-0.67292684,-0.6971495,-0.4565701,3.0405288,2.0117505,-0.7305045
1747679293.1286154,-0.67292684,-0.6971495,-0.4565701,3.0405288,2.0117505,-0.7305045
1747679293.1291347,-0.67292684,-0.6971495,-0.4565701,3.0405288,2.0117505,-0.7305045
1747679293.129654,-0.67292684,-0.6971495,-0.4565701,3.0405288,2.0117505,-0.7305045
1747679293.130173,-0.67292684,-0.6971495,-0.4565701,3.0405288,2.0117505,-0.7305045
1747679293.1306918,-0.67292684,-0.6971495,-0.4565701,3.0405288,2.0117505,-0.7305045
1747679293.1312106,-0.67292684,-0.6971495,-0.4565701,3.0405288,2.0117505,-0.7305045
1747679293.131775,-0.67292684,-0.6971495,-0.4565701,3.0405288,2.0117505,-0.7305045
1747679293.1323266,-0.67292684,-0.6971495,-0.4565701,3.0405288,2.0117505,-0.7305045
1747679293.132852,-0.67292684,-0.6971495,-0.4565701,3.0405288,2.0117505,-0.7305045
1747679293.1333716,-0.67292684,-0.6971495,-0.4565701,3.0405288,2.0117505,-0.7305045
1747679293.133905,-0.67292684,-0.6971495,-0.4565701,3.0405288,2.0117505,-0.7305045
1747679293.1344447,-0.67292684,-0.6971495,-0.4565701,3.0405288,2.0117505,-0.7305045
1747679293.1349664,-0.67292684,-0.6971495,-0.4565701,3.0405288,2.0117505,-0.7305045
1747679293.1354856,-0.63973504,-0.53948855,-0.7186876,2.665556,1.3928322,-0.03914844
1747679293.1360052,-0.63973504,-0.53948855,-0.7186876,2.665556,1.3928322,-0.03914844
1747679293.1365242,-0.63973504,-0.53948855,-0.7186876,2.665556,1.3928322,-0.03914844
1747679293.137043,-0.63973504,-0.53948855,-0.7186876,2.665556,1.3928322,-0.03914844
1747679293.1375616,-0.63973504,-0.53948855,-0.7186876,2.665556,1.3928322,-0.03914844
1747679293.1380804,-0.63973504,-0.53948855,-0.7186876,2.665556,1.3928322,-0.03914844
1747679293.1385987,-0.63973504,-0.53948855,-0.7186876,2.665556,1.3928322,-0.03914844
1747679293.1391172,-0.63973504,-0.53948855,-0.7186876,2.665556,1.3928322,-0.03914844
1747679293.139636,-0.63973504,-0.53948855,-0.7186876,2.665556,1.3928322,-0.03914844
1747679293.1401544,-0.63973504,-0.53948855,-0.7186876,2.665556,1.3928322,-0.03914844
1747679293.140673,-0.63973504,-0.53948855,-0.7186876,2.665556,1.3928322,-0.03914844
1747679293.1412222,-0.63973504,-0.53948855,-0.7186876,2.665556,1.3928322,-0.03914844
1747679293.1417758,-0.63973504,-0.53948855,-0.7186876,2.665556,1.3928322,-0.03914844
1747679293.1423247,-0.63973504,-0.53948855,-0.7186876,2.665556,1.3928322,-0.03914844
1747679293.1428614,-0.63973504,-0.53948855,-0.7186876,2.665556,1.3928322,-0.03914844
1747679293.143385,-0.63973504,-0.53948855,-0.7186876,2.665556,1.3928322,-0.03914844
1747679293.143923,-0.63973504,-0.53948855,-0.7186876,2.665556,1.3928322,-0.03914844
1747679293.144459,-0.63973504,-0.53948855,-0.7186876,2.665556,1.3928322,-0.03914844
1747679293.1449974,-0.63973504,-0.53948855,-0.7186876,2.665556,1.3928322,-0.03914844
1747679293.1455383,-0.63973504,-0.53948855,-0.7186876,2.665556,1.3928322,-0.03914844
1747679293.1460695,-0.42301223,-0.36669603,-0.9393153,2.665556,1.3928322,-0.03914844
1747679293.1465983,-0.42301223,-0.36669603,-0.9393153,2.665556,1.3928322,-0.03914844
1747679293.1471612,-0.42301223,-0.36669603,-0.9393153,2.0743346,1.3342427,0.41039282
1747679293.1477115,-0.42301223,-0.36669603,-0.9393153,2.0743346,1.3342427,0.41039282
1747679293.1482441,-0.42301223,-0.36669603,-0.9393153,2.0743346,1.3342427,0.41039282
1747679293.1487708,-0.42301223,-0.36669603,-0.9393153,2.0743346,1.3342427,0.41039282
1747679293.1493692,-0.42301223,-0.36669603,-0.9393153,2.0743346,1.3342427,0.41039282
1747679293.1499295,-0.42301223,-0.36669603,-0.9393153,2.0743346,1.3342427,0.41039282
1747679293.1504567,-0.42301223,-0.36669603,-0.9393153,2.0743346,1.3342427,0.41039282
1747679293.1509783,-0.42301223,-0.36669603,-0.9393153,2.0743346,1.3342427,0.41039282
1747679293.1514997,-0.42301223,-0.36669603,-0.9393153,2.0743346,1.3342427,0.41039282
1747679293.1520271,-0.06620053,-0.24564363,-0.997401,1.2956269,2.1896493,0.6831003
1747679293.152552,-0.06620053,-0.24564363,-0.997401,1.2956269,2.1896493,0.6831003
1747679293.153074,-0.06620053,-0.24564363,-0.997401,1.2956269,2.1896493,0.6831003
1747679293.1536129,-0.06620053,-0.24564363,-0.997401,1.2956269,2.1896493,0.6831003
1747679293.154156,-0.06620053,-0.24564363,-0.997401,1.2956269,2.1896493,0.6831003
1747679293.15468,-0.06620053,-0.24564363,-0.997401,1.2956269,2.1896493,0.6831003
1747679293.1552012,-0.06620053,-0.24564363,-0.997401,1.2956269,2.1896493,0.6831003
1747679293.155723,-0.06620053,-0.24564363,-0.997401,1.2956269,2.1896493,0.6831003
1747679293.1562445,-0.06620053,-0.24564363,-0.997401,1.2956269,2.1896493,0.6831003
1747679293.156776,-0.06620053,-0.24564363,-0.997401,1.2956269,2.1896493,0.6831003
1747679293.1573315,-0.06620053,-0.24564363,-0.997401,1.2956269,2.1896493,0.6831003
1747679293.157888,-0.06620053,-0.24564363,-0.997401,1.2956269,2.1896493,0.6831003
1747679293.1584406,-0.06620053,-0.24564363,-0.997401,1.2956269,2.1896493,0.6831003
1747679293.158969,-0.06620053,-0.24564363,-0.997401,1.2956269,2.1896493,0.6831003
1747679293.1599808,-0.06620053,-0.24564363,-0.997401,1.2956269,2.1896493,0.6831003
1747679293.1605074,-0.06620053,-0.24564363,-0.997401,1.2956269,2.1896493,0.6831003
1747679293.1610541,-0.06620053,-0.24564363,-0.997401,1.2956269,2.1896493,0.6831003
1747679293.1616197,-0.06620053,-0.24564363,-0.997401,1.2956269,2.1896493,0.6831003
1747679293.162159,0.17541614,-0.20903502,-0.89928997,1.2956269,2.1896493,0.6831003
1747679293.1627233,0.17541614,-0.20903502,-0.89928997,0.6127929,3.453052,0.78962666
1747679293.1632688,0.17541614,-0.20903502,-0.89928997,0.6127929,3.453052,0.78962666
1747679293.1638134,0.17541614,-0.20903502,-0.89928997,0.6127929,3.453052,0.78962666
1747679293.1643543,0.17541614,-0.20903502,-0.89928997,0.6127929,3.453052,0.78962666
1747679293.1648757,0.17541614,-0.20903502,-0.89928997,0.6127929,3.453052,0.78962666
1747679293.1653953,0.17541614,-0.20903502,-0.89928997,0.6127929,3.453052,0.78962666
1747679293.1659136,0.17541614,-0.20903502,-0.89928997,0.6127929,3.453052,0.78962666
1747679293.1664326,0.17541614,-0.20903502,-0.89928997,0.6127929,3.453052,0.78962666
1747679293.166951,0.17541614,-0.20903502,-0.89928997,0.6127929,3.453052,0.78962666
1747679293.1674695,0.17541614,-0.20903502,-0.89928997,0.6127929,3.453052,0.78962666
1747679293.1679878,0.17541614,-0.20903502,-0.89928997,0.6127929,3.453052,0.78962666
1747679293.1685061,0.17541614,-0.20903502,-0.89928997,0.6127929,3.453052,0.78962666
1747679293.1690242,0.17541614,-0.20903502,-0.89928997,0.6127929,3.453052,0.78962666
1747679293.169543,0.17541614,-0.20903502,-0.89928997,0.6127929,3.453052,0.78962666
1747679293.170061,0.17541614,-0.20903502,-0.89928997,0.6127929,3.453052,0.78962666
1747679293.1705797,0.17541614,-0.20903502,-0.89928997,0.6127929,3.453052,0.78962666
1747679293.171098,0.17541614,-0.20903502,-0.89928997,0.6127929,3.453052,0.78962666
1747679293.1716168,0.17541614,-0.20903502,-0.89928997,0.6127929,3.453052,0.78962666
1747679293.172135,0.17541614,-0.20903502,-0.89928997,0.6127929,3.453052,0.78962666
1747679293.1726685,0.17541614,-0.20903502,-0.89928997,0.6127929,3.453052,0.78962666
1747679293.1732316,0.17541614,-0.20903502,-0.89928997,0.6127929,3.453052,0.78962666
1747679293.173782,0.17541614,-0.20903502,-0.89928997,0.6127929,3.453052,0.78962666
1747679293.1743398,0.2725509,-0.106530994,-0.716247,0.16964324,4.358526,0.80773616
1747679293.1749012,0.2725509,-0.106530994,-0.716247,0.16964324,4.358526,0.80773616
1747679293.1754506,0.2725509,-0.106530994,-0.716247,0.16964324,4.358526,0.80773616
1747679293.1759913,0.2725509,-0.106530994,-0.716247,0.16964324,4.358526,0.80773616
1747679293.1765316,0.2725509,-0.106530994,-0.716247,0.16964324,4.358526,0.80773616
1747679293.1770713,0.2725509,-0.106530994,-0.716247,0.16964324,4.358526,0.80773616
1747679293.177792,0.2725509,-0.106530994,-0.716247,0.16964324,4.358526,0.80773616
1747679293.178352,0.2725509,-0.106530994,-0.716247,0.16964324,4.358526,0.80773616
1747679293.1788929,0.2725509,-0.106530994,-0.716247,0.16964324,4.358526,0.80773616
1747679293.1794276,0.2725509,-0.106530994,-0.716247,0.16964324,4.358526,0.80773616
1747679293.1800282,0.2725509,-0.106530994,-0.716247,0.16964324,4.358526,0.80773616
1747679293.1805797,0.2725509,-0.106530994,-0.716247,0.16964324,4.358526,0.80773616
1747679293.1811168,0.2725509,-0.106530994,-0.716247,0.16964324,4.358526,0.80773616
1747679293.1816404,0.2725509,-0.106530994,-0.716247,0.16964324,4.358526,0.80773616
1747679293.1821802,0.2725509,-0.106530994,-0.716247,0.20799273,4.3990064,0.8769783
1747679293.182715,0.24912143,0.07797629,-0.456082,0.20799273,4.3990064,0.8769783
1747679293.1832402,0.24912143,0.07797629,-0.456082,0.20799273,4.3990064,0.8769783
1747679293.1837869,0.24912143,0.07797629,-0.456082,0.20799273,4.3990064,0.8769783
1747679293.1843266,0.24912143,0.07797629,-0.456082,0.20799273,4.3990064,0.8769783
1747679293.1848483,0.24912143,0.07797629,-0.456082,0.20799273,4.3990064,0.8769783
1747679293.1853676,0.24912143,0.07797629,-0.456082,0.20799273,4.3990064,0.8769783
1747679293.1858861,0.24912143,0.07797629,-0.456082,0.20799273,4.3990064,0.8769783
1747679293.186405,0.24912143,0.07797629,-0.456082,0.20799273,4.3990064,0.8769783
1747679293.1869233,0.24912143,0.07797629,-0.456082,0.20799273,4.3990064,0.8769783
1747679293.1874418,0.24912143,0.07797629,-0.456082,0.20799273,4.3990064,0.8769783
1747679293.1879833,0.24912143,0.07797629,-0.456082,0.20799273,4.3990064,0.8769783
1747679293.188547,0.24912143,0.07797629,-0.456082,0.20799273,4.3990064,0.8769783
1747679293.189106,0.24912143,0.07797629,-0.456082,0.20799273,4.3990064,0.8769783
1747679293.1896565,0.24912143,0.07797629,-0.456082,0.20799273,4.3990064,0.8769783
1747679293.19019,0.24912143,0.07797629,-0.456082,0.20799273,4.3990064,0.8769783
1747679293.19071,0.24912143,0.07797629,-0.456082,0.20799273,4.3990064,0.8769783
1747679293.1912296,0.24912143,0.07797629,-0.456082,0.20799273,4.3990064,0.8769783
1747679293.1917486,0.24912143,0.07797629,-0.456082,0.20799273,4.3990064,0.8769783
1747679293.1922717,0.42191395,0.23905408,-0.062173583,0.20799273,4.3990064,0.8769783
1747679293.1928148,0.42191395,0.23905408,-0.062173583,0.9089362,3.735347,1.0868353
1747679293.193361,0.42191395,0.23905408,-0.062173583,0.9089362,3.735347,1.0868353
1747679293.19392,0.42191395,0.23905408,-0.062173583,0.9089362,3.735347,1.0868353
1747679293.1944766,0.42191395,0.23905408,-0.062173583,0.9089362,3.735347,1.0868353
1747679293.1949997,0.42191395,0.23905408,-0.062173583,0.9089362,3.735347,1.0868353
1747679293.195519,0.42191395,0.23905408,-0.062173583,0.9089362,3.735347,1.0868353
1747679293.1960382,0.42191395,0.23905408,-0.062173583,0.9089362,3.735347,1.0868353
1747679293.196557,0.42191395,0.23905408,-0.062173583,0.9089362,3.735347,1.0868353
1747679293.197076,0.42191395,0.23905408,-0.062173583,0.9089362,3.735347,1.0868353
1747679293.1975946,0.42191395,0.23905408,-0.062173583,0.9089362,3.735347,1.0868353
1747679293.198113,0.42191395,0.23905408,-0.062173583,0.9089362,3.735347,1.0868353
1747679293.198632,0.42191395,0.23905408,-0.062173583,0.9089362,3.735347,1.0868353
1747679293.1991503,0.42191395,0.23905408,-0.062173583,0.9089362,3.735347,1.0868353
1747679293.199669,0.42191395,0.23905408,-0.062173583,0.9089362,3.735347,1.0868353
1747679293.2001874,0.42191395,0.23905408,-0.062173583,0.9089362,3.735347,1.0868353
1747679293.200706,0.42191395,0.23905408,-0.062173583,0.9089362,3.735347,1.0868353
1747679293.2012248,0.42191395,0.23905408,-0.062173583,0.9089362,3.735347,1.0868353
1747679293.2017434,0.42191395,0.23905408,-0.062173583,0.9089362,3.735347,1.0868353
1747679293.202262,0.42191395,0.23905408,-0.062173583,0.9089362,3.735347,1.0868353
1747679293.2027805,0.42191395,0.23905408,-0.062173583,0.9089362,3.735347,1.0868353
1747679293.2033057,0.42191395,0.23905408,-0.062173583,0.9089362,3.735347,1.0868353
1747679293.2038639,0.42191395,0.23905408,-0.062173583,1.8165408,2.6818013,1.1326416
1747679293.204426,0.42191395,0.23905408,-0.062173583,1.8165408,2.6818013,1.1326416
1747679293.2049701,0.42191395,0.23905408,-0.062173583,1.8165408,2.6818013,1.1326416
1747679293.2054994,0.6698761,0.41038227,0.018853422,1.8165408,2.6818013,1.1326416
1747679293.2060192,0.6698761,0.41038227,0.018853422,1.8165408,2.6818013,1.1326416
1747679293.206538,0.6698761,0.41038227,0.018853422,1.8165408,2.6818013,1.1326416
1747679293.207057,0.6698761,0.41038227,0.018853422,1.8165408,2.6818013,1.1326416
1747679293.2075758,0.6698761,0.41038227,0.018853422,1.8165408,2.6818013,1.1326416
1747679293.2081804,0.6698761,0.41038227,0.018853422,1.8165408,2.6818013,1.1326416
1747679293.2087355,0.6698761,0.41038227,0.018853422,1.8165408,2.6818013,1.1326416
1747679293.2092648,0.6698761,0.41038227,0.018853422,1.8165408,2.6818013,1.1326416
1747679293.2097876,0.6698761,0.41038227,0.018853422,1.8165408,2.6818013,1.1326416
1747679293.211228,0.6698761,0.41038227,0.018853422,1.8165408,2.6818013,1.1326416
1747679293.2117813,0.6698761,0.41038227,0.018853422,1.8165408,2.6818013,1.1326416
1747679293.212315,0.6698761,0.41038227,0.018853422,1.8165408,2.6818013,1.1326416
1747679293.2128377,0.6698761,0.41038227,0.018853422,1.8165408,2.6818013,1.1326416
1747679293.2133586,1.0169256,0.5392445,-0.4419267,3.3995225,0.4053328,0.94515514
1747679293.213911,1.0169256,0.5392445,-0.4419267,3.3995225,0.4053328,0.94515514
1747679293.2144709,1.0169256,0.5392445,-0.4419267,3.3995225,0.4053328,0.94515514
1747679293.2150009,1.0169256,0.5392445,-0.4419267,3.3995225,0.4053328,0.94515514
1747679293.2155206,1.0169256,0.5392445,-0.4419267,3.3995225,0.4053328,0.94515514
1747679293.2160397,1.0169256,0.5392445,-0.4419267,3.3995225,0.4053328,0.94515514
1747679293.2165587,1.0169256,0.5392445,-0.4419267,3.3995225,0.4053328,0.94515514
1747679293.217077,1.0169256,0.5392445,-0.4419267,3.3995225,0.4053328,0.94515514
1747679293.2175958,1.0169256,0.5392445,-0.4419267,3.3995225,0.4053328,0.94515514
1747679293.2181146,1.0169256,0.5392445,-0.4419267,3.3995225,0.4053328,0.94515514
1747679293.218633,1.0169256,0.5392445,-0.4419267,3.3995225,0.4053328,0.94515514
1747679293.2191515,1.0169256,0.5392445,-0.4419267,3.3995225,0.4053328,0.94515514
1747679293.2197251,1.0169256,0.5392445,-0.4419267,3.3995225,0.4053328,0.94515514
1747679293.2202828,1.0169256,0.5392445,-0.4419267,3.3995225,0.4053328,0.94515514
1747679293.220842,1.0169256,0.5392445,-0.4419267,3.3995225,0.4053328,0.94515514
1747679293.2213826,1.0169256,0.5392445,-0.4419267,3.3995225,0.4053328,0.94515514
1747679293.221938,1.0169256,0.5392445,-0.4419267,3.3995225,0.4053328,0.94515514
1747679293.2224722,1.0169256,0.5392445,-0.4419267,3.3995225,0.4053328,0.94515514
1747679293.2229927,1.0169256,0.5392445,-0.4419267,3.3995225,0.4053328,0.94515514
1747679293.223537,1.0169256,0.5392445,-0.4419267,3.3995225,0.4053328,0.94515514
1747679293.224089,1.0169256,0.5392445,-0.4419267,3.3995225,0.4053328,0.94515514
1747679293.2246335,1.0169256,0.5392445,-0.4419267,3.3995225,0.4053328,0.94515514
1747679293.2251706,1.1067386,0.53143466,-0.7562724,3.3995225,0.4053328,0.94515514
1747679293.2256916,1.1067386,0.53143466,-0.7562724,3.8629122,-0.33928648,0.82478034
1747679293.2262113,1.1067386,0.53143466,-0.7562724,3.8629122,-0.33928648,0.82478034
1747679293.2267315,1.1067386,0.53143466,-0.7562724,3.8629122,-0.33928648,0.82478034
1747679293.2272503,1.1067386,0.53143466,-0.7562724,3.8629122,-0.33928648,0.82478034
1747679293.2277694,1.1067386,0.53143466,-0.7562724,3.8629122,-0.33928648,0.82478034
1747679293.228288,1.1067386,0.53143466,-0.7562724,3.8629122,-0.33928648,0.82478034
1747679293.2288065,1.1067386,0.53143466,-0.7562724,3.8629122,-0.33928648,0.82478034
1747679293.229325,1.1067386,0.53143466,-0.7562724,3.8629122,-0.33928648,0.82478034
1747679293.2298436,1.1067386,0.53143466,-0.7562724,3.8629122,-0.33928648,0.82478034
1747679293.2303624,1.1067386,0.53143466,-0.7562724,3.8629122,-0.33928648,0.82478034
1747679293.2308807,1.1067386,0.53143466,-0.7562724,3.8629122,-0.33928648,0.82478034
1747679293.231399,1.1067386,0.53143466,-0.7562724,3.8629122,-0.33928648,0.82478034
1747679293.2319179,1.1067386,0.53143466,-0.7562724,3.8629122,-0.33928648,0.82478034
1747679293.2324362,1.1067386,0.53143466,-0.7562724,3.8629122,-0.33928648,0.82478034
1747679293.2329547,1.1067386,0.53143466,-0.7562724,3.8629122,-0.33928648,0.82478034
1747679293.2334733,1.1067386,0.53143466,-0.7562724,3.8629122,-0.33928648,0.82478034
1747679293.2339928,1.2507323,0.5895203,-1.9848565,4.7481465,-2.3952453,0.2026664
1747679293.2345192,1.2507323,0.5895203,-1.9848565,4.7481465,-2.3952453,0.2026664
1747679293.2350533,1.2507323,0.5895203,-1.9848565,4.7481465,-2.3952453,0.2026664
1747679293.2355917,1.2507323,0.5895203,-1.9848565,4.7481465,-2.3952453,0.2026664
1747679293.2361512,1.2507323,0.5895203,-1.9848565,4.7481465,-2.3952453,0.2026664
1747679293.236711,1.2507323,0.5895203,-1.9848565,4.7481465,-2.3952453,0.2026664
1747679293.237302,1.2507323,0.5895203,-1.9848565,4.7481465,-2.3952453,0.2026664
1747679293.237828,1.2507323,0.5895203,-1.9848565,4.7481465,-2.3952453,0.2026664
1747679293.2383714,1.2507323,0.5895203,-1.9848565,4.7481465,-2.3952453,0.2026664
1747679293.2389333,1.2507323,0.5895203,-1.9848565,4.7481465,-2.3952453,0.2026664
1747679293.239508,1.2507323,0.5895203,-1.9848565,4.7481465,-2.3952453,0.2026664
1747679293.2400627,1.2507323,0.5895203,-1.9848565,4.7481465,-2.3952453,0.2026664
1747679293.2406008,1.2507323,0.5895203,-1.9848565,4.7481465,-2.3952453,0.2026664
1747679293.2411296,1.2507323,0.5895203,-1.9848565,4.7481465,-2.3952453,0.2026664
1747679293.2416792,1.2507323,0.5895203,-1.9848565,4.7481465,-2.3952453,0.2026664
1747679293.2422318,1.2507323,0.5895203,-1.9848565,4.7481465,-2.3952453,0.2026664
1747679293.2427735,1.2507323,0.5895203,-1.9848565,4.7481465,-2.3952453,0.2026664
1747679293.2433128,1.2507323,0.5895203,-1.9848565,4.7481465,-2.3952453,0.2026664
1747679293.2438605,1.2507323,0.5895203,-1.9848565,4.7481465,-2.3952453,0.2026664
1747679293.2444148,0.9598161,0.5787818,-3.2881224,4.7481465,-2.3952453,0.2026664
1747679293.2449422,0.9598161,0.5787818,-3.2881224,4.7481465,-2.3952453,0.2026664
1747679293.2454646,0.9598161,0.5787818,-3.2881224,4.483961,-3.9835534,-0.56006235
1747679293.2459874,0.9598161,0.5787818,-3.2881224,4.483961,-3.9835534,-0.56006235
1747679293.2465086,0.9598161,0.5787818,-3.2881224,4.483961,-3.9835534,-0.56006235
1747679293.24703,0.9598161,0.5787818,-3.2881224,4.483961,-3.9835534,-0.56006235
1747679293.2475514,0.9598161,0.5787818,-3.2881224,4.483961,-3.9835534,-0.56006235
1747679293.2480726,0.9598161,0.5787818,-3.2881224,4.483961,-3.9835534,-0.56006235
1747679293.2485943,0.9598161,0.5787818,-3.2881224,4.483961,-3.9835534,-0.56006235
1747679293.2491157,0.9598161,0.5787818,-3.2881224,4.483961,-3.9835534,-0.56006235
1747679293.2496367,0.9598161,0.5787818,-3.2881224,4.483961,-3.9835534,-0.56006235
1747679293.2501578,0.9598161,0.5787818,-3.2881224,4.483961,-3.9835534,-0.56006235
1747679293.2506788,0.9598161,0.5787818,-3.2881224,4.483961,-3.9835534,-0.56006235
1747679293.2512138,0.9598161,0.5787818,-3.2881224,4.483961,-3.9835534,-0.56006235
1747679293.2517805,0.9598161,0.5787818,-3.2881224,4.483961,-3.9835534,-0.56006235
1747679293.2523372,0.9598161,0.5787818,-3.2881224,4.483961,-3.9835534,-0.56006235
1747679293.2528963,0.9598161,0.5787818,-3.2881224,4.483961,-3.9835534,-0.56006235
1747679293.253442,0.9598161,0.5787818,-3.2881224,4.483961,-3.9835534,-0.56006235
1747679293.2540133,0.9598161,0.5787818,-3.2881224,4.483961,-3.9835534,-0.56006235
1747679293.2545507,0.9598161,0.5787818,-3.2881224,4.483961,-3.9835534,-0.56006235
1747679293.2550757,0.9598161,0.5787818,-3.2881224,4.483961,-3.9835534,-0.56006235
1747679293.2555974,0.9598161,0.5787818,-3.2881224,4.483961,-3.9835534,-0.56006235
1747679293.2561188,0.9598161,0.5787818,-3.2881224,4.483961,-3.9835534,-0.56006235
1747679293.2566402,0.9598161,0.5787818,-3.2881224,4.483961,-3.9835534,-0.56006235
1747679293.2571611,0.9598161,0.5787818,-3.2881224,4.483961,-3.9835534,-0.56006235
1747679293.2576823,0.9598161,0.5787818,-3.2881224,4.483961,-3.9835534,-0.56006235
1747679293.2582035,0.9598161,0.5787818,-3.2881224,4.483961,-3.9835534,-0.56006235
1747679293.258725,0.9598161,0.5787818,-3.2881224,4.483961,-3.9835534,-0.56006235
1747679293.2592459,0.9598161,0.5787818,-3.2881224,4.483961,-3.9835534,-0.56006235
1747679293.2602563,0.9598161,0.5787818,-3.2881224,4.483961,-3.9835534,-0.56006235
1747679293.260778,0.9598161,0.5787818,-3.2881224,4.483961,-3.9835534,-0.56006235
1747679293.2612967,0.9598161,0.5787818,-3.2881224,4.483961,-3.9835534,-0.56006235
1747679293.2618177,0.62155277,0.4933617,-3.981245,4.483961,-3.9835534,-0.56006235
1747679293.262339,0.62155277,0.4933617,-3.981245,3.4389374,-4.5556,-1.0255826
1747679293.2628589,0.62155277,0.4933617,-3.981245,3.4389374,-4.5556,-1.0255826
1747679293.2633777,0.17883295,0.3620589,-4.0695934,2.1169453,-4.2946105,-1.2301131
1747679293.2638986,0.17883295,0.3620589,-4.0695934,2.1169453,-4.2946105,-1.2301131
1747679293.2644353,0.17883295,0.3620589,-4.0695934,2.1169453,-4.2946105,-1.2301131
1747679293.264974,0.17883295,0.3620589,-4.0695934,2.1169453,-4.2946105,-1.2301131
1747679293.2654953,0.17883295,0.3620589,-4.0695934,2.1169453,-4.2946105,-1.2301131
1747679293.266027,0.17883295,0.3620589,-4.0695934,2.1169453,-4.2946105,-1.2301131
1747679293.2665915,0.17883295,0.3620589,-4.0695934,2.1169453,-4.2946105,-1.2301131
1747679293.2671473,0.17883295,0.3620589,-4.0695934,2.1169453,-4.2946105,-1.2301131
1747679293.2676888,0.17883295,0.3620589,-4.0695934,2.1169453,-4.2946105,-1.2301131
1747679293.268222,0.17883295,0.3620589,-4.0695934,2.1169453,-4.2946105,-1.2301131
1747679293.2688274,0.17883295,0.3620589,-4.0695934,2.1169453,-4.2946105,-1.2301131
1747679293.2693913,0.17883295,0.3620589,-4.0695934,2.1169453,-4.2946105,-1.2301131
1747679293.2699282,0.17883295,0.3620589,-4.0695934,2.1169453,-4.2946105,-1.2301131
1747679293.2704575,0.17883295,0.3620589,-4.0695934,2.1169453,-4.2946105,-1.2301131
1747679293.2710032,0.17883295,0.3620589,-4.0695934,2.1169453,-4.2946105,-1.2301131
1747679293.2715364,0.17883295,0.3620589,-4.0695934,2.1169453,-4.2946105,-1.2301131
1747679293.272059,-0.32978237,0.18780205,-3.6229687,1.1209236,-3.7587829,-1.1246521
1747679293.2725804,-0.32978237,0.18780205,-3.6229687,1.1209236,-3.7587829,-1.1246521
1747679293.2731001,-0.32978237,0.18780205,-3.6229687,1.1209236,-3.7587829,-1.1246521
1747679293.2736526,-0.32978237,0.18780205,-3.6229687,1.1209236,-3.7587829,-1.1246521
1747679293.274214,-0.32978237,0.18780205,-3.6229687,1.1209236,-3.7587829,-1.1246521
1747679293.2747433,-0.32978237,0.18780205,-3.6229687,1.1209236,-3.7587829,-1.1246521
1747679293.2752638,-0.32978237,0.18780205,-3.6229687,1.1209236,-3.7587829,-1.1246521
1747679293.2757828,-0.32978237,0.18780205,-3.6229687,1.1209236,-3.7587829,-1.1246521
1747679293.2763019,-0.32978237,0.18780205,-3.6229687,1.1209236,-3.7587829,-1.1246521
1747679293.2768204,-0.32978237,0.18780205,-3.6229687,1.1209236,-3.7587829,-1.1246521
1747679293.2773395,-0.32978237,0.18780205,-3.6229687,1.1209236,-3.7587829,-1.1246521
1747679293.2778578,-0.32978237,0.18780205,-3.6229687,1.1209236,-3.7587829,-1.1246521
1747679293.2783763,-0.32978237,0.18780205,-3.6229687,1.1209236,-3.7587829,-1.1246521
1747679293.2788954,-0.32978237,0.18780205,-3.6229687,1.1209236,-3.7587829,-1.1246521
1747679293.2794151,-0.32978237,0.18780205,-3.6229687,1.1209236,-3.7587829,-1.1246521
1747679293.2799342,-0.32978237,0.18780205,-3.6229687,1.1209236,-3.7587829,-1.1246521
1747679293.280453,-0.32978237,0.18780205,-3.6229687,1.1209236,-3.7587829,-1.1246521
1747679293.280971,-0.32978237,0.18780205,-3.6229687,1.1209236,-3.7587829,-1.1246521
1747679293.281502,-0.32978237,0.18780205,-3.6229687,1.1209236,-3.7587829,-1.1246521
1747679293.2820597,-0.32978237,0.18780205,-3.6229687,1.1209236,-3.7587829,-1.1246521
1747679293.2826192,-0.81203943,0.059427943,-2.8551648,1.1209236,-3.7587829,-1.1246521
1747679293.2831764,-0.81203943,0.059427943,-2.8551648,1.1209236,-3.7587829,-1.1246521
1747679293.2837188,-0.81203943,0.059427943,-2.8551648,1.1209236,-3.7587829,-1.1246521
1747679293.2842824,-0.81203943,0.059427943,-2.8551648,1.1209236,-3.7587829,-1.1246521
1747679293.2848253,-0.81203943,0.059427943,-2.8551648,1.1209236,-3.7587829,-1.1246521
1747679293.2853477,-0.81203943,0.059427943,-2.8551648,0.8418246,-3.509511,-0.67404556
1747679293.2858675,-0.81203943,0.059427943,-2.8551648,0.8418246,-3.509511,-0.67404556
1747679293.2863865,-0.81203943,0.059427943,-2.8551648,0.8418246,-3.509511,-0.67404556
1747679293.2869055,-0.81203943,0.059427943,-2.8551648,0.8418246,-3.509511,-0.67404556
1747679293.2874246,-0.81203943,0.059427943,-2.8551648,0.8418246,-3.509511,-0.67404556
1747679293.2879434,-0.81203943,0.059427943,-2.8551648,0.8418246,-3.509511,-0.67404556
1747679293.2884877,-0.81203943,0.059427943,-2.8551648,0.8418246,-3.509511,-0.67404556
1747679293.2890067,-0.81203943,0.059427943,-2.8551648,0.8418246,-3.509511,-0.67404556
1747679293.2895253,-0.81203943,0.059427943,-2.8551648,0.8418246,-3.509511,-0.67404556
1747679293.2900438,-0.81203943,0.059427943,-2.8551648,0.8418246,-3.509511,-0.67404556
1747679293.2905626,-0.81203943,0.059427943,-2.8551648,0.8418246,-3.509511,-0.67404556
1747679293.2910812,-0.81203943,0.059427943,-2.8551648,0.8418246,-3.509511,-0.67404556
1747679293.2915995,-0.81203943,0.059427943,-2.8551648,0.8418246,-3.509511,-0.67404556
1747679293.2921183,-0.81203943,0.059427943,-2.8551648,0.8418246,-3.509511,-0.67404556
1747679293.2926366,-0.81203943,0.059427943,-2.8551648,0.8418246,-3.509511,-0.67404556
1747679293.293156,-0.9628669,0.015497635,-2.5642486,1.1880352,-3.6234944,-0.22024326
1747679293.293675,-0.9628669,0.015497635,-2.5642486,1.1880352,-3.6234944,-0.22024326
1747679293.2942252,-0.9628669,0.015497635,-2.5642486,1.1880352,-3.6234944,-0.22024326
1747679293.2947795,-0.9628669,0.015497635,-2.5642486,1.1880352,-3.6234944,-0.22024326
1747679293.295303,-0.9628669,0.015497635,-2.5642486,1.1880352,-3.6234944,-0.22024326
1747679293.2958226,-0.9628669,0.015497635,-2.5642486,1.1880352,-3.6234944,-0.22024326
1747679293.2963414,-0.9628669,0.015497635,-2.5642486,1.1880352,-3.6234944,-0.22024326
1747679293.2968605,-0.9628669,0.015497635,-2.5642486,1.1880352,-3.6234944,-0.22024326
1747679293.2974062,-0.9628669,0.015497635,-2.5642486,1.1880352,-3.6234944,-0.22024326
1747679293.2979472,-0.9628669,0.015497635,-2.5642486,1.1880352,-3.6234944,-0.22024326
1747679293.2984905,-0.9628669,0.015497635,-2.5642486,1.1880352,-3.6234944,-0.22024326
1747679293.2991111,-0.9628669,0.015497635,-2.5642486,1.1880352,-3.6234944,-0.22024326
1747679293.2996783,-0.9628669,0.015497635,-2.5642486,1.1880352,-3.6234944,-0.22024326
1747679293.3002264,-0.9628669,0.015497635,-2.5642486,1.1880352,-3.6234944,-0.22024326
1747679293.3008254,-0.9628669,0.015497635,-2.5642486,1.1880352,-3.6234944,-0.22024326
1747679293.3013794,-0.9628669,0.015497635,-2.5642486,1.1880352,-3.6234944,-0.22024326
1747679293.3019423,-0.9628669,0.015497635,-2.5642486,1.7813871,-3.8173723,0.33049804
1747679293.3024933,-0.74028665,-0.1001855,-2.7258143,1.7813871,-3.8173723,0.33049804
1747679293.3030303,-0.74028665,-0.1001855,-2.7258143,1.7813871,-3.8173723,0.33049804
1747679293.3035707,-0.74028665,-0.1001855,-2.7258143,1.7813871,-3.8173723,0.33049804
1747679293.3041298,-0.74028665,-0.1001855,-2.7258143,1.7813871,-3.8173723,0.33049804
1747679293.304655,-0.74028665,-0.1001855,-2.7258143,1.7813871,-3.8173723,0.33049804
1747679293.3051748,-0.74028665,-0.1001855,-2.7258143,1.7813871,-3.8173723,0.33049804
1747679293.3056939,-0.74028665,-0.1001855,-2.7258143,1.7813871,-3.8173723,0.33049804
1747679293.306213,-0.74028665,-0.1001855,-2.7258143,1.7813871,-3.8173723,0.33049804
1747679293.3067315,-0.74028665,-0.1001855,-2.7258143,1.7813871,-3.8173723,0.33049804
1747679293.3072505,-0.74028665,-0.1001855,-2.7258143,1.7813871,-3.8173723,0.33049804
1747679293.307769,-0.74028665,-0.1001855,-2.7258143,1.7813871,-3.8173723,0.33049804
1747679293.3082874,-0.74028665,-0.1001855,-2.7258143,1.7813871,-3.8173723,0.33049804
1747679293.308806,-0.74028665,-0.1001855,-2.7258143,1.7813871,-3.8173723,0.33049804
1747679293.3093243,-0.74028665,-0.1001855,-2.7258143,1.7813871,-3.8173723,0.33049804
1747679293.3098426,-0.74028665,-0.1001855,-2.7258143,1.7813871,-3.8173723,0.33049804
1747679293.3103611,-0.74028665,-0.1001855,-2.7258143,1.7813871,-3.8173723,0.33049804
1747679293.3108797,-0.74028665,-0.1001855,-2.7258143,1.7813871,-3.8173723,0.33049804
1747679293.3113985,-0.74028665,-0.1001855,-2.7258143,1.7813871,-3.8173723,0.33049804
1747679293.3119178,-0.74028665,-0.1001855,-2.7258143,1.9869831,-3.5286858,0.58190024
1747679293.3124523,-0.18237178,-0.3896374,-3.4038053,1.9869831,-3.5286858,0.58190024
1747679293.312987,-0.18237178,-0.3896374,-3.4038053,1.9869831,-3.5286858,0.58190024
1747679293.3135195,-0.18237178,-0.3896374,-3.4038053,1.9869831,-3.5286858,0.58190024
1747679293.3141222,-0.18237178,-0.3896374,-3.4038053,1.9869831,-3.5286858,0.58190024
1747679293.3146887,-0.18237178,-0.3896374,-3.4038053,1.9869831,-3.5286858,0.58190024
1747679293.3152428,-0.18237178,-0.3896374,-3.4038053,1.9869831,-3.5286858,0.58190024
1747679293.3157697,-0.18237178,-0.3896374,-3.4038053,1.9869831,-3.5286858,0.58190024
1747679293.3162892,-0.18237178,-0.3896374,-3.4038053,1.9869831,-3.5286858,0.58190024
1747679293.3168087,-0.18237178,-0.3896374,-3.4038053,1.9869831,-3.5286858,0.58190024
1747679293.3173275,-0.18237178,-0.3896374,-3.4038053,1.9869831,-3.5286858,0.58190024
1747679293.3178465,-0.18237178,-0.3896374,-3.4038053,1.9869831,-3.5286858,0.58190024
1747679293.318365,-0.18237178,-0.3896374,-3.4038053,1.9869831,-3.5286858,0.58190024
1747679293.3188841,-0.18237178,-0.3896374,-3.4038053,1.9869831,-3.5286858,0.58190024
1747679293.3194025,-0.18237178,-0.3896374,-3.4038053,1.9869831,-3.5286858,0.58190024
1747679293.3199213,-0.18237178,-0.3896374,-3.4038053,1.9869831,-3.5286858,0.58190024
1747679293.3204398,-0.18237178,-0.3896374,-3.4038053,1.9869831,-3.5286858,0.58190024
1747679293.3209581,-0.18237178,-0.3896374,-3.4038053,1.9869831,-3.5286858,0.58190024
1747679293.321477,-0.18237178,-0.3896374,-3.4038053,1.9869831,-3.5286858,0.58190024
1747679293.3219955,-0.18237178,-0.3896374,-3.4038053,1.9869831,-3.5286858,0.58190024
1747679293.322514,-0.18237178,-0.3896374,-3.4038053,1.9869831,-3.5286858,0.58190024
1747679293.3230333,0.027029341,-0.69519705,-3.5658596,1.9869831,-3.5286858,0.58190024
1747679293.3235812,0.027029341,-0.69519705,-3.5658596,1.9869831,-3.5286858,0.58190024
1747679293.324138,0.027029341,-0.69519705,-3.5658596,1.712145,-2.8394601,0.5211802
1747679293.3246672,0.027029341,-0.69519705,-3.5658596,1.712145,-2.8394601,0.5211802
1747679293.3251884,0.027029341,-0.69519705,-3.5658596,1.712145,-2.8394601,0.5211802
1747679293.3257077,0.027029341,-0.69519705,-3.5658596,1.712145,-2.8394601,0.5211802
1747679293.3262267,0.027029341,-0.69519705,-3.5658596,1.712145,-2.8394601,0.5211802
1747679293.3267453,0.027029341,-0.69519705,-3.5658596,1.712145,-2.8394601,0.5211802
1747679293.3272638,0.027029341,-0.69519705,-3.5658596,1.712145,-2.8394601,0.5211802
1747679293.3277824,0.027029341,-0.69519705,-3.5658596,1.712145,-2.8394601,0.5211802
1747679293.3283007,0.027029341,-0.69519705,-3.5658596,1.712145,-2.8394601,0.5211802
1747679293.3288329,0.027029341,-0.69519705,-3.5658596,1.712145,-2.8394601,0.5211802
1747679293.3296523,0.027029341,-0.69519705,-3.5658596,1.712145,-2.8394601,0.5211802
1747679293.330204,0.027029341,-0.69519705,-3.5658596,1.712145,-2.8394601,0.5211802
1747679293.3307414,0.027029341,-0.69519705,-3.5658596,1.712145,-2.8394601,0.5211802
1747679293.3312654,0.027029341,-0.69519705,-3.5658596,1.712145,-2.8394601,0.5211802
1747679293.331798,0.027029341,-0.69519705,-3.5658596,1.712145,-2.8394601,0.5211802
1747679293.3323314,0.027029341,-0.69519705,-3.5658596,1.712145,-2.8394601,0.5211802
1747679293.3328516,0.027029341,-0.69519705,-3.5658596,1.712145,-2.8394601,0.5211802
1747679293.333371,0.027029341,-0.69519705,-3.5658596,1.712145,-2.8394601,0.5211802
1747679293.3339367,0.027029341,-0.69519705,-3.5658596,1.712145,-2.8394601,0.5211802
1747679293.3344767,0.070471525,-1.0319961,-3.256883,1.3797827,-1.5419691,0.4689823
1747679293.3350017,0.070471525,-1.0319961,-3.256883,1.3797827,-1.5419691,0.4689823
1747679293.3355205,0.070471525,-1.0319961,-3.256883,1.3797827,-1.5419691,0.4689823
1747679293.3360398,0.070471525,-1.0319961,-3.256883,1.3797827,-1.5419691,0.4689823
1747679293.3365586,0.070471525,-1.0319961,-3.256883,1.3797827,-1.5419691,0.4689823
1747679293.3370771,0.070471525,-1.0319961,-3.256883,1.3797827,-1.5419691,0.4689823
1747679293.3375955,0.070471525,-1.0319961,-3.256883,1.3797827,-1.5419691,0.4689823
1747679293.3381135,0.070471525,-1.0319961,-3.256883,1.3797827,-1.5419691,0.4689823
1747679293.338632,0.070471525,-1.0319961,-3.256883,1.3797827,-1.5419691,0.4689823
1747679293.3391507,0.070471525,-1.0319961,-3.256883,1.3797827,-1.5419691,0.4689823
1747679293.339672,0.070471525,-1.0319961,-3.256883,1.3797827,-1.5419691,0.4689823
1747679293.3401933,0.070471525,-1.0319961,-3.256883,1.3797827,-1.5419691,0.4689823
1747679293.3407118,0.070471525,-1.0319961,-3.256883,1.3797827,-1.5419691,0.4689823
1747679293.3412304,0.070471525,-1.0319961,-3.256883,1.3797827,-1.5419691,0.4689823
1747679293.3417494,0.070471525,-1.0319961,-3.256883,1.3797827,-1.5419691,0.4689823
1747679293.3422682,0.070471525,-1.0319961,-3.256883,1.3797827,-1.5419691,0.4689823
1747679293.3427866,0.070471525,-1.0319961,-3.256883,1.3797827,-1.5419691,0.4689823
1747679293.3433046,0.070471525,-1.0319961,-3.256883,1.3797827,-1.5419691,0.4689823
1747679293.3438225,0.070471525,-1.0319961,-3.256883,1.3797827,-1.5419691,0.4689823
1747679293.3443556,0.070471525,-1.0319961,-3.256883,1.3797827,-1.5419691,0.4689823
1747679293.3449252,0.070471525,-1.0319961,-3.256883,1.3797827,-1.5419691,0.4689823
1747679293.3454862,0.070471525,-1.0319961,-3.256883,1.3797827,-1.5419691,0.4689823
1747679293.3460467,0.17590426,-1.4942405,-2.8956783,1.2178626,0.33502543,0.504136
1747679293.3466043,0.17590426,-1.4942405,-2.8956783,1.2178626,0.33502543,0.504136
1747679293.34715,0.17590426,-1.4942405,-2.8956783,1.2178626,0.33502543,0.504136
1747679293.3476868,0.17590426,-1.4942405,-2.8956783,1.2178626,0.33502543,0.504136
1747679293.3482091,0.17590426,-1.4942405,-2.8956783,1.2178626,0.33502543,0.504136
1747679293.348734,0.17590426,-1.4942405,-2.8956783,1.2178626,0.33502543,0.504136
1747679293.3492556,0.17590426,-1.4942405,-2.8956783,1.2178626,0.33502543,0.504136
1747679293.3497775,0.17590426,-1.4942405,-2.8956783,1.2178626,0.33502543,0.504136
1747679293.3502986,0.17590426,-1.4942405,-2.8956783,1.2178626,0.33502543,0.504136
1747679293.3508198,0.17590426,-1.4942405,-2.8956783,1.2178626,0.33502543,0.504136
1747679293.3513412,0.17590426,-1.4942405,-2.8956783,1.2178626,0.33502543,0.504136
1747679293.351862,0.17590426,-1.4942405,-2.8956783,1.2178626,0.33502543,0.504136
1747679293.352383,0.17590426,-1.4942405,-2.8956783,1.2178626,0.33502543,0.504136
1747679293.352904,0.17590426,-1.4942405,-2.8956783,1.2178626,0.33502543,0.504136
1747679293.3534377,0.17590426,-1.4942405,-2.8956783,1.2178626,0.33502543,0.504136
1747679293.3539863,0.17590426,-1.4942405,-2.8956783,1.2178626,0.33502543,0.504136
1747679293.3545134,0.17590426,-1.4942405,-2.8956783,1.2178626,0.33502543,0.504136
1747679293.3550348,0.17590426,-1.4942405,-2.8956783,1.2178626,0.33502543,0.504136
1747679293.355557,0.22227512,-2.3547862,-3.2559068,0.91958886,1.4428996,0.74914664
1747679293.356079,0.22227512,-2.3547862,-3.2559068,0.91958886,1.4428996,0.74914664
1747679293.3566008,0.22227512,-2.3547862,-3.2559068,0.91958886,1.4428996,0.74914664
1747679293.357122,0.22227512,-2.3547862,-3.2559068,0.91958886,1.4428996,0.74914664
1747679293.357643,0.22227512,-2.3547862,-3.2559068,0.91958886,1.4428996,0.74914664
1747679293.3581643,0.22227512,-2.3547862,-3.2559068,0.91958886,1.4428996,0.74914664
1747679293.3586855,0.22227512,-2.3547862,-3.2559068,0.91958886,1.4428996,0.74914664
1747679293.359207,0.22227512,-2.3547862,-3.2559068,0.91958886,1.4428996,0.74914664
1747679293.3597584,0.22227512,-2.3547862,-3.2559068,0.91958886,1.4428996,0.74914664
1747679293.360281,0.22227512,-2.3547862,-3.2559068,0.91958886,1.4428996,0.74914664
1747679293.3608305,0.22227512,-2.3547862,-3.2559068,0.91958886,1.4428996,0.74914664
1747679293.3613682,0.22227512,-2.3547862,-3.2559068,0.91958886,1.4428996,0.74914664
1747679293.361892,0.22227512,-2.3547862,-3.2559068,0.91958886,1.4428996,0.74914664
1747679293.3624249,0.22227512,-2.3547862,-3.2559068,0.91958886,1.4428996,0.74914664
1747679293.3629577,0.22227512,-2.3547862,-3.2559068,0.91958886,1.4428996,0.74914664
1747679293.3635125,0.22227512,-2.3547862,-3.2559068,0.91958886,1.4428996,0.74914664
1747679293.3640773,0.22227512,-2.3547862,-3.2559068,0.91958886,1.4428996,0.74914664
1747679293.3646066,0.22227512,-2.3547862,-3.2559068,0.91958886,1.4428996,0.74914664
1747679293.3651562,0.22227512,-2.3547862,-3.2559068,0.91958886,1.4428996,0.74914664
1747679293.365675,0.22227512,-2.3547862,-3.2559068,0.91958886,1.4428996,0.74914664
1747679293.366194,0.22227512,-2.3547862,-3.2559068,0.91958886,1.4428996,0.74914664
1747679293.3667126,0.22227512,-2.3547862,-3.2559068,0.91958886,1.4428996,0.74914664
1747679293.3672314,0.22227512,-2.3547862,-3.2559068,0.91958886,1.4428996,0.74914664
1747679293.3677533,0.22227512,-2.3547862,-3.2559068,0.91958886,1.4428996,0.74914664
1747679293.3682745,0.22227512,-2.3547862,-3.2559068,0.91958886,1.4428996,0.74914664
1747679293.3687935,0.22227512,-2.3547862,-3.2559068,0.91958886,1.4428996,0.74914664
1747679293.369313,0.22227512,-2.3547862,-3.2559068,0.0972053,1.0306426,1.3126711
1747679293.3698316,0.22227512,-2.3547862,-3.2559068,0.0972053,1.0306426,1.3126711
1747679293.3703506,0.22227512,-2.3547862,-3.2559068,0.0972053,1.0306426,1.3126711
1747679293.3708699,-0.015924735,-3.1343052,-3.5624425,0.0972053,1.0306426,1.3126711
1747679293.3713887,-0.015924735,-3.1343052,-3.5624425,0.0972053,1.0306426,1.3126711
1747679293.3719075,-0.015924735,-3.1343052,-3.5624425,0.0972053,1.0306426,1.3126711
1747679293.3724272,-0.015924735,-3.1343052,-3.5624425,0.0972053,1.0306426,1.3126711
1747679293.372946,-0.015924735,-3.1343052,-3.5624425,0.0972053,1.0306426,1.3126711
1747679293.373465,-0.015924735,-3.1343052,-3.5624425,-1.1671295,-0.58323187,2.5015054
1747679293.3740015,-0.015924735,-3.1343052,-3.5624425,-1.1671295,-0.58323187,2.5015054
1747679293.3745446,-1.0009397,-3.6761124,-3.961232,-1.1671295,-0.58323187,2.5015054
1747679293.3750894,-1.0009397,-3.6761124,-3.961232,-1.1671295,-0.58323187,2.5015054
1747679293.3756404,-1.0009397,-3.6761124,-3.961232,-1.1671295,-0.58323187,2.5015054
1747679293.376211,-1.0009397,-3.6761124,-3.961232,-1.1671295,-0.58323187,2.5015054
1747679293.3767653,-1.0009397,-3.6761124,-3.961232,-1.1671295,-0.58323187,2.5015054
1747679293.3773181,-1.0009397,-3.6761124,-3.961232,-1.1671295,-0.58323187,2.5015054
1747679293.3778589,-1.0009397,-3.6761124,-3.961232,-1.1671295,-0.58323187,2.5015054
1747679293.3783922,-1.0009397,-3.6761124,-3.961232,-1.1671295,-0.58323187,2.5015054
1747679293.3789122,-1.0009397,-3.6761124,-3.961232,-1.1671295,-0.58323187,2.5015054
1747679293.379431,-1.0009397,-3.6761124,-3.961232,-1.1671295,-0.58323187,2.5015054
1747679293.37995,-1.0009397,-3.6761124,-3.961232,-1.1671295,-0.58323187,2.5015054
1747679293.38047,-1.0009397,-3.6761124,-3.961232,-1.1671295,-0.58323187,2.5015054
1747679293.3809888,-1.0009397,-3.6761124,-3.961232,-1.1671295,-0.58323187,2.5015054
1747679293.3815074,-1.0009397,-3.6761124,-3.961232,-1.1671295,-0.58323187,2.5015054
1747679293.3820286,-1.7970546,-3.8440237,-4.518171,-1.1671295,-0.58323187,2.5015054
1747679293.3825493,-1.7970546,-3.8440237,-4.518171,-1.1671295,-0.58323187,2.5015054
1747679293.38307,-1.7970546,-3.8440237,-4.518171,-1.1671295,-0.58323187,2.5015054
1747679293.3835912,-1.7970546,-3.8440237,-4.518171,-3.1431935,-3.634147,4.8418894
1747679293.384142,-1.7970546,-3.8440237,-4.518171,-3.1431935,-3.634147,4.8418894
1747679293.3847034,-1.7970546,-3.8440237,-4.518171,-3.1431935,-3.634147,4.8418894
1747679293.3852332,-1.7970546,-3.8440237,-4.518171,-3.1431935,-3.634147,4.8418894
1747679293.3857534,-1.7970546,-3.8440237,-4.518171,-3.1431935,-3.634147,4.8418894
1747679293.386272,-1.7970546,-3.8440237,-4.518171,-3.1431935,-3.634147,4.8418894
1747679293.386791,-1.7970546,-3.8440237,-4.518171,-3.1431935,-3.634147,4.8418894
1747679293.3873093,-1.7970546,-3.8440237,-4.518171,-3.1431935,-3.634147,4.8418894
1747679293.387828,-1.7970546,-3.8440237,-4.518171,-3.1431935,-3.634147,4.8418894
1747679293.3883467,-1.7970546,-3.8440237,-4.518171,-3.1431935,-3.634147,4.8418894
1747679293.3888652,-1.7970546,-3.8440237,-4.518171,-3.1431935,-3.634147,4.8418894
1747679293.389384,-1.7970546,-3.8440237,-4.518171,-3.1431935,-3.634147,4.8418894
1747679293.3899026,-1.7970546,-3.8440237,-4.518171,-3.1431935,-3.634147,4.8418894
1747679293.3904717,-1.7970546,-3.8440237,-4.518171,-3.1431935,-3.634147,4.8418894
1747679293.3910387,-1.7970546,-3.8440237,-4.518171,-3.1431935,-3.634147,4.8418894
1747679293.3915966,-1.7970546,-3.8440237,-4.518171,-3.1431935,-3.634147,4.8418894
1747679293.3921514,-1.7970546,-3.8440237,-4.518171,-3.1431935,-3.634147,4.8418894
1747679293.3927016,-1.7970546,-3.8440237,-4.518171,-3.1431935,-3.634147,4.8418894
1747679293.3932407,-1.7970546,-3.8440237,-4.518171,-3.1431935,-3.634147,4.8418894
1747679293.3937633,-1.7970546,-3.8440237,-4.518171,-3.1431935,-3.634147,4.8418894
1747679293.3943179,-1.7970546,-3.8440237,-4.518171,-3.1431935,-3.634147,4.8418894
1747679293.3948836,-1.7970546,-3.8440237,-4.518171,-3.1431935,-3.634147,4.8418894
1747679293.3954148,-0.7466321,-4.8924937,-4.4361677,-5.505948,-7.250717,7.5700297
1747679293.395935,-0.7466321,-4.8924937,-4.4361677,-5.505948,-7.250717,7.5700297
1747679293.3964534,-0.7466321,-4.8924937,-4.4361677,-5.505948,-7.250717,7.5700297
1747679293.3969722,-0.7466321,-4.8924937,-4.4361677,-5.505948,-7.250717,7.5700297
1747679293.3974907,-0.7466321,-4.8924937,-4.4361677,-5.505948,-7.250717,7.5700297
1747679293.3980093,-0.7466321,-4.8924937,-4.4361677,-5.505948,-7.250717,7.5700297
1747679293.398528,-0.7466321,-4.8924937,-4.4361677,-5.505948,-7.250717,7.5700297
1747679293.3990464,-0.7466321,-4.8924937,-4.4361677,-5.505948,-7.250717,7.5700297
1747679293.3995647,-0.7466321,-4.8924937,-4.4361677,-5.505948,-7.250717,7.5700297
1747679293.4000835,-0.7466321,-4.8924937,-4.4361677,-5.505948,-7.250717,7.5700297
1747679293.4006019,-0.7466321,-4.8924937,-4.4361677,-5.505948,-7.250717,7.5700297
1747679293.4011204,-0.7466321,-4.8924937,-4.4361677,-5.505948,-7.250717,7.5700297
1747679293.4016397,-0.7466321,-4.8924937,-4.4361677,-5.505948,-7.250717,7.5700297
1747679293.4021592,1.3014963,-6.149389,-3.8001542,-7.650324,-10.061948,9.647294
1747679293.4026778,1.3014963,-6.149389,-3.8001542,-7.650324,-10.061948,9.647294
1747679293.4031963,1.3014963,-6.149389,-3.8001542,-7.650324,-10.061948,9.647294
1747679293.4037318,1.3014963,-6.149389,-3.8001542,-7.650324,-10.061948,9.647294
1747679293.4042716,1.3014963,-6.149389,-3.8001542,-7.650324,-10.061948,9.647294
1747679293.4047925,1.3014963,-6.149389,-3.8001542,-7.650324,-10.061948,9.647294
1747679293.4053118,1.3014963,-6.149389,-3.8001542,-7.650324,-10.061948,9.647294
1747679293.4058526,1.3014963,-6.149389,-3.8001542,-7.650324,-10.061948,9.647294
1747679293.4064016,1.3014963,-6.149389,-3.8001542,-7.650324,-10.061948,9.647294
1747679293.406935,1.3014963,-6.149389,-3.8001542,-7.650324,-10.061948,9.647294
1747679293.4074688,1.3014963,-6.149389,-3.8001542,-7.650324,-10.061948,9.647294
1747679293.4080546,1.3014963,-6.149389,-3.8001542,-7.650324,-10.061948,9.647294
1747679293.4086242,1.3014963,-6.149389,-3.8001542,-7.650324,-10.061948,9.647294
1747679293.4091718,1.3014963,-6.149389,-3.8001542,-7.650324,-10.061948,9.647294
1747679293.4097054,1.3014963,-6.149389,-3.8001542,-7.650324,-10.061948,9.647294
1747679293.4102254,1.3014963,-6.149389,-3.8001542,-7.650324,-10.061948,9.647294
1747679293.4107444,1.3014963,-6.149389,-3.8001542,-7.650324,-10.061948,9.647294
1747679293.4112635,1.3014963,-6.149389,-3.8001542,-7.650324,-10.061948,9.647294
1747679293.4117825,1.3014963,-6.149389,-3.8001542,-7.650324,-10.061948,9.647294
1747679293.4123013,1.3014963,-6.149389,-3.8001542,-7.650324,-10.061948,9.647294
1747679293.4128206,3.299837,-6.906942,-2.4993293,-7.650324,-10.061948,9.647294
1747679293.4133406,3.299837,-6.906942,-2.4993293,-9.421858,-11.200714,10.92135
1747679293.4138892,3.299837,-6.906942,-2.4993293,-9.421858,-11.200714,10.92135
1747679293.4144466,3.299837,-6.906942,-2.4993293,-9.421858,-11.200714,10.92135
1747679293.414976,3.299837,-6.906942,-2.4993293,-9.421858,-11.200714,10.92135
1747679293.4154959,3.299837,-6.906942,-2.4993293,-9.421858,-11.200714,10.92135
1747679293.4160151,3.299837,-6.906942,-2.4993293,-9.421858,-11.200714,10.92135
1747679293.4165335,3.299837,-6.906942,-2.4993293,-9.421858,-11.200714,10.92135
1747679293.4170518,3.299837,-6.906942,-2.4993293,-9.421858,-11.200714,10.92135
1747679293.4175706,3.299837,-6.906942,-2.4993293,-9.421858,-11.200714,10.92135
1747679293.4180892,3.299837,-6.906942,-2.4993293,-9.421858,-11.200714,10.92135
1747679293.4186077,3.299837,-6.906942,-2.4993293,-9.421858,-11.200714,10.92135
1747679293.4191263,3.299837,-6.906942,-2.4993293,-9.421858,-11.200714,10.92135
1747679293.4196446,3.299837,-6.906942,-2.4993293,-9.421858,-11.200714,10.92135
1747679293.4201634,3.299837,-6.906942,-2.4993293,-9.421858,-11.200714,10.92135
1747679293.4207032,3.299837,-6.906942,-2.4993293,-9.421858,-11.200714,10.92135
1747679293.4212654,3.299837,-6.906942,-2.4993293,-9.421858,-11.200714,10.92135
1747679293.4218051,3.299837,-6.906942,-2.4993293,-9.421858,-11.200714,10.92135
1747679293.4223475,3.299837,-6.906942,-2.4993293,-9.421858,-11.200714,10.92135
1747679293.4228966,3.299837,-6.906942,-2.4993293,-9.421858,-11.200714,10.92135
1747679293.423465,5.1444216,-7.5463724,-1.3439622,-10.477533,-10.91842,11.396457
1747679293.4240203,5.1444216,-7.5463724,-1.3439622,-10.477533,-10.91842,11.396457
1747679293.4245827,5.1444216,-7.5463724,-1.3439622,-10.477533,-10.91842,11.396457
1747679293.4251273,5.1444216,-7.5463724,-1.3439622,-10.477533,-10.91842,11.396457
1747679293.4256513,5.1444216,-7.5463724,-1.3439622,-10.477533,-10.91842,11.396457
1747679293.42617,5.1444216,-7.5463724,-1.3439622,-10.477533,-10.91842,11.396457
1747679293.4266894,5.1444216,-7.5463724,-1.3439622,-10.477533,-10.91842,11.396457
1747679293.4272082,5.1444216,-7.5463724,-1.3439622,-10.477533,-10.91842,11.396457
1747679293.4277267,5.1444216,-7.5463724,-1.3439622,-10.477533,-10.91842,11.396457
1747679293.4282455,5.1444216,-7.5463724,-1.3439622,-10.477533,-10.91842,11.396457
1747679293.428764,5.1444216,-7.5463724,-1.3439622,-10.477533,-10.91842,11.396457
1747679293.4292827,5.1444216,-7.5463724,-1.3439622,-10.477533,-10.91842,11.396457
1747679293.429801,5.1444216,-7.5463724,-1.3439622,-10.477533,-10.91842,11.396457
1747679293.430319,5.1444216,-7.5463724,-1.3439622,-10.477533,-10.91842,11.396457
1747679293.4308374,5.1444216,-7.5463724,-1.3439622,-10.477533,-10.91842,11.396457
1747679293.4313567,5.1444216,-7.5463724,-1.3439622,-10.477533,-10.91842,11.396457
1747679293.4318755,5.1444216,-7.5463724,-1.3439622,-10.477533,-10.91842,11.396457
1747679293.4323952,5.1444216,-7.5463724,-1.3439622,-10.477533,-10.91842,11.396457
1747679293.4329133,5.1444216,-7.5463724,-1.3439622,-10.477533,-10.91842,11.396457
1747679293.433432,5.1444216,-7.5463724,-1.3439622,-10.477533,-10.91842,11.396457
1747679293.433951,5.1444216,-7.5463724,-1.3439622,-11.206174,-10.057687,11.235602
1747679293.4345005,5.1444216,-7.5463724,-1.3439622,-11.206174,-10.057687,11.235602
1747679293.4350455,6.339814,-7.759678,-0.5903135,-11.206174,-10.057687,11.235602
1747679293.4355812,6.339814,-7.759678,-0.5903135,-11.206174,-10.057687,11.235602
1747679293.4361303,6.339814,-7.759678,-0.5903135,-11.206174,-10.057687,11.235602
1747679293.4366736,6.339814,-7.759678,-0.5903135,-11.206174,-10.057687,11.235602
1747679293.4372225,6.339814,-7.759678,-0.5903135,-11.206174,-10.057687,11.235602
1747679293.4377465,6.339814,-7.759678,-0.5903135,-11.206174,-10.057687,11.235602
1747679293.43827,6.339814,-7.759678,-0.5903135,-11.206174,-10.057687,11.235602
1747679293.4388103,6.339814,-7.759678,-0.5903135,-11.206174,-10.057687,11.235602
1747679293.439382,6.339814,-7.759678,-0.5903135,-11.206174,-10.057687,11.235602
1747679293.4399447,6.339814,-7.759678,-0.5903135,-11.206174,-10.057687,11.235602
1747679293.4405086,6.339814,-7.759678,-0.5903135,-11.206174,-10.057687,11.235602
1747679293.4410555,6.339814,-7.759678,-0.5903135,-11.206174,-10.057687,11.235602
1747679293.4415927,6.339814,-7.759678,-0.5903135,-11.206174,-10.057687,11.235602
1747679293.442116,6.339814,-7.759678,-0.5903135,-11.206174,-10.057687,11.235602
1747679293.4426384,6.339814,-7.759678,-0.5903135,-11.206174,-10.057687,11.235602
1747679293.44316,6.339814,-7.759678,-0.5903135,-11.206174,-10.057687,11.235602
1747679293.4437056,6.339814,-7.759678,-0.5903135,-11.206174,-10.057687,11.235602
1747679293.4442647,6.339814,-7.759678,-0.5903135,-11.206174,-10.057687,11.235602
1747679293.444799,6.339814,-7.759678,-0.5903135,-11.206174,-10.057687,11.235602
1747679293.4453342,7.5913396,-7.6869493,0.50452733,-11.206174,-10.057687,11.235602
1747679293.445869,7.5913396,-7.6869493,0.50452733,-11.206174,-10.057687,11.235602
1747679293.446408,7.5913396,-7.6869493,0.50452733,-12.062646,-8.357526,10.454763
1747679293.4469368,7.5913396,-7.6869493,0.50452733,-12.062646,-8.357526,10.454763
1747679293.4474652,7.5913396,-7.6869493,0.50452733,-12.062646,-8.357526,10.454763
1747679293.4479935,7.5913396,-7.6869493,0.50452733,-12.062646,-8.357526,10.454763
1747679293.4485211,7.5913396,-7.6869493,0.50452733,-12.062646,-8.357526,10.454763
1747679293.4490497,7.5913396,-7.6869493,0.50452733,-12.062646,-8.357526,10.454763
1747679293.4495778,7.5913396,-7.6869493,0.50452733,-12.062646,-8.357526,10.454763
1747679293.4501247,7.5913396,-7.6869493,0.50452733,-12.062646,-8.357526,10.454763
1747679293.4506526,7.5913396,-7.6869493,0.50452733,-12.062646,-8.357526,10.454763
1747679293.4512286,7.5913396,-7.6869493,0.50452733,-12.062646,-8.357526,10.454763
1747679293.4517868,7.5913396,-7.6869493,0.50452733,-12.062646,-8.357526,10.454763
1747679293.4523277,7.5913396,-7.6869493,0.50452733,-12.062646,-8.357526,10.454763
1747679293.4528549,7.5913396,-7.6869493,0.50452733,-12.062646,-8.357526,10.454763
1747679293.4533956,7.5913396,-7.6869493,0.50452733,-12.062646,-8.357526,10.454763
1747679293.4539452,7.5913396,-7.6869493,0.50452733,-12.062646,-8.357526,10.454763
1747679293.454521,7.5913396,-7.6869493,0.50452733,-12.062646,-8.357526,10.454763
1747679293.4550917,7.5913396,-7.6869493,0.50452733,-12.455729,-6.669083,8.932502
1747679293.4556527,8.71205,-7.4321527,1.9332385,-12.455729,-6.669083,8.932502
1747679293.4561996,8.71205,-7.4321527,1.9332385,-12.455729,-6.669083,8.932502
1747679293.456728,8.71205,-7.4321527,1.9332385,-12.455729,-6.669083,8.932502
1747679293.4572558,8.71205,-7.4321527,1.9332385,-12.455729,-6.669083,8.932502
1747679293.4577842,8.71205,-7.4321527,1.9332385,-12.455729,-6.669083,8.932502
1747679293.4583118,8.71205,-7.4321527,1.9332385,-12.455729,-6.669083,8.932502
1747679293.4588392,8.71205,-7.4321527,1.9332385,-12.455729,-6.669083,8.932502
1747679293.4593668,8.71205,-7.4321527,1.9332385,-12.455729,-6.669083,8.932502
1747679293.4598951,8.71205,-7.4321527,1.9332385,-12.455729,-6.669083,8.932502
1747679293.4604278,8.71205,-7.4321527,1.9332385,-12.455729,-6.669083,8.932502
1747679293.460951,8.71205,-7.4321527,1.9332385,-12.455729,-6.669083,8.932502
1747679293.4614701,8.71205,-7.4321527,1.9332385,-12.455729,-6.669083,8.932502
1747679293.4619892,8.71205,-7.4321527,1.9332385,-12.455729,-6.669083,8.932502
1747679293.4625077,8.71205,-7.4321527,1.9332385,-12.455729,-6.669083,8.932502
1747679293.4630265,8.71205,-7.4321527,1.9332385,-12.455729,-6.669083,8.932502
1747679293.4635453,8.71205,-7.4321527,1.9332385,-12.455729,-6.669083,8.932502
1747679293.4640956,8.71205,-7.4321527,1.9332385,-12.455729,-6.669083,8.932502
1747679293.4646523,8.71205,-7.4321527,1.9332385,-12.455729,-6.669083,8.932502
1747679293.4651747,8.71205,-7.4321527,1.9332385,-12.455729,-6.669083,8.932502
1747679293.4656937,8.71205,-7.4321527,1.9332385,-12.455729,-6.669083,8.932502
1747679293.4662127,8.676418,-6.7668533,3.1144757,-12.455729,-6.669083,8.932502
1747679293.4667737,8.676418,-6.7668533,3.1144757,-12.11804,-5.400354,6.180926
1747679293.467318,8.676418,-6.7668533,3.1144757,-12.11804,-5.400354,6.180926
1747679293.4678469,8.676418,-6.7668533,3.1144757,-12.11804,-5.400354,6.180926
1747679293.4683673,8.676418,-6.7668533,3.1144757,-12.11804,-5.400354,6.180926
1747679293.4688866,8.676418,-6.7668533,3.1144757,-12.11804,-5.400354,6.180926
1747679293.4694054,8.676418,-6.7668533,3.1144757,-12.11804,-5.400354,6.180926
1747679293.4699404,8.676418,-6.7668533,3.1144757,-12.11804,-5.400354,6.180926
1747679293.4705086,8.676418,-6.7668533,3.1144757,-12.11804,-5.400354,6.180926
1747679293.471058,8.676418,-6.7668533,3.1144757,-12.11804,-5.400354,6.180926
1747679293.471598,8.676418,-6.7668533,3.1144757,-12.11804,-5.400354,6.180926
1747679293.4721253,8.676418,-6.7668533,3.1144757,-12.11804,-5.400354,6.180926
1747679293.4726477,8.676418,-6.7668533,3.1144757,-12.11804,-5.400354,6.180926
1747679293.4731703,8.676418,-6.7668533,3.1144757,-12.11804,-5.400354,6.180926
1747679293.473725,8.676418,-6.7668533,3.1144757,-12.11804,-5.400354,6.180926
1747679293.4742796,8.676418,-6.7668533,3.1144757,-12.11804,-5.400354,6.180926
1747679293.4748285,8.676418,-6.7668533,3.1144757,-12.11804,-5.400354,6.180926
1747679293.4753618,8.676418,-6.7668533,3.1144757,-12.11804,-5.400354,6.180926
1747679293.4758818,8.676418,-6.7668533,3.1144757,-12.11804,-5.400354,6.180926
1747679293.476401,8.676418,-6.7668533,3.1144757,-12.11804,-5.400354,6.180926
1747679293.4769204,8.676418,-6.7668533,3.1144757,-12.11804,-5.400354,6.180926
