timestamp,acc_x,acc_y,acc_z,gyro_x,gyro_y,gyro_z
1747679493.4754677,0.13392642,0.9536537,0.29610243,0.22596905,0.14447638,-0.12010848
1747679493.476014,0.13392642,0.9536537,0.29610243,0.3037333,0.050733183,-0.12436953
1747679493.4765418,0.13392642,0.9536537,0.29610243,0.3037333,0.050733183,-0.12436953
1747679493.4770637,0.13392642,0.9536537,0.29610243,0.3037333,0.050733183,-0.12436953
1747679493.4775848,0.13392642,0.9536537,0.29610243,0.3037333,0.050733183,-0.12436953
1747679493.478108,0.13392642,0.9536537,0.29610243,0.3037333,0.050733183,-0.12436953
1747679493.4786296,0.13392642,0.9536537,0.29610243,0.3037333,0.050733183,-0.12436953
1747679493.4791508,0.13392642,0.9536537,0.29610243,0.3037333,0.050733183,-0.12436953
1747679493.479675,0.13392642,0.9536537,0.29610243,0.3037333,0.050733183,-0.12436953
1747679493.4801836,0.13392642,0.9536537,0.29610243,0.3037333,0.050733183,-0.12436953
1747679493.4807029,0.13392642,0.9536537,0.29610243,0.3037333,0.050733183,-0.12436953
1747679493.4812217,0.13392642,0.9536537,0.29610243,0.3037333,0.050733183,-0.12436953
1747679493.4817402,0.13392642,0.9536537,0.29610243,0.3037333,0.050733183,-0.12436953
1747679493.482259,0.13392642,0.9536537,0.29610243,0.3037333,0.050733183,-0.12436953
1747679493.4827778,0.13392642,0.9536537,0.29610243,0.3037333,0.050733183,-0.12436953
1747679493.483296,0.13392642,0.9536537,0.29610243,0.3037333,0.050733183,-0.12436953
1747679493.483826,0.13392642,0.9536537,0.29610243,0.3037333,0.050733183,-0.12436953
1747679493.4843643,0.13392642,0.9536537,0.29610243,0.3037333,0.050733183,-0.12436953
1747679493.4849133,0.092924796,0.9546299,0.2536365,0.3356912,-0.06431529,-0.08175898
1747679493.4854584,0.092924796,0.9546299,0.2536365,0.3356912,-0.06431529,-0.08175898
1747679493.4860146,0.092924796,0.9546299,0.2536365,0.3356912,-0.06431529,-0.08175898
1747679493.486578,0.092924796,0.9546299,0.2536365,0.3356912,-0.06431529,-0.08175898
1747679493.4871023,0.092924796,0.9546299,0.2536365,0.3356912,-0.06431529,-0.08175898
1747679493.4876218,0.092924796,0.9546299,0.2536365,0.3356912,-0.06431529,-0.08175898
1747679493.488141,0.092924796,0.9546299,0.2536365,0.3356912,-0.06431529,-0.08175898
1747679493.488662,0.092924796,0.9546299,0.2536365,0.3356912,-0.06431529,-0.08175898
1747679493.4891832,0.092924796,0.9546299,0.2536365,0.3356912,-0.06431529,-0.08175898
1747679493.4897823,0.092924796,0.9546299,0.2536365,0.3356912,-0.06431529,-0.08175898
1747679493.4904027,0.092924796,0.9546299,0.2536365,0.3356912,-0.06431529,-0.08175898
1747679493.4909499,0.10366331,0.94974875,0.21361111,0.3239733,-0.13675322,-0.029561065
1747679493.491498,0.10366331,0.94974875,0.21361111,0.3239733,-0.13675322,-0.029561065
1747679493.4920423,0.10366331,0.94974875,0.21361111,0.3239733,-0.13675322,-0.029561065
1747679493.4925752,0.10366331,0.94974875,0.21361111,0.3239733,-0.13675322,-0.029561065
1747679493.4931252,0.10366331,0.94974875,0.21361111,0.3239733,-0.13675322,-0.029561065
1747679493.493645,0.10366331,0.94974875,0.21361111,0.3239733,-0.13675322,-0.029561065
1747679493.4941766,0.10366331,0.94974875,0.21361111,0.3239733,-0.13675322,-0.029561065
1747679493.494707,0.10366331,0.94974875,0.21361111,0.3239733,-0.13675322,-0.029561065
1747679493.4952278,0.10366331,0.94974875,0.21361111,0.3239733,-0.13675322,-0.029561065
1747679493.4957619,0.10366331,0.94974875,0.21361111,0.3239733,-0.13675322,-0.029561065
1747679493.4963062,0.10366331,0.94974875,0.21361111,0.3239733,-0.13675322,-0.029561065
1747679493.4968452,0.10366331,0.94974875,0.21361111,0.3239733,-0.13675322,-0.029561065
1747679493.4973795,0.10366331,0.94974875,0.21361111,0.3239733,-0.13675322,-0.029561065
1747679493.4978998,0.10366331,0.94974875,0.21361111,0.3239733,-0.13675322,-0.029561065
1747679493.498419,0.10366331,0.94974875,0.21361111,0.3239733,-0.13675322,-0.029561065
1747679493.4989402,0.10366331,0.94974875,0.21361111,0.3239733,-0.13675322,-0.029561065
1747679493.4994614,0.10366331,0.94974875,0.21361111,0.3239733,-0.13675322,-0.029561065
1747679493.4999807,0.10366331,0.94974875,0.21361111,0.3239733,-0.13675322,-0.029561065
1747679493.5005286,0.10366331,0.94974875,0.21361111,0.3239733,-0.13675322,-0.029561065
1747679493.5010684,0.10366331,0.94974875,0.21361111,0.28455856,-0.08775109,-0.017843166
1747679493.5015957,0.10366331,0.94974875,0.21361111,0.28455856,-0.08775109,-0.017843166
1747679493.5021248,0.10366331,0.94974875,0.21361111,0.28455856,-0.08775109,-0.017843166
1747679493.5026608,0.19054769,0.94242704,0.19164595,0.28455856,-0.08775109,-0.017843166
1747679493.5032077,0.19054769,0.94242704,0.19164595,0.28455856,-0.08775109,-0.017843166
1747679493.50377,0.19054769,0.94242704,0.19164595,0.28455856,-0.08775109,-0.017843166
1747679493.5043159,0.19054769,0.94242704,0.19164595,0.28455856,-0.08775109,-0.017843166
1747679493.5048647,0.19054769,0.94242704,0.19164595,0.28455856,-0.08775109,-0.017843166
1747679493.5054097,0.19054769,0.94242704,0.19164595,0.28455856,-0.08775109,-0.017843166
1747679493.5059366,0.19054769,0.94242704,0.19164595,0.28455856,-0.08775109,-0.017843166
1747679493.506471,0.19054769,0.94242704,0.19164595,0.28455856,-0.08775109,-0.017843166
1747679493.5185814,0.23643047,0.93315285,0.18530047,0.22703432,0.023036325,-0.07962846
1747679493.5191429,0.23643047,0.93315285,0.18530047,0.22703432,0.023036325,-0.07962846
1747679493.5197103,0.23643047,0.93315285,0.18530047,0.22703432,0.023036325,-0.07962846
1747679493.520332,0.2247157,0.94340324,0.16870458,0.22703432,0.023036325,-0.07962846
1747679493.5208826,0.2247157,0.94340324,0.16870458,0.22703432,0.023036325,-0.07962846
1747679493.5214343,0.2247157,0.94340324,0.16870458,0.22703432,0.023036325,-0.07962846
1747679493.521998,0.2247157,0.94340324,0.16870458,0.16098797,0.15406376,-0.14460954
1747679493.5225284,0.2247157,0.94340324,0.16870458,0.16098797,0.15406376,-0.14460954
1747679493.523076,0.2247157,0.94340324,0.16870458,0.16098797,0.15406376,-0.14460954
1747679493.5236268,0.2247157,0.94340324,0.16870458,0.16098797,0.15406376,-0.14460954
1747679493.5241866,0.2247157,0.94340324,0.16870458,0.16098797,0.15406376,-0.14460954
1747679493.5247157,0.2247157,0.94340324,0.16870458,0.16098797,0.15406376,-0.14460954
1747679493.5252354,0.2247157,0.94340324,0.16870458,0.16098797,0.15406376,-0.14460954
1747679493.5257542,0.2247157,0.94340324,0.16870458,0.16098797,0.15406376,-0.14460954
1747679493.5262725,0.2247157,0.94340324,0.16870458,0.16098797,0.15406376,-0.14460954
1747679493.5267913,0.2247157,0.94340324,0.16870458,0.16098797,0.15406376,-0.14460954
1747679493.5273101,0.2247157,0.94340324,0.16870458,0.16098797,0.15406376,-0.14460954
1747679493.527829,0.2247157,0.94340324,0.16870458,0.16098797,0.15406376,-0.14460954
1747679493.5283532,0.2247157,0.94340324,0.16870458,0.16098797,0.15406376,-0.14460954
1747679493.5288718,0.2247157,0.94340324,0.16870458,0.16098797,0.15406376,-0.14460954
1747679493.529391,0.2247157,0.94340324,0.16870458,0.16098797,0.15406376,-0.14460954
1747679493.5299098,0.2247157,0.94340324,0.16870458,0.16098797,0.15406376,-0.14460954
1747679493.5304291,0.2247157,0.94340324,0.16870458,0.16098797,0.15406376,-0.14460954
1747679493.5309498,0.2247157,0.94340324,0.16870458,0.16098797,0.15406376,-0.14460954
1747679493.531471,0.18908335,0.94242704,0.16772833,0.16098797,0.15406376,-0.14460954
1747679493.5320182,0.18908335,0.94242704,0.16772833,0.09174583,0.2584596,-0.18402429
1747679493.5325692,0.18908335,0.94242704,0.16772833,0.09174583,0.2584596,-0.18402429
1747679493.5331194,0.18908335,0.94242704,0.16772833,0.09174583,0.2584596,-0.18402429
1747679493.5336723,0.18908335,0.94242704,0.16772833,0.09174583,0.2584596,-0.18402429
1747679493.5342183,0.18908335,0.94242704,0.16772833,0.09174583,0.2584596,-0.18402429
1747679493.5347462,0.18908335,0.94242704,0.16772833,0.09174583,0.2584596,-0.18402429
1747679493.535268,0.18908335,0.94242704,0.16772833,0.09174583,0.2584596,-0.18402429
1747679493.5358245,0.18908335,0.94242704,0.16772833,0.09174583,0.2584596,-0.18402429
1747679493.5363743,0.18908335,0.94242704,0.16772833,0.09174583,0.2584596,-0.18402429
1747679493.5369124,0.18908335,0.94242704,0.16772833,0.09174583,0.2584596,-0.18402429
1747679493.5374346,0.18908335,0.94242704,0.16772833,0.09174583,0.2584596,-0.18402429
1747679493.5379562,0.18908335,0.94242704,0.16772833,0.09174583,0.2584596,-0.18402429
1747679493.5384784,0.18908335,0.94242704,0.16772833,0.09174583,0.2584596,-0.18402429
1747679493.5389996,0.18908335,0.94242704,0.16772833,0.09174583,0.2584596,-0.18402429
1747679493.5395267,0.1402719,0.9355934,0.18432423,0.09174583,0.2584596,-0.18402429
1747679493.540054,0.1402719,0.9355934,0.18432423,0.039547913,0.2904175,-0.18615483
1747679493.5405786,0.1402719,0.9355934,0.18432423,0.039547913,0.2904175,-0.18615483
1747679493.5411036,0.1402719,0.9355934,0.18432423,0.039547913,0.2904175,-0.18615483
1747679493.5416465,0.1402719,0.9355934,0.18432423,0.039547913,0.2904175,-0.18615483
1747679493.5422165,0.1402719,0.9355934,0.18432423,0.039547913,0.2904175,-0.18615483
1747679493.54275,0.1402719,0.9355934,0.18432423,0.039547913,0.2904175,-0.18615483
1747679493.5432699,0.1402719,0.9355934,0.18432423,0.039547913,0.2904175,-0.18615483
1747679493.543803,0.1402719,0.9355934,0.18432423,0.039547913,0.2904175,-0.18615483
1747679493.5443358,0.1402719,0.9355934,0.18432423,0.039547913,0.2904175,-0.18615483
1747679493.5448565,0.1402719,0.9355934,0.18432423,0.039547913,0.2904175,-0.18615483
1747679493.5453825,0.1402719,0.9355934,0.18432423,0.039547913,0.2904175,-0.18615483
1747679493.545901,0.1402719,0.9355934,0.18432423,0.039547913,0.2904175,-0.18615483
1747679493.5464199,0.1402719,0.9355934,0.18432423,0.039547913,0.2904175,-0.18615483
1747679493.546939,0.1402719,0.9355934,0.18432423,0.039547913,0.2904175,-0.18615483
1747679493.5474842,0.1402719,0.9355934,0.18432423,0.039547913,0.2904175,-0.18615483
1747679493.548038,0.1402719,0.9355934,0.18432423,0.039547913,0.2904175,-0.18615483
1747679493.548592,0.1402719,0.9355934,0.18432423,0.039547913,0.2904175,-0.18615483
1747679493.5491288,0.1402719,0.9355934,0.18432423,0.039547913,0.2904175,-0.18615483
1747679493.5496516,0.1402719,0.9355934,0.18432423,0.039547913,0.2904175,-0.18615483
1747679493.5501738,0.1402719,0.9355934,0.18432423,0.039547913,0.2904175,-0.18615483
1747679493.5507748,0.1402719,0.9355934,0.18432423,0.039547913,0.2904175,-0.18615483
1747679493.55133,0.1402719,0.9355934,0.18432423,0.039547913,0.2904175,-0.18615483
1747679493.551887,0.1402719,0.9355934,0.18432423,0.039547913,0.2904175,-0.18615483
1747679493.5524347,0.10073463,0.94242704,0.21068242,0.024634222,0.25100276,-0.14887059
1747679493.5529623,0.10073463,0.94242704,0.21068242,0.024634222,0.25100276,-0.14887059
1747679493.5543015,0.10073463,0.94242704,0.21068242,0.024634222,0.25100276,-0.14887059
1747679493.554858,0.10073463,0.94242704,0.21068242,0.024634222,0.25100276,-0.14887059
1747679493.5553944,0.10073463,0.94242704,0.21068242,0.024634222,0.25100276,-0.14887059
1747679493.5559227,0.10073463,0.94242704,0.21068242,0.024634222,0.25100276,-0.14887059
1747679493.5564508,0.10073463,0.94242704,0.21068242,0.024634222,0.25100276,-0.14887059
1747679493.5569906,0.10073463,0.94242704,0.21068242,0.024634222,0.25100276,-0.14887059
1747679493.5575185,0.10073463,0.94242704,0.21068242,0.024634222,0.25100276,-0.14887059
1747679493.5580468,0.10073463,0.94242704,0.21068242,0.024634222,0.25100276,-0.14887059
1747679493.5585747,0.10073463,0.94242704,0.21068242,0.024634222,0.25100276,-0.14887059
1747679493.5591025,0.10073463,0.94242704,0.21068242,0.024634222,0.25100276,-0.14887059
1747679493.5596302,0.10073463,0.94242704,0.21068242,0.024634222,0.25100276,-0.14887059
1747679493.5601578,0.10073463,0.94242704,0.21068242,0.024634222,0.25100276,-0.14887059
1747679493.5606859,0.10073463,0.94242704,0.21068242,0.024634222,0.25100276,-0.14887059
1747679493.5612137,0.10073463,0.94242704,0.21068242,0.024634222,0.25100276,-0.14887059
1747679493.5617414,0.10073463,0.94242704,0.21068242,0.024634222,0.25100276,-0.14887059
1747679493.5622692,0.10073463,0.94242704,0.21068242,0.024634222,0.25100276,-0.14887059
1747679493.5627985,0.10073463,0.94242704,0.21068242,0.024634222,0.25100276,-0.14887059
1747679493.5634036,0.10073463,0.94242704,0.21068242,0.032091066,0.18602167,-0.11584742
1747679493.5639768,0.0763289,0.9473082,0.22190905,0.032091066,0.18602167,-0.11584742
1747679493.5645375,0.0763289,0.9473082,0.22190905,0.032091066,0.18602167,-0.11584742
1747679493.5650766,0.0763289,0.9473082,0.22190905,0.032091066,0.18602167,-0.11584742
1747679493.5656285,0.0763289,0.9473082,0.22190905,0.032091066,0.18602167,-0.11584742
1747679493.566181,0.0763289,0.9473082,0.22190905,0.032091066,0.18602167,-0.11584742
1747679493.5667229,0.0763289,0.9473082,0.22190905,0.032091066,0.18602167,-0.11584742
1747679493.5672662,0.0763289,0.9473082,0.22190905,0.032091066,0.18602167,-0.11584742
1747679493.5678246,0.0763289,0.9473082,0.22190905,0.032091066,0.18602167,-0.11584742
1747679493.5683525,0.0763289,0.9473082,0.22190905,0.032091066,0.18602167,-0.11584742
1747679493.5688794,0.0763289,0.9473082,0.22190905,0.032091066,0.18602167,-0.11584742
1747679493.5694084,0.0763289,0.9473082,0.22190905,0.032091066,0.18602167,-0.11584742
1747679493.5699422,0.0763289,0.9473082,0.22190905,0.032091066,0.18602167,-0.11584742
1747679493.5704708,0.0763289,0.9473082,0.22190905,0.032091066,0.18602167,-0.11584742
1747679493.5709972,0.0763289,0.9473082,0.22190905,0.032091066,0.18602167,-0.11584742
1747679493.5715232,0.0763289,0.9473082,0.22190905,0.032091066,0.18602167,-0.11584742
1747679493.5720499,0.0763289,0.9473082,0.22190905,0.032091066,0.18602167,-0.11584742
1747679493.5725832,0.07242399,0.9585348,0.23264758,0.054461602,0.020905798,-0.0039947387
1747679493.5731118,0.07242399,0.9585348,0.23264758,0.054461602,0.020905798,-0.0039947387
1747679493.5736387,0.07242399,0.9585348,0.23264758,0.054461602,0.020905798,-0.0039947387
1747679493.5741773,0.07242399,0.9585348,0.23264758,0.054461602,0.020905798,-0.0039947387
1747679493.5747159,0.07242399,0.9585348,0.23264758,0.054461602,0.020905798,-0.0039947387
1747679493.5752578,0.07242399,0.9585348,0.23264758,0.054461602,0.020905798,-0.0039947387
1747679493.5757976,0.07242399,0.9585348,0.23264758,0.054461602,0.020905798,-0.0039947387
1747679493.576334,0.07242399,0.9585348,0.23264758,0.054461602,0.020905798,-0.0039947387
1747679493.5768723,0.07242399,0.9585348,0.23264758,0.054461602,0.020905798,-0.0039947387
1747679493.5774086,0.07242399,0.9585348,0.23264758,0.054461602,0.020905798,-0.0039947387
1747679493.577952,0.07242399,0.9585348,0.23264758,0.054461602,0.020905798,-0.0039947387
1747679493.5784967,0.07242399,0.9585348,0.23264758,0.054461602,0.020905798,-0.0039947387
1747679493.5790591,0.07242399,0.9585348,0.23264758,0.054461602,0.020905798,-0.0039947387
1747679493.5796201,0.07242399,0.9585348,0.23264758,0.054461602,0.020905798,-0.0039947387
1747679493.5801432,0.07242399,0.9585348,0.23264758,0.054461602,0.020905798,-0.0039947387
1747679493.580702,0.07242399,0.9585348,0.23264758,0.054461602,0.020905798,-0.0039947387
1747679493.5812967,0.07242399,0.9585348,0.23264758,0.054461602,0.020905798,-0.0039947387
1747679493.5818791,0.07242399,0.9585348,0.23264758,0.054461602,0.020905798,-0.0039947387
1747679493.5824494,0.07242399,0.9585348,0.23264758,0.054461602,0.020905798,-0.0039947387
1747679493.5830011,0.12709281,0.9521893,0.23508814,0.074701615,-0.08562057,0.079095826
1747679493.5835419,0.12709281,0.9521893,0.23508814,0.074701615,-0.08562057,0.079095826
1747679493.5840833,0.12709281,0.9521893,0.23508814,0.074701615,-0.08562057,0.079095826
1747679493.5846593,0.12709281,0.9521893,0.23508814,0.074701615,-0.08562057,0.079095826
1747679493.5852158,0.12709281,0.9521893,0.23508814,0.074701615,-0.08562057,0.079095826
1747679493.5857542,0.12709281,0.9521893,0.23508814,0.074701615,-0.08562057,0.079095826
1747679493.586283,0.12709281,0.9521893,0.23508814,0.074701615,-0.08562057,0.079095826
1747679493.58683,0.12709281,0.9521893,0.23508814,0.074701615,-0.08562057,0.079095826
1747679493.5873547,0.12709281,0.9521893,0.23508814,0.074701615,-0.08562057,0.079095826
1747679493.5878747,0.12709281,0.9521893,0.23508814,0.074701615,-0.08562057,0.079095826
1747679493.5883932,0.12709281,0.9521893,0.23508814,0.074701615,-0.08562057,0.079095826
1747679493.5889125,0.12709281,0.9521893,0.23508814,0.074701615,-0.08562057,0.079095826
1747679493.589431,0.12709281,0.9521893,0.23508814,0.074701615,-0.08562057,0.079095826
1747679493.5899494,0.12709281,0.9521893,0.23508814,0.074701615,-0.08562057,0.079095826
1747679493.5904686,0.12709281,0.9521893,0.23508814,0.074701615,-0.08562057,0.079095826
1747679493.590987,0.12709281,0.9521893,0.23508814,0.074701615,-0.08562057,0.079095826
1747679493.5915058,0.12709281,0.9521893,0.23508814,0.074701615,-0.08562057,0.079095826
1747679493.5920243,0.12709281,0.9521893,0.23508814,0.074701615,-0.08562057,0.079095826
1747679493.5925426,0.12709281,0.9521893,0.23508814,0.074701615,-0.08562057,0.079095826
1747679493.5930614,0.12709281,0.9521893,0.23508814,0.074701615,-0.08562057,0.079095826
1747679493.5935965,0.12709281,0.9521893,0.23508814,0.074701615,-0.08562057,0.079095826
1747679493.594153,0.12709281,0.9521893,0.23508814,0.074701615,-0.08562057,0.079095826
1747679493.594705,0.12709281,0.9521893,0.23508814,0.074701615,-0.08562057,0.079095826
1747679493.5952718,0.19298826,0.9517012,0.23069511,0.074701615,-0.08562057,0.079095826
1747679493.5958145,0.19298826,0.9517012,0.23069511,0.074701615,-0.08562057,0.079095826
1747679493.596337,0.19298826,0.9517012,0.23069511,0.11198584,-0.19534272,0.099335834
1747679493.596889,0.19298826,0.9517012,0.23069511,0.11198584,-0.19534272,0.099335834
1747679493.5974517,0.19298826,0.9517012,0.23069511,0.11198584,-0.19534272,0.099335834
1747679493.5979996,0.19298826,0.9517012,0.23069511,0.11198584,-0.19534272,0.099335834
1747679493.5985408,0.19298826,0.9517012,0.23069511,0.11198584,-0.19534272,0.099335834
1747679493.5990818,0.19298826,0.9517012,0.23069511,0.11198584,-0.19534272,0.099335834
1747679493.5996146,0.19298826,0.9517012,0.23069511,0.11198584,-0.19534272,0.099335834
1747679493.6001348,0.19298826,0.9517012,0.23069511,0.11198584,-0.19534272,0.099335834
1747679493.6006541,0.19298826,0.9517012,0.23069511,0.11198584,-0.19534272,0.099335834
1747679493.6011727,0.19298826,0.9517012,0.23069511,0.11198584,-0.19534272,0.099335834
1747679493.6016915,0.19298826,0.9517012,0.23069511,0.11198584,-0.19534272,0.099335834
1747679493.6022103,0.19298826,0.9517012,0.23069511,0.11198584,-0.19534272,0.099335834
1747679493.6027293,0.19298826,0.9517012,0.23069511,0.11198584,-0.19534272,0.099335834
1747679493.603248,0.19298826,0.9517012,0.23069511,0.11198584,-0.19534272,0.099335834
1747679493.6037805,0.19298826,0.9517012,0.23069511,0.11198584,-0.19534272,0.099335834
1747679493.6043186,0.21885833,0.94877255,0.19896767,0.11198584,-0.19534272,0.099335834
1747679493.6048393,0.21885833,0.94877255,0.19896767,0.11198584,-0.19534272,0.099335834
1747679493.605359,0.21885833,0.94877255,0.19896767,0.13222586,-0.24221432,0.0652474
1747679493.6058784,0.21885833,0.94877255,0.19896767,0.13222586,-0.24221432,0.0652474
1747679493.606397,0.21885833,0.94877255,0.19896767,0.13222586,-0.24221432,0.0652474
1747679493.6069152,0.21885833,0.94877255,0.19896767,0.13222586,-0.24221432,0.0652474
1747679493.607434,0.21885833,0.94877255,0.19896767,0.13222586,-0.24221432,0.0652474
1747679493.6079524,0.21885833,0.94877255,0.19896767,0.13222586,-0.24221432,0.0652474
1747679493.6084716,0.21885833,0.94877255,0.19896767,0.13222586,-0.24221432,0.0652474
1747679493.6089914,0.21885833,0.94877255,0.19896767,0.13222586,-0.22623536,0.023702117
1747679493.60951,0.21885833,0.94877255,0.19896767,0.13222586,-0.22623536,0.023702117
1747679493.6100578,0.22081079,0.94291514,0.16870458,0.13222586,-0.22623536,0.023702117
1747679493.6106124,0.22081079,0.94291514,0.16870458,0.13222586,-0.22623536,0.023702117
1747679493.6111634,0.22081079,0.94291514,0.16870458,0.13222586,-0.22623536,0.023702117
1747679493.6117032,0.22081079,0.94291514,0.16870458,0.13222586,-0.22623536,0.023702117
1747679493.6122525,0.22081079,0.94291514,0.16870458,0.13222586,-0.22623536,0.023702117
1747679493.6128612,0.22081079,0.94291514,0.16870458,0.13222586,-0.22623536,0.023702117
1747679493.6133897,0.22081079,0.94291514,0.16870458,0.13222586,-0.22623536,0.023702117
1747679493.613925,0.22081079,0.94291514,0.16870458,0.13222586,-0.22623536,0.023702117
1747679493.614463,0.22081079,0.94291514,0.16870458,0.13222586,-0.22623536,0.023702117
1747679493.6149883,0.22081079,0.94291514,0.16870458,0.13222586,-0.22623536,0.023702117
1747679493.6155097,0.22081079,0.94291514,0.16870458,0.13222586,-0.22623536,0.023702117
1747679493.6160316,0.22081079,0.94291514,0.16870458,0.13222586,-0.22623536,0.023702117
1747679493.6165535,0.22081079,0.94291514,0.16870458,0.13222586,-0.22623536,0.023702117
1747679493.6170754,0.22081079,0.94291514,0.16870458,0.13222586,-0.22623536,0.023702117
1747679493.6175973,0.22081079,0.94291514,0.16870458,0.13222586,-0.22623536,0.023702117
1747679493.618119,0.22081079,0.94291514,0.16870458,0.13222586,-0.22623536,0.023702117
1747679493.6186404,0.22081079,0.94291514,0.16870458,0.13222586,-0.22623536,0.023702117
1747679493.6191623,0.22081079,0.94291514,0.16870458,0.13222586,-0.22623536,0.023702117
1747679493.619684,0.22081079,0.94291514,0.16870458,0.13222586,-0.22623536,0.023702117
1747679493.6202059,0.22081079,0.94291514,0.16870458,0.13222586,-0.22623536,0.023702117
1747679493.620741,0.22081079,0.94291514,0.16870458,0.13222586,-0.22623536,0.023702117
1747679493.621291,0.22081079,0.94291514,0.16870458,0.13222586,-0.22623536,0.023702117
1747679493.621831,0.22081079,0.94291514,0.16870458,0.116246894,-0.15060164,-0.010386321
1747679493.6223636,0.22081079,0.94291514,0.16870458,0.116246894,-0.15060164,-0.010386321
1747679493.622894,0.21153662,0.9268074,0.15406114,0.116246894,-0.15060164,-0.010386321
1747679493.6234229,0.21153662,0.9268074,0.15406114,0.116246894,-0.15060164,-0.010386321
1747679493.6239512,0.21153662,0.9268074,0.15406114,0.116246894,-0.15060164,-0.010386321
1747679493.624481,0.21153662,0.9268074,0.15406114,0.116246894,-0.15060164,-0.010386321
1747679493.6250136,0.21153662,0.9268074,0.15406114,0.116246894,-0.15060164,-0.010386321
1747679493.6255434,0.21153662,0.9268074,0.15406114,0.116246894,-0.15060164,-0.010386321
1747679493.6260726,0.21153662,0.9268074,0.15406114,0.116246894,-0.15060164,-0.010386321
1747679493.626619,0.21153662,0.9268074,0.15406114,0.116246894,-0.15060164,-0.010386321
1747679493.6271908,0.21153662,0.9268074,0.15406114,0.116246894,-0.15060164,-0.010386321
1747679493.627749,0.21153662,0.9268074,0.15406114,0.116246894,-0.15060164,-0.010386321
1747679493.6282854,0.21153662,0.9268074,0.15406114,0.116246894,-0.15060164,-0.010386321
1747679493.6288085,0.21153662,0.9268074,0.15406114,0.116246894,-0.15060164,-0.010386321
1747679493.6293676,0.21153662,0.9268074,0.15406114,0.116246894,-0.15060164,-0.010386321
1747679493.6299005,0.21153662,0.9268074,0.15406114,0.116246894,-0.15060164,-0.010386321
1747679493.6304212,0.21153662,0.9268074,0.15406114,0.116246894,-0.15060164,-0.010386321
1747679493.6309404,0.21153662,0.9268074,0.15406114,0.116246894,-0.15060164,-0.010386321
1747679493.63146,0.18566655,0.9302242,0.14332262,0.084288985,-0.11118689,-0.013582111
1747679493.6319926,0.18566655,0.9302242,0.14332262,0.084288985,-0.11118689,-0.013582111
1747679493.6325126,0.18566655,0.9302242,0.14332262,0.084288985,-0.11118689,-0.013582111
1747679493.6330314,0.18566655,0.9302242,0.14332262,0.084288985,-0.11118689,-0.013582111
1747679493.6335604,0.18566655,0.9302242,0.14332262,0.084288985,-0.11118689,-0.013582111
1747679493.6340907,0.18566655,0.9302242,0.14332262,0.084288985,-0.11118689,-0.013582111
1747679493.6346114,0.18566655,0.9302242,0.14332262,0.084288985,-0.11118689,-0.013582111
1747679493.6351304,0.18566655,0.9302242,0.14332262,0.084288985,-0.11118689,-0.013582111
1747679493.635649,0.18566655,0.9302242,0.14332262,0.084288985,-0.11118689,-0.013582111
1747679493.6361675,0.18566655,0.9302242,0.14332262,0.084288985,-0.11118689,-0.013582111
1747679493.6366863,0.18566655,0.9302242,0.14332262,0.084288985,-0.11118689,-0.013582111
1747679493.637254,0.18566655,0.9302242,0.14332262,0.084288985,-0.11118689,-0.013582111
1747679493.6377747,0.18566655,0.9302242,0.14332262,0.084288985,-0.11118689,-0.013582111
1747679493.6382935,0.18566655,0.9302242,0.14332262,0.084288985,-0.11118689,-0.013582111
1747679493.6388123,0.18566655,0.9302242,0.14332262,0.084288985,-0.11118689,-0.013582111
1747679493.6393313,0.18566655,0.9302242,0.14332262,0.084288985,-0.11118689,-0.013582111
1747679493.6398497,0.18566655,0.9302242,0.14332262,0.084288985,-0.11118689,-0.013582111
1747679493.6403687,0.18566655,0.9302242,0.14332262,0.084288985,-0.11118689,-0.013582111
1747679493.6409056,0.18566655,0.9302242,0.14332262,0.084288985,-0.11118689,-0.013582111
1747679493.6414819,0.18566655,0.9302242,0.14332262,0.084288985,-0.11118689,-0.013582111
1747679493.6420355,0.15979649,0.955118,0.14332262,0.05872266,-0.09946899,0.006657898
1747679493.642589,0.15979649,0.955118,0.14332262,0.05872266,-0.09946899,0.006657898
1747679493.6431437,0.15979649,0.955118,0.14332262,0.05872266,-0.09946899,0.006657898
1747679493.6436813,0.15979649,0.955118,0.14332262,0.05872266,-0.09946899,0.006657898
1747679493.6442194,0.15979649,0.955118,0.14332262,0.05872266,-0.09946899,0.006657898
1747679493.6447406,0.15979649,0.955118,0.14332262,0.05872266,-0.09946899,0.006657898
1747679493.64526,0.15979649,0.955118,0.14332262,0.05872266,-0.09946899,0.006657898
1747679493.645779,0.15979649,0.955118,0.14332262,0.05872266,-0.09946899,0.006657898
1747679493.6462977,0.15979649,0.955118,0.14332262,0.05872266,-0.09946899,0.006657898
1747679493.6468163,0.15979649,0.955118,0.14332262,0.05872266,-0.09946899,0.006657898
1747679493.6473348,0.15979649,0.955118,0.14332262,0.05872266,-0.09946899,0.006657898
1747679493.6478534,0.15979649,0.955118,0.14332262,0.05872266,-0.09946899,0.006657898
1747679493.6483722,0.15979649,0.955118,0.14332262,0.05872266,-0.09946899,0.006657898
1747679493.648891,0.15979649,0.955118,0.14332262,0.05872266,-0.09946899,0.006657898
1747679493.64941,0.15784402,0.9648803,0.1530849,0.05872266,-0.09946899,0.006657898
1747679493.6499293,0.15784402,0.9648803,0.1530849,0.05872266,-0.09946899,0.006657898
1747679493.6504486,0.15784402,0.9648803,0.1530849,0.031025803,-0.08668583,0.04500739
1747679493.6509676,0.15784402,0.9648803,0.1530849,0.031025803,-0.08668583,0.04500739
1747679493.6514862,0.15784402,0.9648803,0.1530849,0.031025803,-0.08668583,0.04500739
1747679493.652005,0.15784402,0.9648803,0.1530849,0.031025803,-0.08668583,0.04500739
1747679493.6525233,0.15784402,0.9648803,0.1530849,0.031025803,-0.08668583,0.04500739
1747679493.6530478,0.15784402,0.9648803,0.1530849,0.031025803,-0.08668583,0.04500739
1747679493.6535664,0.15784402,0.9648803,0.1530849,0.031025803,-0.08668583,0.04500739
1747679493.6540933,0.15784402,0.9648803,0.1530849,0.031025803,-0.08668583,0.04500739
1747679493.6546268,0.15784402,0.9648803,0.1530849,0.031025803,-0.08668583,0.04500739
1747679493.6551476,0.15784402,0.9648803,0.1530849,0.031025803,-0.08668583,0.04500739
1747679493.6556664,0.15784402,0.9648803,0.1530849,0.031025803,-0.08668583,0.04500739
1747679493.6561854,0.15784402,0.9648803,0.1530849,0.031025803,-0.08668583,0.04500739
1747679493.656715,0.15784402,0.9648803,0.1530849,0.031025803,-0.08668583,0.04500739
1747679493.657284,0.15784402,0.9648803,0.1530849,0.031025803,-0.08668583,0.04500739
1747679493.6579318,0.15784402,0.9648803,0.1530849,0.031025803,-0.08668583,0.04500739
1747679493.6584854,0.15784402,0.9648803,0.1530849,0.031025803,-0.08668583,0.04500739
1747679493.6590192,0.15784402,0.9648803,0.1530849,0.031025803,-0.08668583,0.04500739
1747679493.6595542,0.15784402,0.9648803,0.1530849,0.031025803,-0.08668583,0.04500739
1747679493.6600878,0.15784402,0.9648803,0.1530849,0.031025803,-0.08668583,0.04500739
1747679493.660611,0.15784402,0.9648803,0.1530849,0.031025803,-0.08668583,0.04500739
1747679493.6611333,0.15784402,0.9648803,0.1530849,0.031025803,-0.08668583,0.04500739
1747679493.6616547,0.15784402,0.9648803,0.1530849,0.031025803,-0.08668583,0.04500739
1747679493.6621764,0.18615466,0.97757137,0.15747795,-0.011584742,-0.07496793,0.069508456
1747679493.6626961,0.18615466,0.97757137,0.15747795,-0.011584742,-0.07496793,0.069508456
1747679493.6632156,0.18615466,0.97757137,0.15747795,-0.011584742,-0.07496793,0.069508456
1747679493.6637342,0.18615466,0.97757137,0.15747795,-0.011584742,-0.07496793,0.069508456
1747679493.6642632,0.18615466,0.97757137,0.15747795,-0.011584742,-0.07496793,0.069508456
1747679493.664796,0.18615466,0.97757137,0.15747795,-0.011584742,-0.07496793,0.069508456
1747679493.6653194,0.18615466,0.97757137,0.15747795,-0.011584742,-0.07496793,0.069508456
1747679493.6658406,0.18615466,0.97757137,0.15747795,-0.011584742,-0.07496793,0.069508456
1747679493.666362,0.18615466,0.97757137,0.15747795,-0.011584742,-0.07496793,0.069508456
1747679493.6668835,0.18615466,0.97757137,0.15747795,-0.011584742,-0.07496793,0.069508456
1747679493.6674051,0.18615466,0.97757137,0.15747795,-0.011584742,-0.07496793,0.069508456
1747679493.6679268,0.18615466,0.97757137,0.15747795,-0.011584742,-0.07496793,0.069508456
1747679493.6684482,0.18615466,0.97757137,0.15747795,-0.011584742,-0.07496793,0.069508456
1747679493.6689694,0.18615466,0.97757137,0.15747795,-0.011584742,-0.07496793,0.069508456
1747679493.6694903,0.18615466,0.97757137,0.15747795,-0.011584742,-0.07496793,0.069508456
1747679493.670012,0.18615466,0.97757137,0.15747795,-0.011584742,-0.07496793,0.069508456
1747679493.670533,0.18615466,0.97757137,0.15747795,-0.011584742,-0.07496793,0.069508456
1747679493.671055,0.22373948,0.9834287,0.16479966,-0.011584742,-0.07496793,0.069508456
1747679493.6715775,0.22373948,0.9834287,0.16479966,-0.064847924,-0.031292118,0.0652474
1747679493.6720994,0.22373948,0.9834287,0.16479966,-0.064847924,-0.031292118,0.0652474
1747679493.6726353,0.22373948,0.9834287,0.16479966,-0.064847924,-0.031292118,0.0652474
1747679493.6732004,0.22373948,0.9834287,0.16479966,-0.064847924,-0.031292118,0.0652474
1747679493.6737564,0.22373948,0.9834287,0.16479966,-0.064847924,-0.031292118,0.0652474
1747679493.6743019,0.22373948,0.9834287,0.16479966,-0.064847924,-0.031292118,0.0652474
1747679493.6748295,0.22373948,0.9834287,0.16479966,-0.064847924,-0.031292118,0.0652474
1747679493.6753514,0.22373948,0.9834287,0.16479966,-0.064847924,-0.031292118,0.0652474
1747679493.6758728,0.22373948,0.9834287,0.16479966,-0.064847924,-0.031292118,0.0652474
1747679493.6764011,0.22373948,0.9834287,0.16479966,-0.064847924,-0.031292118,0.0652474
1747679493.6769228,0.22373948,0.9834287,0.16479966,-0.064847924,-0.031292118,0.0652474
1747679493.6774437,0.22373948,0.9834287,0.16479966,-0.064847924,-0.031292118,0.0652474
1747679493.6779652,0.22373948,0.9834287,0.16479966,-0.064847924,-0.031292118,0.0652474
1747679493.678486,0.22373948,0.9834287,0.16479966,-0.064847924,-0.031292118,0.0652474
1747679493.6790073,0.22373948,0.9834287,0.16479966,-0.064847924,-0.031292118,0.0652474
1747679493.6795316,0.22373948,0.9834287,0.16479966,-0.064847924,-0.031292118,0.0652474
1747679493.6800394,0.22373948,0.9834287,0.16479966,-0.064847924,-0.031292118,0.0652474
1747679493.680561,0.22373948,0.9834287,0.16479966,-0.064847924,-0.031292118,0.0652474
1747679493.6810799,0.22373948,0.9834287,0.16479966,-0.064847924,-0.031292118,0.0652474
1747679493.6815987,0.22373948,0.9834287,0.16479966,-0.064847924,-0.031292118,0.0652474
1747679493.6821175,0.22373948,0.9834287,0.16479966,-0.064847924,-0.031292118,0.0652474
1747679493.6826358,0.22373948,0.9834287,0.16479966,-0.064847924,-0.031292118,0.0652474
1747679493.6831546,0.22373948,0.9834287,0.16479966,-0.064847924,-0.031292118,0.0652474
1747679493.6836731,0.22373948,0.9834287,0.16479966,-0.064847924,-0.031292118,0.0652474
1747679493.6842039,0.22373948,0.9834287,0.16479966,-0.064847924,-0.031292118,0.0652474
1747679493.6847413,0.22373948,0.9834287,0.16479966,-0.064847924,-0.031292118,0.0652474
1747679493.685262,0.22373948,0.9834287,0.16479966,-0.064847924,-0.031292118,0.0652474
1747679493.6857815,0.25009766,0.9868455,0.1799312,-0.11171953,-0.012117374,0.03648528
1747679493.6863005,0.25009766,0.9868455,0.1799312,-0.11171953,-0.012117374,0.03648528
1747679493.6868188,0.25009766,0.9868455,0.1799312,-0.11171953,-0.012117374,0.03648528
1747679493.6873374,0.25009766,0.9868455,0.1799312,-0.11171953,-0.012117374,0.03648528
1747679493.6878564,0.25009766,0.9868455,0.1799312,-0.11171953,-0.012117374,0.03648528
1747679493.6884587,0.25009766,0.9868455,0.1799312,-0.11171953,-0.012117374,0.03648528
1747679493.6890442,0.25009766,0.9868455,0.1799312,-0.11171953,-0.012117374,0.03648528
1747679493.6895907,0.25009766,0.9868455,0.1799312,-0.11171953,-0.012117374,0.03648528
1747679493.690124,0.25009766,0.9868455,0.1799312,-0.11171953,-0.012117374,0.03648528
1747679493.6906443,0.25009766,0.9868455,0.1799312,-0.11171953,-0.012117374,0.03648528
1747679493.6911633,0.25009766,0.9868455,0.1799312,-0.11171953,-0.012117374,0.03648528
1747679493.6916823,0.25009766,0.9868455,0.1799312,-0.11171953,-0.012117374,0.03648528
1747679493.6922016,0.25009766,0.9868455,0.1799312,-0.11171953,-0.012117374,0.03648528
1747679493.6927204,0.25009766,0.9868455,0.1799312,-0.11171953,-0.012117374,0.03648528
1747679493.6932542,0.25009766,0.9868455,0.1799312,-0.11171953,-0.012117374,0.03648528
1747679493.6937926,0.25009766,0.9868455,0.1799312,-0.11171953,-0.012117374,0.03648528
1747679493.694313,0.25009766,0.9868455,0.1799312,-0.11171953,-0.012117374,0.03648528
1747679493.6948311,0.25009766,0.9868455,0.1799312,-0.11171953,-0.012117374,0.03648528
1747679493.69535,0.25009766,0.9868455,0.1799312,-0.11171953,-0.012117374,0.03648528
1747679493.6958687,0.25009766,0.9868455,0.1799312,-0.11171953,-0.012117374,0.03648528
1747679493.696387,0.25009766,0.9868455,0.1799312,-0.11171953,-0.012117374,0.03648528
1747679493.696906,0.26278865,0.9834287,0.20189635,-0.15752587,0.016644744,-0.027430538
1747679493.697425,0.26278865,0.9834287,0.20189635,-0.15752587,0.016644744,-0.027430538
1747679493.6979432,0.26278865,0.9834287,0.20189635,-0.15752587,0.016644744,-0.027430538
1747679493.6984644,0.26278865,0.9834287,0.20189635,-0.15752587,0.016644744,-0.027430538
1747679493.698983,0.26278865,0.9834287,0.20189635,-0.15752587,0.016644744,-0.027430538
1747679493.6995015,0.26278865,0.9834287,0.20189635,-0.15752587,0.016644744,-0.027430538
1747679493.70002,0.26278865,0.9834287,0.20189635,-0.15752587,0.016644744,-0.027430538
1747679493.7005382,0.26278865,0.9834287,0.20189635,-0.15752587,0.016644744,-0.027430538
1747679493.7010565,0.26278865,0.9834287,0.20189635,-0.15752587,0.016644744,-0.027430538
1747679493.7015948,0.26278865,0.9834287,0.20189635,-0.15752587,0.016644744,-0.027430538
1747679493.7021136,0.26278865,0.9834287,0.20189635,-0.15752587,0.016644744,-0.027430538
1747679493.7026322,0.26278865,0.9834287,0.20189635,-0.15752587,0.016644744,-0.027430538
1747679493.7031503,0.26278865,0.9834287,0.20189635,-0.15752587,0.016644744,-0.027430538
1747679493.703697,0.26278865,0.9834287,0.20189635,-0.15752587,0.016644744,-0.027430538
1747679493.7042527,0.24179971,0.96829706,0.23704061,-0.18309219,0.029427908,-0.10199899
1747679493.7048118,0.24179971,0.96829706,0.23704061,-0.18309219,0.029427908,-0.10199899
1747679493.7053492,0.24179971,0.96829706,0.23704061,-0.18309219,0.029427908,-0.10199899
1747679493.705902,0.24179971,0.96829706,0.23704061,-0.18309219,0.029427908,-0.10199899
1747679493.7064521,0.24179971,0.96829706,0.23704061,-0.18309219,0.029427908,-0.10199899
1747679493.706986,0.24179971,0.96829706,0.23704061,-0.18309219,0.029427908,-0.10199899
1747679493.707506,0.24179971,0.96829706,0.23704061,-0.18309219,0.029427908,-0.10199899
1747679493.708025,0.24179971,0.96829706,0.23704061,-0.18309219,0.029427908,-0.10199899
1747679493.7085438,0.24179971,0.96829706,0.23704061,-0.18309219,0.029427908,-0.10199899
1747679493.7090647,0.24179971,0.96829706,0.23704061,-0.18309219,0.029427908,-0.10199899
1747679493.709587,0.24179971,0.96829706,0.23704061,-0.18309219,0.029427908,-0.10199899
1747679493.7101064,0.24179971,0.96829706,0.23704061,-0.18309219,0.029427908,-0.10199899
1747679493.710625,0.24179971,0.96829706,0.23704061,-0.18309219,0.029427908,-0.10199899
1747679493.7111442,0.20811982,0.9580467,0.25656518,-0.18309219,0.018775271,-0.13821796
1747679493.7116632,0.20811982,0.9580467,0.25656518,-0.18309219,0.018775271,-0.13821796
1747679493.712182,0.20811982,0.9580467,0.25656518,-0.18309219,0.018775271,-0.13821796
1747679493.7127008,0.20811982,0.9580467,0.25656518,-0.18309219,0.018775271,-0.13821796
1747679493.7132194,0.20811982,0.9580467,0.25656518,-0.18309219,0.018775271,-0.13821796
1747679493.713747,0.20811982,0.9580467,0.25656518,-0.18309219,0.018775271,-0.13821796
1747679493.7142751,0.20811982,0.9580467,0.25656518,-0.18309219,0.018775271,-0.13821796
1747679493.7147958,0.20811982,0.9580467,0.25656518,-0.18309219,0.018775271,-0.13821796
1747679493.7153146,0.20811982,0.9580467,0.25656518,-0.18309219,0.018775271,-0.13821796
1747679493.7158332,0.20811982,0.9580467,0.25656518,-0.18309219,0.018775271,-0.13821796
1747679493.7163517,0.20811982,0.9580467,0.25656518,-0.18309219,0.018775271,-0.13821796
1747679493.7168705,0.20811982,0.9580467,0.25656518,-0.18309219,0.018775271,-0.13821796
1747679493.7173893,0.20811982,0.9580467,0.25656518,-0.18309219,0.018775271,-0.13821796
1747679493.7179081,0.20811982,0.9580467,0.25656518,-0.18309219,0.018775271,-0.13821796
1747679493.718453,0.20811982,0.9580467,0.25656518,-0.18309219,0.018775271,-0.13821796
1747679493.7190137,0.20811982,0.9580467,0.25656518,-0.18309219,0.018775271,-0.13821796
1747679493.7195823,0.20811982,0.9580467,0.25656518,-0.18309219,0.018775271,-0.13821796
1747679493.7201374,0.17492804,0.9360816,0.27853033,-0.18309219,0.018775271,-0.13821796
1747679493.720668,0.17492804,0.9360816,0.27853033,-0.18309219,0.018775271,-0.13821796
1747679493.7211905,0.17492804,0.9360816,0.27853033,-0.17776588,0.015579481,-0.14141375
1747679493.7217104,0.17492804,0.9360816,0.27853033,-0.17776588,0.015579481,-0.14141375
1747679493.72223,0.17492804,0.9360816,0.27853033,-0.17776588,0.015579481,-0.14141375
1747679493.7227497,0.17492804,0.9360816,0.27853033,-0.17776588,0.015579481,-0.14141375
1747679493.7232685,0.17492804,0.9360816,0.27853033,-0.17776588,0.015579481,-0.14141375
1747679493.723798,0.17492804,0.9360816,0.27853033,-0.17776588,0.015579481,-0.14141375
1747679493.7243285,0.17492804,0.9360816,0.27853033,-0.17776588,0.015579481,-0.14141375
1747679493.724849,0.17492804,0.9360816,0.27853033,-0.17776588,0.015579481,-0.14141375
1747679493.7253678,0.17492804,0.9360816,0.27853033,-0.17776588,0.015579481,-0.14141375
1747679493.725886,0.17492804,0.9360816,0.27853033,-0.17776588,0.015579481,-0.14141375
1747679493.726405,0.17492804,0.9360816,0.27853033,-0.17776588,0.015579481,-0.14141375
1747679493.7269235,0.17492804,0.9360816,0.27853033,-0.17776588,0.015579481,-0.14141375
1747679493.7274423,0.17492804,0.9360816,0.27853033,-0.17776588,0.015579481,-0.14141375
1747679493.7279608,0.17492804,0.9360816,0.27853033,-0.17776588,0.015579481,-0.14141375
1747679493.7284794,0.17492804,0.9360816,0.27853033,-0.17776588,0.015579481,-0.14141375
1747679493.7289987,0.17492804,0.9360816,0.27853033,-0.16391744,0.016644744,-0.11371689
1747679493.7295184,0.15735592,0.9194857,0.3073291,-0.16391744,0.016644744,-0.11371689
1747679493.7300394,0.15735592,0.9194857,0.3073291,-0.16391744,0.016644744,-0.11371689
1747679493.7305584,0.15735592,0.9194857,0.3073291,-0.16391744,0.016644744,-0.11371689
1747679493.7310853,0.15735592,0.9194857,0.3073291,-0.16391744,0.016644744,-0.11371689
1747679493.7316043,0.15735592,0.9194857,0.3073291,-0.16391744,0.016644744,-0.11371689
1747679493.7321224,0.15735592,0.9194857,0.3073291,-0.16391744,0.016644744,-0.11371689
1747679493.732641,0.15735592,0.9194857,0.3073291,-0.16391744,0.016644744,-0.11371689
1747679493.7331598,0.15735592,0.9194857,0.3073291,-0.16391744,0.016644744,-0.11371689
1747679493.7337089,0.15735592,0.9194857,0.3073291,-0.16391744,0.016644744,-0.11371689
1747679493.734264,0.15735592,0.9194857,0.3073291,-0.16391744,0.016644744,-0.11371689
1747679493.7348175,0.15735592,0.9194857,0.3073291,-0.16391744,0.016644744,-0.11371689
1747679493.73537,0.15735592,0.9194857,0.3073291,-0.16391744,0.016644744,-0.11371689
1747679493.7359169,0.15735592,0.9194857,0.3073291,-0.16391744,0.016644744,-0.11371689
1747679493.73645,0.15735592,0.9194857,0.3073291,-0.16391744,0.016644744,-0.11371689
1747679493.7369704,0.15735592,0.9194857,0.3073291,-0.16391744,0.016644744,-0.11371689
1747679493.7374892,0.15735592,0.9194857,0.3073291,-0.16391744,0.016644744,-0.11371689
1747679493.738008,0.15735592,0.9194857,0.3073291,-0.16391744,0.016644744,-0.11371689
1747679493.7385273,0.15735592,0.9194857,0.3073291,-0.16391744,0.016644744,-0.11371689
1747679493.7390466,0.15735592,0.9194857,0.3073291,-0.16391744,0.016644744,-0.11371689
1747679493.739566,0.15735592,0.9194857,0.3073291,-0.13728586,0.033688962,-0.07430214
1747679493.7400858,0.15930837,0.9131402,0.33027047,-0.13728586,0.033688962,-0.07430214
1747679493.7406046,0.15930837,0.9131402,0.33027047,-0.13728586,0.033688962,-0.07430214
1747679493.7411234,0.15930837,0.9131402,0.33027047,-0.13728586,0.033688962,-0.07430214
1747679493.7416422,0.15930837,0.9131402,0.33027047,-0.13728586,0.033688962,-0.07430214
1747679493.7421608,0.15930837,0.9131402,0.33027047,-0.13728586,0.033688962,-0.07430214
1747679493.7426798,0.15930837,0.9131402,0.33027047,-0.13728586,0.033688962,-0.07430214
1747679493.7431989,0.15930837,0.9131402,0.33027047,-0.13728586,0.033688962,-0.07430214
1747679493.7437277,0.15930837,0.9131402,0.33027047,-0.13728586,0.033688962,-0.07430214
1747679493.7442636,0.15930837,0.9131402,0.33027047,-0.13728586,0.033688962,-0.07430214
1747679493.7447839,0.15930837,0.9131402,0.33027047,-0.13728586,0.033688962,-0.07430214
1747679493.7453027,0.15930837,0.9131402,0.33027047,-0.13728586,0.033688962,-0.07430214
1747679493.7458212,0.15930837,0.9131402,0.33027047,-0.13728586,0.033688962,-0.07430214
1747679493.74634,0.15930837,0.9131402,0.33027047,-0.13728586,0.033688962,-0.07430214
1747679493.7468588,0.15930837,0.9131402,0.33027047,-0.13728586,0.033688962,-0.07430214
1747679493.7473774,0.15930837,0.9131402,0.33027047,-0.13728586,0.033688962,-0.07430214
1747679493.7478964,0.15930837,0.9131402,0.33027047,-0.13728586,0.033688962,-0.07430214
1747679493.748415,0.15930837,0.9131402,0.33027047,-0.13728586,0.033688962,-0.07430214
1747679493.7489662,0.15930837,0.9131402,0.33027047,-0.13728586,0.033688962,-0.07430214
1747679493.7495365,0.15930837,0.9131402,0.33027047,-0.13728586,0.033688962,-0.07430214
1747679493.750077,0.15930837,0.9131402,0.33027047,-0.13728586,0.033688962,-0.07430214
1747679493.7506192,0.15930837,0.9131402,0.33027047,-0.13728586,0.033688962,-0.07430214
1747679493.7512383,0.17199935,0.91118777,0.3512594,-0.13728586,0.033688962,-0.07430214
1747679493.751804,0.17199935,0.91118777,0.3512594,-0.10532794,0.051798444,-0.03914844
1747679493.752354,0.17199935,0.91118777,0.3512594,-0.10532794,0.051798444,-0.03914844
1747679493.7528868,0.17199935,0.91118777,0.3512594,-0.10532794,0.051798444,-0.03914844
1747679493.753407,0.17199935,0.91118777,0.3512594,-0.10532794,0.051798444,-0.03914844
1747679493.7539418,0.17199935,0.91118777,0.3512594,-0.10532794,0.051798444,-0.03914844
1747679493.7544754,0.17199935,0.91118777,0.3512594,-0.10532794,0.051798444,-0.03914844
1747679493.7549965,0.17199935,0.91118777,0.3512594,-0.10532794,0.051798444,-0.03914844
1747679493.7555153,0.17199935,0.91118777,0.3512594,-0.10532794,0.051798444,-0.03914844
1747679493.756034,0.17199935,0.91118777,0.3512594,-0.10532794,0.051798444,-0.03914844
1747679493.7565527,0.17199935,0.91118777,0.3512594,-0.10532794,0.051798444,-0.03914844
1747679493.757071,0.17199935,0.91118777,0.3512594,-0.10532794,0.051798444,-0.03914844
1747679493.7575898,0.17199935,0.91118777,0.3512594,-0.10532794,0.051798444,-0.03914844
1747679493.7581084,0.17199935,0.91118777,0.3512594,-0.10532794,0.051798444,-0.03914844
1747679493.7586267,0.17199935,0.91118777,0.3512594,-0.10532794,0.051798444,-0.03914844
1747679493.7591455,0.17199935,0.91118777,0.3512594,-0.10532794,0.051798444,-0.03914844
1747679493.7596645,0.17199935,0.91118777,0.3512594,-0.10532794,0.051798444,-0.03914844
1747679493.7601836,0.1910358,0.92143816,0.36980775,-0.10532794,0.051798444,-0.03914844
1747679493.7607026,0.1910358,0.92143816,0.36980775,-0.10532794,0.051798444,-0.03914844
1747679493.7612212,0.1910358,0.92143816,0.36980775,-0.10532794,0.051798444,-0.03914844
1747679493.7617404,0.1910358,0.92143816,0.36980775,-0.065913185,0.05925529,-0.01890843
1747679493.7622592,0.1910358,0.92143816,0.36980775,-0.065913185,0.05925529,-0.01890843
1747679493.7627773,0.1910358,0.92143816,0.36980775,-0.065913185,0.05925529,-0.01890843
1747679493.763296,0.1910358,0.92143816,0.36980775,-0.065913185,0.05925529,-0.01890843
1747679493.7638144,0.1910358,0.92143816,0.36980775,-0.065913185,0.05925529,-0.01890843
1747679493.7643669,0.1910358,0.92143816,0.36980775,-0.065913185,0.05925529,-0.01890843
1747679493.7649305,0.1910358,0.92143816,0.36980775,-0.065913185,0.05925529,-0.01890843
1747679493.7654579,0.1910358,0.92143816,0.36980775,-0.065913185,0.05925529,-0.01890843
1747679493.7659924,0.1910358,0.92143816,0.36980775,-0.065913185,0.05925529,-0.01890843
1747679493.7665586,0.1910358,0.92143816,0.36980775,-0.065913185,0.05925529,-0.01890843
1747679493.7671142,0.1910358,0.92143816,0.36980775,-0.065913185,0.05925529,-0.01890843
1747679493.767659,0.1910358,0.92143816,0.36980775,-0.065913185,0.05925529,-0.01890843
1747679493.7681956,0.1910358,0.92143816,0.36980775,-0.065913185,0.05925529,-0.01890843
1747679493.7687178,0.1910358,0.92143816,0.36980775,-0.065913185,0.05925529,-0.01890843
1747679493.76924,0.1910358,0.92143816,0.36980775,-0.065913185,0.05925529,-0.01890843
1747679493.769761,0.1910358,0.92143816,0.36980775,-0.065913185,0.05925529,-0.01890843
1747679493.770284,0.1910358,0.92143816,0.36980775,-0.065913185,0.05925529,-0.01890843
1747679493.7708063,0.2178821,0.94340324,0.38054627,-0.065913185,0.05925529,-0.01890843
1747679493.7713275,0.2178821,0.94340324,0.38054627,-0.065913185,0.05925529,-0.01890843
1747679493.7718494,0.2178821,0.94340324,0.38054627,-0.021172116,0.06245108,-0.024234748
1747679493.7723715,0.2178821,0.94340324,0.38054627,-0.021172116,0.06245108,-0.024234748
1747679493.7728932,0.2178821,0.94340324,0.38054627,-0.021172116,0.06245108,-0.024234748
1747679493.7734203,0.2178821,0.94340324,0.38054627,-0.021172116,0.06245108,-0.024234748
1747679493.773951,0.2178821,0.94340324,0.38054627,-0.021172116,0.06245108,-0.024234748
1747679493.774474,0.2178821,0.94340324,0.38054627,-0.021172116,0.06245108,-0.024234748
1747679493.774995,0.2178821,0.94340324,0.38054627,-0.021172116,0.06245108,-0.024234748
1747679493.7755165,0.2178821,0.94340324,0.38054627,-0.021172116,0.06245108,-0.024234748
1747679493.7760377,0.2178821,0.94340324,0.38054627,-0.021172116,0.06245108,-0.024234748
1747679493.7765589,0.2178821,0.94340324,0.38054627,-0.021172116,0.06245108,-0.024234748
1747679493.77708,0.2178821,0.94340324,0.38054627,-0.021172116,0.06245108,-0.024234748
1747679493.777601,0.2178821,0.94340324,0.38054627,-0.021172116,0.06245108,-0.024234748
1747679493.7781224,0.2178821,0.94340324,0.38054627,-0.021172116,0.06245108,-0.024234748
1747679493.7786434,0.2178821,0.94340324,0.38054627,-0.021172116,0.06245108,-0.024234748
1747679493.7791643,0.2178821,0.94340324,0.38054627,-0.021172116,0.06245108,-0.024234748
1747679493.77979,0.2178821,0.94340324,0.38054627,-0.021172116,0.06245108,-0.024234748
1747679493.7802482,0.2178821,0.94340324,0.38054627,-0.021172116,0.06245108,-0.024234748
1747679493.7807932,0.2178821,0.94340324,0.38054627,-0.021172116,0.06245108,-0.024234748
1747679493.7813194,0.2178821,0.94340324,0.38054627,-0.021172116,0.06245108,-0.024234748
1747679493.7818387,0.2178821,0.94340324,0.38054627,-0.021172116,0.06245108,-0.024234748
1747679493.7823853,0.2178821,0.94340324,0.38054627,-0.021172116,0.06245108,-0.024234748
1747679493.7829344,0.2178821,0.94340324,0.38054627,-0.021172116,0.06245108,-0.024234748
1747679493.7834864,0.2178821,0.94340324,0.38054627,-0.021172116,0.06245108,-0.024234748
1747679493.784054,0.2178821,0.94340324,0.38054627,0.00652474,0.09653952,-0.04554002
1747679493.7846093,0.22666818,0.94242704,0.36931962,0.00652474,0.09653952,-0.04554002
1747679493.785132,0.22666818,0.94242704,0.36931962,0.00652474,0.09653952,-0.04554002
1747679493.785651,0.22666818,0.94242704,0.36931962,0.00652474,0.09653952,-0.04554002
1747679493.7861705,0.22666818,0.94242704,0.36931962,0.00652474,0.09653952,-0.04554002
1747679493.7866893,0.22666818,0.94242704,0.36931962,0.00652474,0.09653952,-0.04554002
1747679493.7872078,0.22666818,0.94242704,0.36931962,0.00652474,0.09653952,-0.04554002
1747679493.7877266,0.22666818,0.94242704,0.36931962,0.00652474,0.09653952,-0.04554002
1747679493.788246,0.22666818,0.94242704,0.36931962,0.00652474,0.09653952,-0.04554002
1747679493.7887647,0.22666818,0.94242704,0.36931962,0.00652474,0.09653952,-0.04554002
1747679493.7892835,0.22666818,0.94242704,0.36931962,0.00652474,0.09653952,-0.04554002
1747679493.7898023,0.22666818,0.94242704,0.36931962,0.00652474,0.09653952,-0.04554002
1747679493.790321,0.22666818,0.94242704,0.36931962,0.00652474,0.09653952,-0.04554002
1747679493.79084,0.22666818,0.94242704,0.36931962,0.00652474,0.09653952,-0.04554002
1747679493.791358,0.22666818,0.94242704,0.36931962,0.00652474,0.09653952,-0.04554002
1747679493.791876,0.22666818,0.94242704,0.36931962,0.00652474,0.09653952,-0.04554002
1747679493.7923944,0.22666818,0.94242704,0.36931962,0.00652474,0.09653952,-0.04554002
1747679493.7929149,0.22666818,0.94242704,0.36931962,0.00652474,0.09653952,-0.04554002
1747679493.7934365,0.20519114,0.93120044,0.34344956,0.026764749,0.1647164,-0.07217161
1747679493.7939644,0.20519114,0.93120044,0.34344956,0.026764749,0.1647164,-0.07217161
1747679493.794499,0.20519114,0.93120044,0.34344956,0.026764749,0.1647164,-0.07217161
1747679493.7950416,0.20519114,0.93120044,0.34344956,0.026764749,0.1647164,-0.07217161
1747679493.7955937,0.20519114,0.93120044,0.34344956,0.026764749,0.1647164,-0.07217161
1747679493.7961197,0.20519114,0.93120044,0.34344956,0.026764749,0.1647164,-0.07217161
1747679493.796639,0.20519114,0.93120044,0.34344956,0.026764749,0.1647164,-0.07217161
1747679493.7971582,0.20519114,0.93120044,0.34344956,0.026764749,0.1647164,-0.07217161
1747679493.7976768,0.20519114,0.93120044,0.34344956,0.026764749,0.1647164,-0.07217161
1747679493.798208,0.20519114,0.93120044,0.34344956,0.026764749,0.1647164,-0.07217161
1747679493.7987647,0.20519114,0.93120044,0.34344956,0.026764749,0.1647164,-0.07217161
1747679493.799314,0.20519114,0.93120044,0.34344956,0.026764749,0.1647164,-0.07217161
1747679493.7998471,0.20519114,0.93120044,0.34344956,0.026764749,0.1647164,-0.07217161
1747679493.8003676,0.20519114,0.93120044,0.34344956,0.026764749,0.1647164,-0.07217161
1747679493.8008866,0.20519114,0.93120044,0.34344956,0.026764749,0.1647164,-0.07217161
1747679493.8014054,0.20519114,0.93120044,0.34344956,0.026764749,0.1647164,-0.07217161
1747679493.8019247,0.20519114,0.93120044,0.34344956,0.026764749,0.1647164,-0.07217161
1747679493.8024437,0.20519114,0.93120044,0.34344956,0.026764749,0.1647164,-0.07217161
1747679493.8029835,0.15247476,0.9302242,0.32246062,0.03528686,0.20306589,-0.06684529
1747679493.803503,0.15247476,0.9302242,0.32246062,0.03528686,0.20306589,-0.06684529
1747679493.804034,0.15247476,0.9302242,0.32246062,0.03528686,0.20306589,-0.06684529
1747679493.8045726,0.15247476,0.9302242,0.32246062,0.03528686,0.20306589,-0.06684529
1747679493.8050928,0.15247476,0.9302242,0.32246062,0.03528686,0.20306589,-0.06684529
1747679493.8056116,0.15247476,0.9302242,0.32246062,0.03528686,0.20306589,-0.06684529
1747679493.8061302,0.15247476,0.9302242,0.32246062,0.03528686,0.20306589,-0.06684529
1747679493.8066487,0.15247476,0.9302242,0.32246062,0.03528686,0.20306589,-0.06684529
1747679493.8071675,0.15247476,0.9302242,0.32246062,0.03528686,0.20306589,-0.06684529
1747679493.8076863,0.15247476,0.9302242,0.32246062,0.03528686,0.20306589,-0.06684529
1747679493.808205,0.15247476,0.9302242,0.32246062,0.03528686,0.20306589,-0.06684529
1747679493.8087234,0.15247476,0.9302242,0.32246062,0.03528686,0.20306589,-0.06684529
1747679493.809242,0.15247476,0.9302242,0.32246062,0.03528686,0.20306589,-0.06684529
1747679493.8097606,0.15247476,0.9302242,0.32246062,0.03528686,0.20306589,-0.06684529
1747679493.8103101,0.15247476,0.9302242,0.32246062,0.03528686,0.20306589,-0.06684529
1747679493.8108928,0.15247476,0.9302242,0.32246062,0.03528686,0.20306589,-0.06684529
1747679493.8114498,0.15247476,0.9302242,0.32246062,0.03528686,0.20306589,-0.06684529
1747679493.8120086,0.15247476,0.9302242,0.32246062,0.03528686,0.20306589,-0.06684529
1747679493.8125765,0.15247476,0.9302242,0.32246062,0.03528686,0.20306589,-0.06684529
1747679493.8131373,0.15247476,0.9302242,0.32246062,0.03528686,0.20306589,-0.06684529
1747679493.8136919,0.11147315,0.9194857,0.3107459,0.03528686,0.20306589,-0.06684529
1747679493.8142498,0.11147315,0.9194857,0.3107459,0.03528686,0.20306589,-0.06684529
1747679493.8148015,0.11147315,0.9194857,0.3107459,0.050200548,0.19880483,0.0045273704
1747679493.8153288,0.11147315,0.9194857,0.3107459,0.050200548,0.19880483,0.0045273704
1747679493.8158517,0.11147315,0.9194857,0.3107459,0.050200548,0.19880483,0.0045273704
1747679493.8163743,0.11147315,0.9194857,0.3107459,0.050200548,0.19880483,0.0045273704
1747679493.816897,0.11147315,0.9194857,0.3107459,0.050200548,0.19880483,0.0045273704
1747679493.8174198,0.11147315,0.9194857,0.3107459,0.050200548,0.19880483,0.0045273704
1747679493.8179424,0.11147315,0.9194857,0.3107459,0.050200548,0.19880483,0.0045273704
1747679493.8184679,0.11147315,0.9194857,0.3107459,0.050200548,0.19880483,0.0045273704
1747679493.8189912,0.11147315,0.9194857,0.3107459,0.050200548,0.19880483,0.0045273704
1747679493.8195171,0.12074733,0.9097234,0.3151389,0.06511424,0.1498027,0.08442214
1747679493.8200421,0.12074733,0.9097234,0.3151389,0.06511424,0.1498027,0.08442214
1747679493.8205655,0.12074733,0.9097234,0.3151389,0.06511424,0.1498027,0.08442214
1747679493.8210897,0.12074733,0.9097234,0.3151389,0.06511424,0.1498027,0.08442214
1747679493.8216126,0.12074733,0.9097234,0.3151389,0.06511424,0.1498027,0.08442214
1747679493.822135,0.12074733,0.9097234,0.3151389,0.06511424,0.1498027,0.08442214
1747679493.8226576,0.12074733,0.9097234,0.3151389,0.06511424,0.1498027,0.08442214
1747679493.8231823,0.12074733,0.9097234,0.3151389,0.06511424,0.1498027,0.08442214
1747679493.8237264,0.12074733,0.9097234,0.3151389,0.06511424,0.1498027,0.08442214
1747679493.8242724,0.12074733,0.9097234,0.3151389,0.06511424,0.1498027,0.08442214
1747679493.8247974,0.12074733,0.9097234,0.3151389,0.06511424,0.1498027,0.08442214
1747679493.8253202,0.12074733,0.9097234,0.3151389,0.06511424,0.1498027,0.08442214
1747679493.825868,0.12074733,0.9097234,0.3151389,0.06511424,0.1498027,0.08442214
1747679493.8264072,0.12074733,0.9097234,0.3151389,0.06511424,0.1498027,0.08442214
1747679493.826931,0.12074733,0.9097234,0.3151389,0.06511424,0.1498027,0.08442214
1747679493.8274763,0.12074733,0.9097234,0.3151389,0.06511424,0.1498027,0.08442214
1747679493.8280332,0.12074733,0.9097234,0.3151389,0.06511424,0.1498027,0.08442214
1747679493.828591,0.12074733,0.9097234,0.3151389,0.06511424,0.1498027,0.08442214
1747679493.8291776,0.12074733,0.9097234,0.3151389,0.06511424,0.1498027,0.08442214
1747679493.8298216,0.12074733,0.9097234,0.3151389,0.06511424,0.1498027,0.08442214
1747679493.8304381,0.12074733,0.9097234,0.3151389,0.06511424,0.1498027,0.08442214
1747679493.8309963,0.12074733,0.9097234,0.3151389,0.06511424,0.1498027,0.08442214
1747679493.8315287,0.16418952,0.90386605,0.33905652,0.06937529,0.0912132,0.14940323
1747679493.8320532,0.16418952,0.90386605,0.33905652,0.06937529,0.0912132,0.14940323
1747679493.8325758,0.16418952,0.90386605,0.33905652,0.06937529,0.0912132,0.14940323
1747679493.8330986,0.16418952,0.90386605,0.33905652,0.06937529,0.0912132,0.14940323
1747679493.833621,0.16418952,0.90386605,0.33905652,0.06937529,0.0912132,0.14940323
1747679493.8341637,0.16418952,0.90386605,0.33905652,0.06937529,0.0912132,0.14940323
1747679493.8347104,0.16418952,0.90386605,0.33905652,0.06937529,0.0912132,0.14940323
1747679493.8352356,0.16418952,0.90386605,0.33905652,0.06937529,0.0912132,0.14940323
1747679493.8357587,0.16418952,0.90386605,0.33905652,0.06937529,0.0912132,0.14940323
1747679493.8362808,0.16418952,0.90386605,0.33905652,0.06937529,0.0912132,0.14940323
1747679493.8368034,0.16418952,0.90386605,0.33905652,0.06937529,0.0912132,0.14940323
1747679493.8373442,0.16418952,0.90386605,0.33905652,0.06937529,0.0912132,0.14940323
1747679493.8378675,0.16418952,0.90386605,0.33905652,0.06937529,0.0912132,0.14940323
1747679493.8383899,0.16418952,0.90386605,0.33905652,0.06937529,0.0912132,0.14940323
1747679493.838912,0.16418952,0.90386605,0.33905652,0.06937529,0.0912132,0.14940323
1747679493.8394337,0.16418952,0.90386605,0.33905652,0.06937529,0.0912132,0.14940323
1747679493.8399546,0.16418952,0.90386605,0.33905652,0.06937529,0.0912132,0.14940323
1747679493.8404734,0.16418952,0.90386605,0.33905652,0.06937529,0.0912132,0.14940323
1747679493.841046,0.16418952,0.90386605,0.33905652,0.06937529,0.0912132,0.14940323
1747679493.8416054,0.16418952,0.90386605,0.33905652,0.06937529,0.0912132,0.14940323
1747679493.8421452,0.16418952,0.90386605,0.33905652,0.06937529,0.0912132,0.14940323
1747679493.842676,0.16418952,0.90386605,0.33905652,0.06937529,0.0912132,0.14940323
1747679493.843215,0.16418952,0.90386605,0.33905652,0.06937529,0.0912132,0.14940323
1747679493.8437605,0.16418952,0.90386605,0.33905652,0.06937529,0.0912132,0.14940323
1747679493.8443036,0.16418952,0.90386605,0.33905652,0.06937529,0.0912132,0.14940323
1747679493.8448658,0.16418952,0.90386605,0.33905652,0.06937529,0.0912132,0.14940323
1747679493.8454075,0.16418952,0.90386605,0.33905652,0.06937529,0.0912132,0.14940323
1747679493.8460252,0.16418952,0.90386605,0.33905652,0.06937529,0.0912132,0.14940323
1747679493.8465462,0.16418952,0.90386605,0.33905652,0.06937529,0.0912132,0.14940323
1747679493.847065,0.16418952,0.90386605,0.33905652,0.06937529,0.0912132,0.14940323
1747679493.847584,0.16418952,0.90386605,0.33905652,0.06937529,0.0912132,0.14940323
1747679493.8481023,0.16418952,0.90386605,0.33905652,0.06937529,0.0912132,0.14940323
1747679493.8486214,0.16418952,0.90386605,0.33905652,0.06937529,0.0912132,0.14940323
1747679493.84914,0.16418952,0.90386605,0.33905652,0.06937529,0.0912132,0.14940323
1747679493.849659,0.16418952,0.90386605,0.33905652,0.06937529,0.0912132,0.14940323
1747679493.8501775,0.16418952,0.90386605,0.33905652,0.06937529,0.0912132,0.14940323
1747679493.850696,0.16418952,0.90386605,0.33905652,0.06937529,0.0912132,0.14940323
1747679493.851215,0.16418952,0.90386605,0.33905652,0.06937529,0.0912132,0.14940323
1747679493.8517332,0.16418952,0.90386605,0.33905652,0.06937529,0.0912132,0.14940323
1747679493.852252,0.16418952,0.90386605,0.33905652,0.06937529,0.0912132,0.14940323
1747679493.8527708,0.16418952,0.90386605,0.33905652,0.06937529,0.0912132,0.14940323
1747679493.8532891,0.16418952,0.90386605,0.33905652,0.06937529,0.0912132,0.14940323
1747679493.8538268,0.16418952,0.90386605,0.33905652,0.06937529,0.0912132,0.14940323
1747679493.8543673,0.16418952,0.90386605,0.33905652,0.06937529,0.0912132,0.14940323
1747679493.854888,0.16418952,0.90386605,0.33905652,0.06937529,0.0912132,0.14940323
1747679493.8554065,0.16418952,0.90386605,0.33905652,0.06937529,0.0912132,0.14940323
1747679493.8559256,0.16418952,0.90386605,0.33905652,0.06937529,0.0912132,0.14940323
1747679493.8564677,0.16418952,0.90386605,0.33905652,0.06937529,0.0912132,0.14940323
1747679493.857015,0.16418952,0.90386605,0.33905652,0.06937529,0.0912132,0.14940323
1747679493.8575513,0.16418952,0.90386605,0.33905652,0.06937529,0.0912132,0.14940323
1747679493.858073,0.16418952,0.90386605,0.33905652,0.06937529,0.0912132,0.14940323
1747679493.858592,0.16418952,0.90386605,0.33905652,0.06937529,0.0912132,0.14940323
1747679493.8591106,0.16418952,0.90386605,0.33905652,0.06937529,0.0912132,0.14940323
1747679493.8596296,0.16418952,0.90386605,0.33905652,0.06937529,0.0912132,0.14940323
1747679493.8601823,0.16418952,0.90386605,0.33905652,0.06937529,0.0912132,0.14940323
1747679493.8607423,0.16418952,0.90386605,0.33905652,0.06937529,0.0912132,0.14940323
1747679493.8613048,0.16418952,0.90386605,0.33905652,0.06937529,0.0912132,0.14940323
1747679493.86183,0.16418952,0.90386605,0.33905652,0.06937529,0.0912132,0.14940323
1747679493.8623495,0.16418952,0.90386605,0.33905652,0.06937529,0.0912132,0.14940323
1747679493.8628685,0.16418952,0.90386605,0.33905652,0.06937529,0.0912132,0.14940323
1747679493.8633873,0.16418952,0.90386605,0.33905652,0.06937529,0.0912132,0.14940323
1747679493.8639205,0.16418952,0.90386605,0.33905652,0.06937529,0.0912132,0.14940323
1747679493.8644633,0.16418952,0.90386605,0.33905652,0.06937529,0.0912132,0.14940323
1747679493.8649864,0.16418952,0.90386605,0.33905652,0.06937529,0.0912132,0.14940323
1747679493.8655078,0.16418952,0.90386605,0.33905652,0.06937529,0.0912132,0.14940323
1747679493.8660295,0.16418952,0.90386605,0.33905652,0.06937529,0.0912132,0.14940323
1747679493.8665507,0.16418952,0.90386605,0.33905652,0.06937529,0.0912132,0.14940323
1747679493.8670726,0.16418952,0.90386605,0.33905652,0.06937529,0.0912132,0.14940323
1747679493.8675938,0.16418952,0.90386605,0.33905652,0.06937529,0.0912132,0.14940323
1747679493.8681147,0.16418952,0.90386605,0.33905652,0.06937529,0.0912132,0.14940323
1747679493.8686361,0.16418952,0.90386605,0.33905652,0.06937529,0.0912132,0.14940323
1747679493.8691576,0.16418952,0.90386605,0.33905652,0.06937529,0.0912132,0.14940323
1747679493.8696787,0.16418952,0.90386605,0.33905652,0.06937529,0.0912132,0.14940323
1747679493.8702,0.16418952,0.90386605,0.33905652,0.06937529,0.0912132,0.14940323
1747679493.870721,0.16418952,0.90386605,0.33905652,0.06937529,0.0912132,0.14940323
1747679493.8712444,0.16418952,0.90386605,0.33905652,0.06937529,0.0912132,0.14940323
1747679493.8718414,0.16418952,0.90386605,0.33905652,0.06937529,0.0912132,0.14940323
1747679493.8724017,0.16418952,0.90386605,0.33905652,0.06937529,0.0912132,0.14940323
1747679493.8729484,0.16418952,0.90386605,0.33905652,0.06937529,0.0912132,0.14940323
1747679493.873476,0.16418952,0.90386605,0.33905652,0.06937529,0.0912132,0.14940323
1747679493.8740072,0.41117546,0.8833653,0.46450198,0.03315633,-0.01957422,-0.028495802
1747679493.8745387,0.41117546,0.8833653,0.46450198,0.03315633,-0.01957422,-0.028495802
1747679493.875062,0.41117546,0.8833653,0.46450198,0.03315633,-0.01957422,-0.028495802
1747679493.875584,0.41117546,0.8833653,0.46450198,0.03315633,-0.01957422,-0.028495802
1747679493.876114,0.41117546,0.8833653,0.46450198,0.03315633,-0.01957422,-0.028495802
1747679493.8767004,0.42825943,0.8955681,0.532838,0.03315633,-0.01957422,-0.028495802
1747679493.877252,0.42825943,0.8955681,0.532838,0.03315633,-0.01957422,-0.028495802
1747679493.8777878,0.42825943,0.8955681,0.532838,0.03315633,-0.01957422,-0.028495802
1747679493.8783104,0.42825943,0.8955681,0.532838,0.03315633,-0.01957422,-0.028495802
1747679493.878832,0.42825943,0.8955681,0.532838,0.03315633,-0.01957422,-0.028495802
1747679493.8793535,0.42825943,0.8955681,0.532838,0.03315633,-0.01957422,-0.028495802
1747679493.8798783,0.42825943,0.8955681,0.532838,0.03315633,-0.01957422,-0.028495802
1747679493.8803868,0.42825943,0.8955681,0.532838,0.03315633,-0.01957422,-0.028495802
1747679493.8809066,0.42825943,0.8955681,0.532838,0.03315633,-0.01957422,-0.028495802
1747679493.8814254,0.42825943,0.8955681,0.532838,0.03315633,-0.01957422,-0.028495802
1747679493.8819437,0.42825943,0.8955681,0.532838,0.03315633,-0.01957422,-0.028495802
1747679493.8824625,0.42825943,0.8955681,0.532838,0.03315633,-0.01957422,-0.028495802
1747679493.882981,0.42825943,0.8955681,0.532838,0.03315633,-0.01957422,-0.028495802
1747679493.8834999,0.42825943,0.8955681,0.532838,0.03315633,-0.01957422,-0.028495802
1747679493.8840191,0.4165447,0.89459187,0.5650536,0.03315633,-0.01957422,-0.028495802
1747679493.884548,0.4165447,0.89459187,0.5650536,0.03315633,-0.01957422,-0.028495802
1747679493.8850775,0.4165447,0.89459187,0.5650536,0.043808967,0.10825742,-0.1105211
1747679493.8855977,0.4165447,0.89459187,0.5650536,0.043808967,0.10825742,-0.1105211
1747679493.8861165,0.4165447,0.89459187,0.5650536,0.043808967,0.10825742,-0.1105211
1747679493.8866353,0.4165447,0.89459187,0.5650536,0.043808967,0.10825742,-0.1105211
1747679493.8872097,0.4165447,0.89459187,0.5650536,0.043808967,0.10825742,-0.1105211
1747679493.8877716,0.4165447,0.89459187,0.5650536,0.043808967,0.10825742,-0.1105211
1747679493.888332,0.4165447,0.89459187,0.5650536,0.043808967,0.10825742,-0.1105211
1747679493.8888814,0.4165447,0.89459187,0.5650536,0.043808967,0.10825742,-0.1105211
1747679493.8894281,0.4165447,0.89459187,0.5650536,0.043808967,0.10825742,-0.1105211
1747679493.889984,0.4165447,0.89459187,0.5650536,0.043808967,0.10825742,-0.1105211
1747679493.8905442,0.4165447,0.89459187,0.5650536,0.043808967,0.10825742,-0.1105211
1747679493.8911107,0.4165447,0.89459187,0.5650536,0.043808967,0.10825742,-0.1105211
1747679493.891664,0.4165447,0.89459187,0.5650536,0.043808967,0.10825742,-0.1105211
1747679493.8922212,0.4165447,0.89459187,0.5650536,0.043808967,0.10825742,-0.1105211
1747679493.892853,0.4165447,0.89459187,0.5650536,0.043808967,0.10825742,-0.1105211
1747679493.8934085,0.4165447,0.89459187,0.5650536,0.043808967,0.10825742,-0.1105211
1747679493.89397,0.4165447,0.89459187,0.5650536,0.043808967,0.10825742,-0.1105211
1747679493.8945293,0.4165447,0.89459187,0.5650536,0.043808967,0.10825742,-0.1105211
1747679493.8950846,0.4165447,0.89459187,0.5650536,0.043808967,0.10825742,-0.1105211
1747679493.8956363,0.4165447,0.89459187,0.5650536,0.043808967,0.10825742,-0.1105211
1747679493.8961976,0.4165447,0.89459187,0.5650536,0.043808967,0.10825742,-0.1105211
1747679493.896758,0.33014846,0.8535902,0.575304,0.043808967,0.10825742,-0.1105211
1747679493.8973124,0.33014846,0.8535902,0.575304,0.043808967,0.10825742,-0.1105211
1747679493.8978589,0.33014846,0.8535902,0.575304,0.043808967,0.10825742,-0.1105211
1747679493.8984103,0.33014846,0.8535902,0.575304,0.043808967,0.10825742,-0.1105211
1747679493.8989747,0.33014846,0.8535902,0.575304,0.043808967,0.10825742,-0.1105211
1747679493.899534,0.33014846,0.8535902,0.575304,0.13009532,0.41185755,-0.25007063
1747679493.9000916,0.33014846,0.8535902,0.575304,0.13009532,0.41185755,-0.25007063
1747679493.900645,0.33014846,0.8535902,0.575304,0.13009532,0.41185755,-0.25007063
1747679493.9011955,0.33014846,0.8535902,0.575304,0.13009532,0.41185755,-0.25007063
1747679493.901758,0.33014846,0.8535902,0.575304,0.13009532,0.41185755,-0.25007063
1747679493.9023755,0.33014846,0.8535902,0.575304,0.13009532,0.41185755,-0.25007063
1747679493.9029253,0.33014846,0.8535902,0.575304,0.13009532,0.41185755,-0.25007063
1747679493.9034772,0.33014846,0.8535902,0.575304,0.13009532,0.41185755,-0.25007063
1747679493.9040444,0.33014846,0.8535902,0.575304,0.13009532,0.41185755,-0.25007063
1747679493.9046009,0.23008497,0.83064884,0.51770645,0.22596905,0.60573554,-0.28842014
1747679493.9051616,0.23008497,0.83064884,0.51770645,0.22596905,0.60573554,-0.28842014
1747679493.905725,0.23008497,0.83064884,0.51770645,0.22596905,0.60573554,-0.28842014
1747679493.9062848,0.23008497,0.83064884,0.51770645,0.22596905,0.60573554,-0.28842014
1747679493.906843,0.23008497,0.83064884,0.51770645,0.22596905,0.60573554,-0.28842014
1747679493.9074101,0.23008497,0.83064884,0.51770645,0.22596905,0.60573554,-0.28842014
1747679493.9079697,0.23008497,0.83064884,0.51770645,0.22596905,0.60573554,-0.28842014
1747679493.9085665,0.23008497,0.83064884,0.51770645,0.22596905,0.60573554,-0.28842014
1747679493.9091296,0.23008497,0.83064884,0.51770645,0.22596905,0.60573554,-0.28842014
1747679493.9097033,0.23008497,0.83064884,0.51770645,0.22596905,0.60573554,-0.28842014
1747679493.9102468,0.23008497,0.83064884,0.51770645,0.22596905,0.60573554,-0.28842014
1747679493.910776,0.23008497,0.83064884,0.51770645,0.22596905,0.60573554,-0.28842014
1747679493.9112992,0.23008497,0.83064884,0.51770645,0.22596905,0.60573554,-0.28842014
1747679493.9118445,0.1368551,0.81307673,0.4596208,0.30266804,0.6984135,-0.26391906
1747679493.912398,0.1368551,0.81307673,0.4596208,0.30266804,0.6984135,-0.26391906
1747679493.9129593,0.1368551,0.81307673,0.4596208,0.30266804,0.6984135,-0.26391906
1747679493.9135242,0.1368551,0.81307673,0.4596208,0.30266804,0.6984135,-0.26391906
1747679493.91409,0.1368551,0.81307673,0.4596208,0.30266804,0.6984135,-0.26391906
1747679493.9146388,0.1368551,0.81307673,0.4596208,0.30266804,0.6984135,-0.26391906
1747679493.9151866,0.1368551,0.81307673,0.4596208,0.30266804,0.6984135,-0.26391906
1747679493.9157395,0.1368551,0.81307673,0.4596208,0.30266804,0.6984135,-0.26391906
1747679493.9162893,0.1368551,0.81307673,0.4596208,0.30266804,0.6984135,-0.26391906
1747679493.9168203,0.1368551,0.81307673,0.4596208,0.30266804,0.6984135,-0.26391906
1747679493.9173532,0.1368551,0.81307673,0.4596208,0.30266804,0.6984135,-0.26391906
1747679493.917896,0.1368551,0.81307673,0.4596208,0.30266804,0.6984135,-0.26391906
1747679493.918433,0.1368551,0.81307673,0.4596208,0.30266804,0.6984135,-0.26391906
1747679493.9189565,0.1368551,0.81307673,0.4596208,0.30266804,0.6984135,-0.26391906
1747679493.919479,0.1368551,0.81307673,0.4596208,0.30266804,0.6984135,-0.26391906
1747679493.920001,0.1368551,0.81307673,0.4596208,0.30266804,0.6984135,-0.26391906
1747679493.9205234,0.1368551,0.81307673,0.4596208,0.30266804,0.6984135,-0.26391906
1747679493.921046,0.1368551,0.81307673,0.4596208,0.30266804,0.6984135,-0.26391906
1747679493.9215684,0.1368551,0.81307673,0.4596208,0.30266804,0.6984135,-0.26391906
1747679493.9220955,0.1368551,0.81307673,0.4596208,0.30266804,0.6984135,-0.26391906
1747679493.9226718,0.1368551,0.81307673,0.4596208,0.30266804,0.6984135,-0.26391906
1747679493.9232442,0.020195737,0.7920878,0.38005817,0.30266804,0.6984135,-0.26391906
1747679493.923797,0.020195737,0.7920878,0.38005817,0.38788912,0.63449764,-0.13502216
1747679493.9243503,0.020195737,0.7920878,0.38005817,0.38788912,0.63449764,-0.13502216
1747679493.9248993,0.020195737,0.7920878,0.38005817,0.38788912,0.63449764,-0.13502216
1747679493.9254405,0.020195737,0.7920878,0.38005817,0.38788912,0.63449764,-0.13502216
1747679493.9260325,0.020195737,0.7920878,0.38005817,0.38788912,0.63449764,-0.13502216
1747679493.9265866,0.020195737,0.7920878,0.38005817,0.38788912,0.63449764,-0.13502216
1747679493.9271436,0.020195737,0.7920878,0.38005817,0.38788912,0.63449764,-0.13502216
1747679493.9277039,0.020195737,0.7920878,0.38005817,0.38788912,0.63449764,-0.13502216
1747679493.9282598,0.020195737,0.7920878,0.38005817,0.38788912,0.63449764,-0.13502216
1747679493.928805,0.020195737,0.7920878,0.38005817,0.38788912,0.63449764,-0.13502216
1747679493.9293537,0.020195737,0.7920878,0.38005817,0.38788912,0.63449764,-0.13502216
1747679493.9299254,0.020195737,0.7920878,0.38005817,0.38788912,0.63449764,-0.13502216
1747679493.930486,0.020195737,0.7920878,0.38005817,0.38788912,0.63449764,-0.13502216
1747679493.9311423,0.020195737,0.7920878,0.38005817,0.38788912,0.63449764,-0.13502216
1747679493.9316983,0.020195737,0.7920878,0.38005817,0.38788912,0.63449764,-0.13502216
1747679493.9322586,-0.014460391,0.7662177,0.3615098,0.42730388,0.42357546,0.04607265
1747679493.9328156,-0.014460391,0.7662177,0.3615098,0.42730388,0.42357546,0.04607265
1747679493.9334288,-0.014460391,0.7662177,0.3615098,0.42730388,0.42357546,0.04607265
1747679493.933984,-0.014460391,0.7662177,0.3615098,0.42730388,0.42357546,0.04607265
1747679493.9345472,-0.014460391,0.7662177,0.3615098,0.42730388,0.42357546,0.04607265
1747679493.9351141,-0.014460391,0.7662177,0.3615098,0.42730388,0.42357546,0.04607265
1747679493.9356515,-0.014460391,0.7662177,0.3615098,0.42730388,0.42357546,0.04607265
1747679493.9361897,-0.014460391,0.7662177,0.3615098,0.42730388,0.42357546,0.04607265
1747679493.9367266,-0.014460391,0.7662177,0.3615098,0.42730388,0.42357546,0.04607265
1747679493.9372525,-0.014460391,0.7662177,0.3615098,0.42730388,0.42357546,0.04607265
1747679493.9377816,-0.014460391,0.7662177,0.3615098,0.42730388,0.42357546,0.04607265
1747679493.9383419,-0.014460391,0.7662177,0.3615098,0.42730388,0.42357546,0.04607265
1747679493.9388666,-0.014460391,0.7662177,0.3615098,0.42730388,0.42357546,0.04607265
1747679493.939422,-0.014460391,0.7662177,0.3615098,0.42730388,0.42357546,0.04607265
1747679493.9399612,-0.014460391,0.7662177,0.3615098,0.42730388,0.42357546,0.04607265
1747679493.940497,-0.014460391,0.7662177,0.3615098,0.42730388,0.42357546,0.04607265
1747679493.9410222,-0.014460391,0.7662177,0.3615098,0.42730388,0.42357546,0.04607265
1747679493.941557,-0.014460391,0.7662177,0.3615098,0.42730388,0.42357546,0.04607265
1747679493.9420812,-0.014460391,0.7662177,0.3615098,0.42730388,0.42357546,0.04607265
1747679493.9426315,-0.014460391,0.7662177,0.3615098,0.42730388,0.42357546,0.04607265
1747679493.9432032,-0.014460391,0.7662177,0.3615098,0.42730388,0.42357546,0.04607265
1747679493.9437506,-0.014460391,0.7662177,0.3615098,0.42730388,0.42357546,0.04607265
1747679493.9443126,-0.014460391,0.7662177,0.3615098,0.42730388,0.42357546,0.04607265
1747679493.9448466,-0.014460391,0.7662177,0.3615098,0.42730388,0.42357546,0.04607265
1747679493.9453907,-0.014460391,0.7662177,0.3615098,0.42730388,0.42357546,0.04607265
1747679493.945947,-0.014460391,0.7662177,0.3615098,0.42730388,0.42357546,0.04607265
1747679493.9464912,-0.014460391,0.7662177,0.3615098,0.42730388,0.42357546,0.04607265
1747679493.947054,-0.014460391,0.7662177,0.3615098,0.42730388,0.42357546,0.04607265
1747679493.9475877,-0.014460391,0.7662177,0.3615098,0.42730388,0.42357546,0.04607265
1747679493.9481442,-0.014460391,0.7662177,0.3615098,0.42730388,0.42357546,0.04607265
1747679493.948703,-0.014460391,0.7662177,0.3615098,0.42730388,0.42357546,0.04607265
1747679493.9492476,-0.014460391,0.7662177,0.3615098,0.42730388,0.42357546,0.04607265
1747679493.9497907,-0.014460391,0.7662177,0.3615098,0.42730388,0.42357546,0.04607265
1747679493.950326,-0.014460391,0.7662177,0.3615098,0.42730388,0.42357546,0.04607265
1747679493.950853,-0.014460391,0.7662177,0.3615098,0.42730388,0.42357546,0.04607265
1747679493.9513803,-0.014460391,0.7662177,0.3615098,0.42730388,0.42357546,0.04607265
1747679493.951909,-0.014460391,0.7662177,0.3615098,0.42730388,0.42357546,0.04607265
1747679493.9524364,-0.014460391,0.7662177,0.3615098,0.42730388,0.42357546,0.04607265
1747679493.9529903,-0.014460391,0.7662177,0.3615098,0.42730388,0.42357546,0.04607265
1747679493.9535062,-0.014460391,0.7662177,0.3615098,0.42730388,0.42357546,0.04607265
1747679493.9540775,-0.014460391,0.7662177,0.3615098,0.42730388,0.42357546,0.04607265
1747679493.9546127,-0.014460391,0.7662177,0.3615098,0.42730388,0.42357546,0.04607265
1747679493.955169,-0.014460391,0.7662177,0.3615098,0.42730388,0.42357546,0.04607265
1747679493.955707,-0.014460391,0.7662177,0.3615098,0.42730388,0.42357546,0.04607265
1747679493.956236,-0.014460391,0.7662177,0.3615098,0.42730388,0.42357546,0.04607265
1747679493.9567707,-0.014460391,0.7662177,0.3615098,0.42730388,0.42357546,0.04607265
1747679493.9573061,-0.014460391,0.7662177,0.3615098,0.42730388,0.42357546,0.04607265
1747679493.957835,-0.014460391,0.7662177,0.3615098,0.42730388,0.42357546,0.04607265
1747679493.958364,-0.014460391,0.7662177,0.3615098,0.42730388,0.42357546,0.04607265
1747679493.9588926,-0.014460391,0.7662177,0.3615098,0.42730388,0.42357546,0.04607265
1747679493.9594264,-0.014460391,0.7662177,0.3615098,0.42730388,0.42357546,0.04607265
1747679493.9599595,-0.014460391,0.7662177,0.3615098,0.42730388,0.42357546,0.04607265
1747679493.960493,-0.014460391,0.7662177,0.3615098,0.42730388,0.42357546,0.04607265
1747679493.9610271,-0.014460391,0.7662177,0.3615098,0.42730388,0.42357546,0.04607265
1747679493.9615765,-0.014460391,0.7662177,0.3615098,0.42730388,0.42357546,0.04607265
1747679493.9621022,-0.014460391,0.7662177,0.3615098,0.42730388,0.42357546,0.04607265
1747679493.9626465,-0.014460391,0.7662177,0.3615098,0.42730388,0.42357546,0.04607265
1747679493.9631765,-0.014460391,0.7662177,0.3615098,0.42730388,0.42357546,0.04607265
1747679493.9637928,-0.014460391,0.7662177,0.3615098,0.42730388,0.42357546,0.04607265
1747679493.9643106,-0.014460391,0.7662177,0.3615098,0.42730388,0.42357546,0.04607265
1747679493.9648778,-0.014460391,0.7662177,0.3615098,0.42730388,0.42357546,0.04607265
1747679493.9654405,-0.014460391,0.7662177,0.3615098,0.42730388,0.42357546,0.04607265
1747679493.9659822,-0.014460391,0.7662177,0.3615098,0.42730388,0.42357546,0.04607265
1747679493.9665265,-0.014460391,0.7662177,0.3615098,0.42730388,0.42357546,0.04607265
1747679493.9670558,-0.014460391,0.7662177,0.3615098,0.42730388,0.42357546,0.04607265
1747679493.9675837,-0.014460391,0.7662177,0.3615098,0.42730388,0.42357546,0.04607265
1747679493.9681325,-0.014460391,0.7662177,0.3615098,0.42730388,0.42357546,0.04607265
1747679493.9686637,-0.014460391,0.7662177,0.3615098,0.42730388,0.42357546,0.04607265
1747679493.9692216,-0.014460391,0.7662177,0.3615098,0.42730388,0.42357546,0.04607265
1747679493.9697933,-0.014460391,0.7662177,0.3615098,0.42730388,0.42357546,0.04607265
1747679493.9703474,-0.014460391,0.7662177,0.3615098,0.42730388,0.42357546,0.04607265
1747679493.9708889,-0.014460391,0.7662177,0.3615098,0.42730388,0.42357546,0.04607265
1747679493.9714172,-0.014460391,0.7662177,0.3615098,0.42730388,0.42357546,0.04607265
1747679493.9719443,-0.014460391,0.7662177,0.3615098,0.42730388,0.42357546,0.04607265
1747679493.9724712,-0.014460391,0.7662177,0.3615098,0.42730388,0.42357546,0.04607265
1747679493.972998,-0.014460391,0.7662177,0.3615098,0.42730388,0.42357546,0.04607265
1747679493.9735286,-0.014460391,0.7662177,0.3615098,0.42730388,0.42357546,0.04607265
1747679493.9740548,-0.014460391,0.7662177,0.3615098,0.42730388,0.42357546,0.04607265
1747679493.9746065,-0.014460391,0.7662177,0.3615098,0.42730388,0.42357546,0.04607265
1747679493.975139,-0.014460391,0.7662177,0.3615098,0.42730388,0.42357546,0.04607265
1747679493.9756668,-0.014460391,0.7662177,0.3615098,0.42730388,0.42357546,0.04607265
1747679493.9762025,0.31599313,0.8018501,0.44839418,0.51252496,-0.13994901,0.27403906
1747679493.976732,0.31599313,0.8018501,0.44839418,0.51252496,-0.13994901,0.27403906
1747679493.977259,0.31599313,0.8018501,0.44839418,0.51252496,-0.13994901,0.27403906
1747679493.9777858,0.31599313,0.8018501,0.44839418,0.51252496,-0.13994901,0.27403906
1747679493.9783294,0.31599313,0.8018501,0.44839418,0.51252496,-0.13994901,0.27403906
1747679493.978875,0.26278865,0.8643287,0.3995827,0.51252496,-0.13994901,0.27403906
1747679493.9794066,0.26278865,0.8643287,0.3995827,0.51252496,-0.13994901,0.27403906
1747679493.9799376,0.26278865,0.8643287,0.3995827,0.48056707,0.11784479,0.20053588
1747679493.9804642,0.26278865,0.8643287,0.3995827,0.48056707,0.11784479,0.20053588
1747679493.981007,0.26278865,0.8643287,0.3995827,0.48056707,0.11784479,0.20053588
1747679493.981534,0.26278865,0.8643287,0.3995827,0.48056707,0.11784479,0.20053588
1747679493.982061,0.26278865,0.8643287,0.3995827,0.48056707,0.11784479,0.20053588
1747679493.9825876,0.26278865,0.8643287,0.3995827,0.48056707,0.11784479,0.20053588
1747679493.9831145,0.26278865,0.8643287,0.3995827,0.48056707,0.11784479,0.20053588
1747679493.9836442,0.26278865,0.8643287,0.3995827,0.48056707,0.11784479,0.20053588
1747679493.9841676,0.26278865,0.8643287,0.3995827,0.48056707,0.11784479,0.20053588
1747679493.9846966,0.26278865,0.8643287,0.3995827,0.48056707,0.11784479,0.20053588
1747679493.9852567,0.26278865,0.8643287,0.3995827,0.48056707,0.11784479,0.20053588
1747679493.9858072,0.26278865,0.8643287,0.3995827,0.48056707,0.11784479,0.20053588
1747679493.986338,0.26278865,0.8643287,0.3995827,0.48056707,0.11784479,0.20053588
1747679493.9868708,0.26278865,0.8643287,0.3995827,0.48056707,0.11784479,0.20053588
1747679493.9874017,0.26278865,0.8643287,0.3995827,0.48056707,0.11784479,0.20053588
1747679493.9879434,0.26278865,0.8643287,0.3995827,0.48056707,0.11784479,0.20053588
1747679493.9884832,0.26278865,0.8643287,0.3995827,0.48056707,0.11784479,0.20053588
1747679493.9890232,0.26278865,0.8643287,0.3995827,0.48056707,0.11784479,0.20053588
1747679493.9895658,0.26278865,0.8643287,0.3995827,0.48056707,0.11784479,0.20053588
1747679493.9901001,0.26278865,0.8643287,0.3995827,0.48056707,0.11784479,0.20053588
1747679493.9906406,0.26278865,0.8643287,0.3995827,0.48056707,0.11784479,0.20053588
1747679493.9911797,0.26278865,0.8643287,0.3995827,0.48056707,0.11784479,0.20053588
1747679493.9917207,0.26278865,0.8643287,0.3995827,0.48056707,0.11784479,0.20053588
1747679493.99226,0.26278865,0.8643287,0.3995827,0.48056707,0.11784479,0.20053588
1747679493.9928036,0.26278865,0.8643287,0.3995827,0.48056707,0.11784479,0.20053588
1747679493.9933631,0.19542885,0.90777093,0.36004546,0.44647864,0.29680908,0.16325165
1747679493.9940143,0.19542885,0.90777093,0.36004546,0.44647864,0.29680908,0.16325165
1747679493.9945893,0.19542885,0.90777093,0.36004546,0.44647864,0.29680908,0.16325165
1747679493.995123,0.19542885,0.90777093,0.36004546,0.44647864,0.29680908,0.16325165
1747679493.9956536,0.19542885,0.90777093,0.36004546,0.44647864,0.29680908,0.16325165
1747679493.9961882,0.19542885,0.90777093,0.36004546,0.44647864,0.29680908,0.16325165
1747679493.996727,0.19542885,0.90777093,0.36004546,0.44647864,0.29680908,0.16325165
1747679493.997263,0.19542885,0.90777093,0.36004546,0.44647864,0.29680908,0.16325165
1747679493.9977882,0.19542885,0.90777093,0.36004546,0.44647864,0.29680908,0.16325165
1747679493.9983132,0.19542885,0.90777093,0.36004546,0.44647864,0.29680908,0.16325165
1747679493.9988372,0.19542885,0.90777093,0.36004546,0.44647864,0.29680908,0.16325165
1747679493.999362,0.19542885,0.90777093,0.36004546,0.44647864,0.29680908,0.16325165
1747679493.9998863,0.19542885,0.90777093,0.36004546,0.44647864,0.29680908,0.16325165
1747679494.0004106,0.19542885,0.90777093,0.36004546,0.44647864,0.29680908,0.16325165
1747679494.0009592,0.19542885,0.90777093,0.36004546,0.44647864,0.29680908,0.16325165
1747679494.001501,0.19542885,0.90777093,0.36004546,0.44647864,0.29680908,0.16325165
1747679494.0020623,0.109520696,0.90533036,0.35272375,0.43689126,0.4576639,0.18988325
1747679494.0026083,0.109520696,0.90533036,0.35272375,0.43689126,0.4576639,0.18988325
1747679494.003181,0.109520696,0.90533036,0.35272375,0.43689126,0.4576639,0.18988325
1747679494.0037174,0.109520696,0.90533036,0.35272375,0.43689126,0.4576639,0.18988325
1747679494.0042758,0.109520696,0.90533036,0.35272375,0.43689126,0.4576639,0.18988325
1747679494.004805,0.109520696,0.90533036,0.35272375,0.43689126,0.4576639,0.18988325
1747679494.005344,0.109520696,0.90533036,0.35272375,0.43689126,0.4576639,0.18988325
1747679494.0058837,0.109520696,0.90533036,0.35272375,0.43689126,0.4576639,0.18988325
1747679494.0064492,0.109520696,0.90533036,0.35272375,0.43689126,0.4576639,0.18988325
1747679494.0070057,0.109520696,0.90533036,0.35272375,0.43689126,0.4576639,0.18988325
1747679494.007539,0.109520696,0.90533036,0.35272375,0.43689126,0.4576639,0.18988325
1747679494.0080647,0.109520696,0.90533036,0.35272375,0.43689126,0.4576639,0.18988325
1747679494.0086002,0.109520696,0.90533036,0.35272375,0.43689126,0.4576639,0.18988325
1747679494.0091467,0.109520696,0.90533036,0.35272375,0.43689126,0.4576639,0.18988325
1747679494.0097115,0.109520696,0.90533036,0.35272375,0.43689126,0.4576639,0.18988325
1747679494.0102432,0.109520696,0.90533036,0.35272375,0.43689126,0.4576639,0.18988325
1747679494.0107684,0.109520696,0.90533036,0.35272375,0.43689126,0.4576639,0.18988325
1747679494.0112932,0.109520696,0.90533036,0.35272375,0.43689126,0.4576639,0.18988325
1747679494.011823,0.08072194,0.9014255,0.35614055,0.43689126,0.4576639,0.18988325
1747679494.0123622,0.08072194,0.9014255,0.35614055,0.48376286,0.50347024,0.29108328
1747679494.0128887,0.08072194,0.9014255,0.35614055,0.48376286,0.50347024,0.29108328
1747679494.0134168,0.08072194,0.9014255,0.35614055,0.48376286,0.50347024,0.29108328
1747679494.0139587,0.08072194,0.9014255,0.35614055,0.48376286,0.50347024,0.29108328
1747679494.0144873,0.08072194,0.9014255,0.35614055,0.48376286,0.50347024,0.29108328
1747679494.015025,0.08072194,0.9014255,0.35614055,0.48376286,0.50347024,0.29108328
1747679494.01555,0.08072194,0.9014255,0.35614055,0.48376286,0.50347024,0.29108328
1747679494.016075,0.08072194,0.9014255,0.35614055,0.48376286,0.50347024,0.29108328
1747679494.0166216,0.08072194,0.9014255,0.35614055,0.48376286,0.50347024,0.29108328
1747679494.0171566,0.08072194,0.9014255,0.35614055,0.48376286,0.50347024,0.29108328
1747679494.0177104,0.08072194,0.9014255,0.35614055,0.48376286,0.50347024,0.29108328
1747679494.0182848,0.08072194,0.9014255,0.35614055,0.48376286,0.50347024,0.29108328
1747679494.018825,0.08072194,0.9014255,0.35614055,0.48376286,0.50347024,0.29108328
1747679494.019355,0.08072194,0.9014255,0.35614055,0.48376286,0.50347024,0.29108328
1747679494.0198848,0.08072194,0.9014255,0.35614055,0.48376286,0.50347024,0.29108328
1747679494.020414,0.08072194,0.9014255,0.35614055,0.48376286,0.50347024,0.29108328
1747679494.020939,0.08072194,0.9014255,0.35614055,0.48376286,0.50347024,0.29108328
1747679494.0214877,0.08072194,0.9014255,0.35614055,0.48376286,0.50347024,0.29108328
1747679494.0220277,0.08072194,0.9014255,0.35614055,0.48376286,0.50347024,0.29108328
1747679494.0225694,0.08072194,0.9014255,0.35614055,0.5796366,0.30426592,0.41252336
1747679494.0231137,0.105127655,0.9189976,0.36443847,0.5796366,0.30426592,0.41252336
1747679494.023654,0.105127655,0.9189976,0.36443847,0.5796366,0.30426592,0.41252336
1747679494.0243278,0.105127655,0.9189976,0.36443847,0.5796366,0.30426592,0.41252336
1747679494.02489,0.105127655,0.9189976,0.36443847,0.5796366,0.30426592,0.41252336
1747679494.0254474,0.105127655,0.9189976,0.36443847,0.5796366,0.30426592,0.41252336
1747679494.0260067,0.105127655,0.9189976,0.36443847,0.5796366,0.30426592,0.41252336
1747679494.0265694,0.105127655,0.9189976,0.36443847,0.5796366,0.30426592,0.41252336
1747679494.0271432,0.105127655,0.9189976,0.36443847,0.5796366,0.30426592,0.41252336
1747679494.0277004,0.105127655,0.9189976,0.36443847,0.5796366,0.30426592,0.41252336
1747679494.028253,0.105127655,0.9189976,0.36443847,0.5796366,0.30426592,0.41252336
1747679494.0288107,0.105127655,0.9189976,0.36443847,0.5796366,0.30426592,0.41252336
1747679494.0293632,0.105127655,0.9189976,0.36443847,0.5796366,0.30426592,0.41252336
1747679494.0299227,0.105127655,0.9189976,0.36443847,0.5796366,0.30426592,0.41252336
1747679494.0304818,0.105127655,0.9189976,0.36443847,0.5796366,0.30426592,0.41252336
1747679494.0310333,0.105127655,0.9189976,0.36443847,0.5796366,0.30426592,0.41252336
1747679494.0315773,0.105127655,0.9189976,0.36443847,0.5796366,0.30426592,0.41252336
1747679494.0321155,0.105127655,0.9189976,0.36443847,0.5796366,0.30426592,0.41252336
1747679494.0326734,0.105127655,0.9189976,0.36443847,0.5796366,0.30426592,0.41252336
1747679494.0332305,0.105127655,0.9189976,0.36443847,0.5796366,0.30426592,0.41252336
1747679494.0337956,0.105127655,0.9189976,0.36443847,0.5796366,0.30426592,0.41252336
1747679494.0343485,0.105127655,0.9189976,0.36443847,0.5796366,0.30426592,0.41252336
1747679494.0348768,0.105127655,0.9189976,0.36443847,0.5796366,0.30426592,0.41252336
1747679494.0354156,0.21300097,0.95902294,0.35614055,0.5796366,0.30426592,0.41252336
1747679494.0360036,0.21300097,0.95902294,0.35614055,0.5796366,0.30426592,0.41252336
1747679494.0365665,0.21300097,0.95902294,0.35614055,0.7490135,-0.21984379,0.48815706
1747679494.0371144,0.21300097,0.95902294,0.35614055,0.7490135,-0.21984379,0.48815706
1747679494.0376887,0.21300097,0.95902294,0.35614055,0.7490135,-0.21984379,0.48815706
1747679494.0382226,0.21300097,0.95902294,0.35614055,0.7490135,-0.21984379,0.48815706
1747679494.038759,0.21300097,0.95902294,0.35614055,0.7490135,-0.21984379,0.48815706
1747679494.0393133,0.21300097,0.95902294,0.35614055,0.7490135,-0.21984379,0.48815706
1747679494.0398753,0.21300097,0.95902294,0.35614055,0.7490135,-0.21984379,0.48815706
1747679494.0404277,0.21300097,0.95902294,0.35614055,0.7490135,-0.21984379,0.48815706
1747679494.0409803,0.21300097,0.95902294,0.35614055,0.7490135,-0.21984379,0.48815706
1747679494.0415344,0.21300097,0.95902294,0.35614055,0.7490135,-0.21984379,0.48815706
1747679494.0420816,0.21300097,0.95902294,0.35614055,0.7490135,-0.21984379,0.48815706
1747679494.0426316,0.32429105,0.98879796,0.30488852,0.8246472,-0.5330313,0.4753739
1747679494.0431929,0.32429105,0.98879796,0.30488852,0.8246472,-0.5330313,0.4753739
1747679494.0437546,0.32429105,0.98879796,0.30488852,0.8246472,-0.5330313,0.4753739
1747679494.0443125,0.32429105,0.98879796,0.30488852,0.8246472,-0.5330313,0.4753739
1747679494.044864,0.32429105,0.98879796,0.30488852,0.8246472,-0.5330313,0.4753739
1747679494.0454135,0.32429105,0.98879796,0.30488852,0.8246472,-0.5330313,0.4753739
1747679494.0459697,0.32429105,0.98879796,0.30488852,0.8246472,-0.5330313,0.4753739
1747679494.0466123,0.32429105,0.98879796,0.30488852,0.8246472,-0.5330313,0.4753739
1747679494.0471776,0.32429105,0.98879796,0.30488852,0.8246472,-0.5330313,0.4753739
1747679494.047733,0.32429105,0.98879796,0.30488852,0.8246472,-0.5330313,0.4753739
1747679494.0482874,0.32429105,0.98879796,0.30488852,0.8246472,-0.5330313,0.4753739
1747679494.0488803,0.32429105,0.98879796,0.30488852,0.8246472,-0.5330313,0.4753739
1747679494.0494475,0.32429105,0.98879796,0.30488852,0.8246472,-0.5330313,0.4753739
1747679494.050012,0.32429105,0.98879796,0.30488852,0.8246472,-0.5330313,0.4753739
1747679494.0505757,0.42874756,1.0561577,0.23801683,0.8246472,-0.5330313,0.4753739
1747679494.0511603,0.42874756,1.0561577,0.23801683,0.79055876,-0.5596629,0.37950018
1747679494.0517273,0.42874756,1.0561577,0.23801683,0.79055876,-0.5596629,0.37950018
1747679494.0522747,0.42874756,1.0561577,0.23801683,0.79055876,-0.5596629,0.37950018
1747679494.052825,0.42874756,1.0561577,0.23801683,0.79055876,-0.5596629,0.37950018
1747679494.0533864,0.42874756,1.0561577,0.23801683,0.79055876,-0.5596629,0.37950018
1747679494.053934,0.42874756,1.0561577,0.23801683,0.79055876,-0.5596629,0.37950018
1747679494.054555,0.42874756,1.0561577,0.23801683,0.79055876,-0.5596629,0.37950018
1747679494.0551198,0.42874756,1.0561577,0.23801683,0.79055876,-0.5596629,0.37950018
1747679494.055681,0.42874756,1.0561577,0.23801683,0.79055876,-0.5596629,0.37950018
1747679494.0562367,0.42874756,1.0561577,0.23801683,0.79055876,-0.5596629,0.37950018
1747679494.056801,0.42874756,1.0561577,0.23801683,0.79055876,-0.5596629,0.37950018
1747679494.0582387,0.42874756,1.0561577,0.23801683,0.79055876,-0.5596629,0.37950018
1747679494.0588007,0.42874756,1.0561577,0.23801683,0.79055876,-0.5596629,0.37950018
1747679494.0593338,0.50245285,1.108386,0.18041931,0.64781344,-0.35513225,0.24208117
1747679494.0598588,0.50245285,1.108386,0.18041931,0.64781344,-0.35513225,0.24208117
1747679494.0603814,0.50245285,1.108386,0.18041931,0.64781344,-0.35513225,0.24208117
1747679494.060904,0.50245285,1.108386,0.18041931,0.64781344,-0.35513225,0.24208117
1747679494.061426,0.50245285,1.108386,0.18041931,0.64781344,-0.35513225,0.24208117
1747679494.0619478,0.50245285,1.108386,0.18041931,0.64781344,-0.35513225,0.24208117
1747679494.0624707,0.50245285,1.108386,0.18041931,0.64781344,-0.35513225,0.24208117
1747679494.0630114,0.50245285,1.108386,0.18041931,0.64781344,-0.35513225,0.24208117
1747679494.063584,0.50245285,1.108386,0.18041931,0.64781344,-0.35513225,0.24208117
1747679494.0641515,0.50245285,1.108386,0.18041931,0.64781344,-0.35513225,0.24208117
1747679494.0647042,0.50245285,1.108386,0.18041931,0.64781344,-0.35513225,0.24208117
1747679494.0652678,0.50245285,1.108386,0.18041931,0.64781344,-0.35513225,0.24208117
1747679494.065827,0.50245285,1.108386,0.18041931,0.64781344,-0.35513225,0.24208117
1747679494.0663877,0.50245285,1.108386,0.18041931,0.64781344,-0.35513225,0.24208117
1747679494.0669503,0.50245285,1.108386,0.18041931,0.64781344,-0.35513225,0.24208117
1747679494.0675042,0.50245285,1.108386,0.18041931,0.64781344,-0.35513225,0.24208117
1747679494.0680678,0.50245285,1.108386,0.18041931,0.64781344,-0.35513225,0.24208117
1747679494.0686607,0.50245285,1.108386,0.18041931,0.64781344,-0.35513225,0.24208117
1747679494.0692275,0.50245285,1.108386,0.18041931,0.64781344,-0.35513225,0.24208117
1747679494.069796,0.50245285,1.108386,0.18041931,0.64781344,-0.35513225,0.24208117
1747679494.0703669,0.50245285,1.108386,0.18041931,0.64781344,-0.35513225,0.24208117
1747679494.0709312,0.50245285,1.108386,0.18041931,0.64781344,-0.35513225,0.24208117
1747679494.0714927,0.50245285,1.108386,0.18041931,0.64781344,-0.35513225,0.24208117
1747679494.0720594,0.50245285,1.108386,0.18041931,0.64781344,-0.35513225,0.24208117
1747679494.0726292,0.53613275,1.1035049,0.15796606,0.64781344,-0.35513225,0.24208117
1747679494.0731807,0.53613275,1.1035049,0.15796606,0.44967443,-0.071772136,0.05779055
1747679494.073766,0.53613275,1.1035049,0.15796606,0.44967443,-0.071772136,0.05779055
1747679494.0743153,0.53613275,1.1035049,0.15796606,0.44967443,-0.071772136,0.05779055
1747679494.074844,0.53613275,1.1035049,0.15796606,0.44967443,-0.071772136,0.05779055
1747679494.0753784,0.53613275,1.1035049,0.15796606,0.44967443,-0.071772136,0.05779055
1747679494.0759304,0.53613275,1.1035049,0.15796606,0.44967443,-0.071772136,0.05779055
1747679494.0764782,0.53613275,1.1035049,0.15796606,0.44967443,-0.071772136,0.05779055
1747679494.0770235,0.53613275,1.1035049,0.15796606,0.44967443,-0.071772136,0.05779055
1747679494.0775764,0.53613275,1.1035049,0.15796606,0.44967443,-0.071772136,0.05779055
1747679494.0781305,0.53613275,1.1035049,0.15796606,0.44967443,-0.071772136,0.05779055
1747679494.0786805,0.53613275,1.1035049,0.15796606,0.44967443,-0.071772136,0.05779055
1747679494.079232,0.53613275,1.1035049,0.15796606,0.44967443,-0.071772136,0.05779055
1747679494.079795,0.53613275,1.1035049,0.15796606,0.44967443,-0.071772136,0.05779055
1747679494.0803225,0.53613275,1.1035049,0.15796606,0.44967443,-0.071772136,0.05779055
1747679494.0809164,0.53613275,1.1035049,0.15796606,0.44967443,-0.071772136,0.05779055
1747679494.0814018,0.53613275,1.1035049,0.15796606,0.44967443,-0.071772136,0.05779055
1747679494.0819428,0.53613275,1.1035049,0.15796606,0.44967443,-0.071772136,0.05779055
1747679494.0828028,0.49561927,1.0654318,0.14869188,0.25792697,0.18921745,-0.1254348
1747679494.0833852,0.49561927,1.0654318,0.14869188,0.25792697,0.18921745,-0.1254348
1747679494.0839252,0.49561927,1.0654318,0.14869188,0.25792697,0.18921745,-0.1254348
1747679494.0844603,0.49561927,1.0654318,0.14869188,0.25792697,0.18921745,-0.1254348
1747679494.085029,0.49561927,1.0654318,0.14869188,0.25792697,0.18921745,-0.1254348
1747679494.085587,0.49561927,1.0654318,0.14869188,0.25792697,0.18921745,-0.1254348
1747679494.0861588,0.49561927,1.0654318,0.14869188,0.25792697,0.18921745,-0.1254348
1747679494.0868893,0.49561927,1.0654318,0.14869188,0.25792697,0.18921745,-0.1254348
1747679494.087478,0.49561927,1.0654318,0.14869188,0.25792697,0.18921745,-0.1254348
1747679494.0880454,0.49561927,1.0654318,0.14869188,0.25792697,0.18921745,-0.1254348
1747679494.0887668,0.49561927,1.0654318,0.14869188,0.25792697,0.18921745,-0.1254348
1747679494.0893264,0.49561927,1.0654318,0.14869188,0.25792697,0.18921745,-0.1254348
1747679494.0898812,0.49561927,1.0654318,0.14869188,0.12157321,0.3575291,-0.25326642
1747679494.0904658,0.49561927,1.0654318,0.14869188,0.12157321,0.3575291,-0.25326642
1747679494.091018,0.49561927,1.0654318,0.14869188,0.12157321,0.3575291,-0.25326642
1747679494.0915813,0.3867697,1.0175967,0.17700252,0.12157321,0.3575291,-0.25326642
1747679494.0921323,0.3867697,1.0175967,0.17700252,0.12157321,0.3575291,-0.25326642
1747679494.0926566,0.3867697,1.0175967,0.17700252,0.12157321,0.3575291,-0.25326642
1747679494.0931895,0.3867697,1.0175967,0.17700252,0.12157321,0.3575291,-0.25326642
1747679494.0937164,0.3867697,1.0175967,0.17700252,0.12157321,0.3575291,-0.25326642
1747679494.0942764,0.3867697,1.0175967,0.17700252,0.12157321,0.3575291,-0.25326642
1747679494.0948129,0.3867697,1.0175967,0.17700252,0.12157321,0.3575291,-0.25326642
1747679494.095373,0.3867697,1.0175967,0.17700252,0.12157321,0.3575291,-0.25326642
1747679494.0959258,0.3867697,1.0175967,0.17700252,0.12157321,0.3575291,-0.25326642
1747679494.0964746,0.3867697,1.0175967,0.17700252,0.12157321,0.3575291,-0.25326642
1747679494.0970125,0.3867697,1.0175967,0.17700252,0.12157321,0.3575291,-0.25326642
1747679494.0975404,0.3867697,1.0175967,0.17700252,0.12157321,0.3575291,-0.25326642
1747679494.0980673,0.3867697,1.0175967,0.17700252,0.12157321,0.3575291,-0.25326642
1747679494.0985937,0.3867697,1.0175967,0.17700252,0.12157321,0.3575291,-0.25326642
1747679494.0991282,0.3867697,1.0175967,0.17700252,0.12157321,0.3575291,-0.25326642
1747679494.099666,0.3867697,1.0175967,0.17700252,0.12157321,0.3575291,-0.25326642
1747679494.1002223,0.3867697,1.0175967,0.17700252,0.12157321,0.3575291,-0.25326642
1747679494.1007454,0.3867697,1.0175967,0.17700252,0.12157321,0.3575291,-0.25326642
1747679494.1012754,0.30818328,0.9961197,0.21263488,0.08109319,0.37670386,-0.2894854
1747679494.1018226,0.30818328,0.9961197,0.21263488,0.08109319,0.37670386,-0.2894854
1747679494.1023695,0.30818328,0.9961197,0.21263488,0.08109319,0.37670386,-0.2894854
1747679494.1029284,0.30818328,0.9961197,0.21263488,0.08109319,0.37670386,-0.2894854
1747679494.1034598,0.30818328,0.9961197,0.21263488,0.08109319,0.37670386,-0.2894854
1747679494.104022,0.30818328,0.9961197,0.21263488,0.08109319,0.37670386,-0.2894854
1747679494.10454,0.30818328,0.9961197,0.21263488,0.08109319,0.37670386,-0.2894854
1747679494.1050904,0.30818328,0.9961197,0.21263488,0.08109319,0.37670386,-0.2894854
1747679494.1056142,0.30818328,0.9961197,0.21263488,0.08109319,0.37670386,-0.2894854
1747679494.1061678,0.30818328,0.9961197,0.21263488,0.08109319,0.37670386,-0.2894854
1747679494.1067078,0.30818328,0.9961197,0.21263488,0.08109319,0.37670386,-0.2894854
1747679494.107233,0.30818328,0.9961197,0.21263488,0.08109319,0.37670386,-0.2894854
1747679494.107777,0.30818328,0.9961197,0.21263488,0.08109319,0.37670386,-0.2894854
1747679494.108305,0.30818328,0.9961197,0.21263488,0.08109319,0.37670386,-0.2894854
1747679494.1088326,0.30818328,0.9961197,0.21263488,0.08109319,0.37670386,-0.2894854
1747679494.1093626,0.30818328,0.9961197,0.21263488,0.08109319,0.37670386,-0.2894854
1747679494.1098893,0.30818328,0.9961197,0.21263488,0.08109319,0.37670386,-0.2894854
1747679494.110446,0.30818328,0.9961197,0.21263488,0.08109319,0.37670386,-0.2894854
1747679494.1110158,0.30818328,0.9961197,0.21263488,0.08109319,0.37670386,-0.2894854
1747679494.1115873,0.30818328,0.9961197,0.21263488,0.08109319,0.37670386,-0.2894854
1747679494.1121483,0.19250014,0.9834287,0.2799947,0.13116059,0.29893962,-0.24794011
1747679494.112684,0.19250014,0.9834287,0.2799947,0.13116059,0.29893962,-0.24794011
1747679494.1132128,0.19250014,0.9834287,0.2799947,0.13116059,0.29893962,-0.24794011
1747679494.1137545,0.19250014,0.9834287,0.2799947,0.13116059,0.29893962,-0.24794011
1747679494.1143095,0.19250014,0.9834287,0.2799947,0.13116059,0.29893962,-0.24794011
1747679494.114845,0.19250014,0.9834287,0.2799947,0.13116059,0.29893962,-0.24794011
1747679494.1154182,0.19250014,0.9834287,0.2799947,0.13116059,0.29893962,-0.24794011
1747679494.115983,0.19250014,0.9834287,0.2799947,0.13116059,0.29893962,-0.24794011
1747679494.1165335,0.19250014,0.9834287,0.2799947,0.13116059,0.29893962,-0.24794011
1747679494.1170826,0.19250014,0.9834287,0.2799947,0.13116059,0.29893962,-0.24794011
1747679494.1176343,0.19250014,0.9834287,0.2799947,0.13116059,0.29893962,-0.24794011
1747679494.118176,0.19250014,0.9834287,0.2799947,0.13116059,0.29893962,-0.24794011
1747679494.1187038,0.19250014,0.9834287,0.2799947,0.13116059,0.29893962,-0.24794011
1747679494.119231,0.19250014,0.9834287,0.2799947,0.13116059,0.29893962,-0.24794011
1747679494.1197581,0.19250014,0.9834287,0.2799947,0.13116059,0.29893962,-0.24794011
1747679494.1202853,0.19250014,0.9834287,0.2799947,0.13116059,0.29893962,-0.24794011
1747679494.1208117,0.19250014,0.9834287,0.2799947,0.13116059,0.29893962,-0.24794011
1747679494.1213558,0.19250014,0.9834287,0.2799947,0.13116059,0.29893962,-0.24794011
1747679494.1218987,0.19250014,0.9834287,0.2799947,0.13116059,0.29893962,-0.24794011
1747679494.122427,0.19250014,0.9834287,0.2799947,0.13116059,0.29893962,-0.24794011
1747679494.1229546,0.19250014,0.9834287,0.2799947,0.13116059,0.29893962,-0.24794011
1747679494.1234882,0.23252554,0.9741545,0.30293608,0.24620906,0.18602167,-0.18402429
1747679494.1240318,0.23252554,0.9741545,0.30293608,0.24620906,0.18602167,-0.18402429
1747679494.1245923,0.23252554,0.9741545,0.30293608,0.24620906,0.18602167,-0.18402429
1747679494.125128,0.23252554,0.9741545,0.30293608,0.24620906,0.18602167,-0.18402429
1747679494.125641,0.23252554,0.9741545,0.30293608,0.24620906,0.18602167,-0.18402429
1747679494.1261923,0.23252554,0.9741545,0.30293608,0.24620906,0.18602167,-0.18402429
1747679494.126768,0.23252554,0.9741545,0.30293608,0.24620906,0.18602167,-0.18402429
1747679494.1272895,0.23252554,0.9741545,0.30293608,0.24620906,0.18602167,-0.18402429
1747679494.1278224,0.23252554,0.9741545,0.30293608,0.24620906,0.18602167,-0.18402429
1747679494.1283476,0.23252554,0.9741545,0.30293608,0.24620906,0.18602167,-0.18402429
1747679494.1288726,0.23252554,0.9741545,0.30293608,0.24620906,0.18602167,-0.18402429
1747679494.1293974,0.23252554,0.9741545,0.30293608,0.24620906,0.18602167,-0.18402429
1747679494.1299229,0.23252554,0.9741545,0.30293608,0.24620906,0.18602167,-0.18402429
1747679494.1304479,0.23252554,0.9741545,0.30293608,0.24620906,0.18602167,-0.18402429
1747679494.1309936,0.23252554,0.9741545,0.30293608,0.24620906,0.18602167,-0.18402429
1747679494.131547,0.23252554,0.9741545,0.30293608,0.24620906,0.18602167,-0.18402429
1747679494.1320868,0.23252554,0.9741545,0.30293608,0.24620906,0.18602167,-0.18402429
1747679494.132613,0.23252554,0.9741545,0.30293608,0.24620906,0.18602167,-0.18402429
1747679494.133138,0.23252554,0.9741545,0.30293608,0.24620906,0.18602167,-0.18402429
1747679494.1336672,0.23252554,0.9741545,0.30293608,0.24620906,0.18602167,-0.18402429
1747679494.1342216,0.23252554,0.9741545,0.30293608,0.24620906,0.18602167,-0.18402429
1747679494.134748,0.33454147,0.98147625,0.26486313,0.37936702,0.07310372,-0.2042643
1747679494.1352882,0.33454147,0.98147625,0.26486313,0.37936702,0.07310372,-0.2042643
1747679494.1358147,0.33454147,0.98147625,0.26486313,0.37936702,0.07310372,-0.2042643
1747679494.13634,0.33454147,0.98147625,0.26486313,0.37936702,0.07310372,-0.2042643
1747679494.1368647,0.33454147,0.98147625,0.26486313,0.37936702,0.07310372,-0.2042643
1747679494.13739,0.33454147,0.98147625,0.26486313,0.37936702,0.07310372,-0.2042643
1747679494.1379142,0.33454147,0.98147625,0.26486313,0.37936702,0.07310372,-0.2042643
1747679494.138439,0.33454147,0.98147625,0.26486313,0.37936702,0.07310372,-0.2042643
1747679494.1389635,0.33454147,0.98147625,0.26486313,0.37936702,0.07310372,-0.2042643
1747679494.139492,0.33454147,0.98147625,0.26486313,0.37936702,0.07310372,-0.2042643
1747679494.140018,0.33454147,0.98147625,0.26486313,0.37936702,0.07310372,-0.2042643
1747679494.140543,0.33454147,0.98147625,0.26486313,0.37936702,0.07310372,-0.2042643
1747679494.1410906,0.33454147,0.98147625,0.26486313,0.37936702,0.07310372,-0.2042643
1747679494.1416173,0.33454147,0.98147625,0.26486313,0.37936702,0.07310372,-0.2042643
1747679494.1421757,0.33454147,0.98147625,0.26486313,0.37936702,0.07310372,-0.2042643
1747679494.1427162,0.33454147,0.98147625,0.26486313,0.37936702,0.07310372,-0.2042643
1747679494.1432636,0.38921028,1.014668,0.20921808,0.40386808,0.1764343,-0.29694223
1747679494.1438015,0.38921028,1.014668,0.20921808,0.40386808,0.1764343,-0.29694223
1747679494.1443317,0.38921028,1.014668,0.20921808,0.40386808,0.1764343,-0.29694223
1747679494.1448576,0.38921028,1.014668,0.20921808,0.40386808,0.1764343,-0.29694223
1747679494.145383,0.38921028,1.014668,0.20921808,0.40386808,0.1764343,-0.29694223
1747679494.1459365,0.38921028,1.014668,0.20921808,0.40386808,0.1764343,-0.29694223
1747679494.146511,0.38921028,1.014668,0.20921808,0.40386808,0.1764343,-0.29694223
1747679494.1470602,0.38921028,1.014668,0.20921808,0.40386808,0.1764343,-0.29694223
1747679494.14759,0.38921028,1.014668,0.20921808,0.40386808,0.1764343,-0.29694223
1747679494.148145,0.38921028,1.014668,0.20921808,0.40386808,0.1764343,-0.29694223
1747679494.1487,0.38921028,1.014668,0.20921808,0.40386808,0.1764343,-0.29694223
1747679494.1492467,0.38921028,1.014668,0.20921808,0.40386808,0.1764343,-0.29694223
1747679494.1497967,0.38921028,1.014668,0.20921808,0.40386808,0.1764343,-0.29694223
1747679494.1503458,0.38921028,1.014668,0.20921808,0.40386808,0.1764343,-0.29694223
1747679494.1508958,0.38921028,1.014668,0.20921808,0.40386808,0.1764343,-0.29694223
1747679494.1514466,0.38921028,1.014668,0.20921808,0.40386808,0.1764343,-0.29694223
1747679494.151996,0.38921028,1.014668,0.20921808,0.40386808,0.1764343,-0.29694223
1747679494.1525474,0.38921028,1.014668,0.20921808,0.40386808,0.1764343,-0.29694223
1747679494.1530976,0.38921028,1.014668,0.20921808,0.40386808,0.1764343,-0.29694223
1747679494.1536548,0.38921028,1.014668,0.20921808,0.40386808,0.1764343,-0.29694223
1747679494.1541996,0.38921028,1.014668,0.20921808,0.40386808,0.1764343,-0.29694223
1747679494.1547484,0.38921028,1.014668,0.20921808,0.40386808,0.1764343,-0.29694223
1747679494.1552997,0.38921028,1.014668,0.20921808,0.40386808,0.1764343,-0.29694223
1747679494.155853,0.37212628,1.0254065,0.18530047,0.3676491,0.41185755,-0.39707702
1747679494.1564014,0.37212628,1.0254065,0.18530047,0.3676491,0.41185755,-0.39707702
1747679494.156951,0.37212628,1.0254065,0.18530047,0.3676491,0.41185755,-0.39707702
1747679494.1574974,0.37212628,1.0254065,0.18530047,0.3676491,0.41185755,-0.39707702
1747679494.1580617,0.37212628,1.0254065,0.18530047,0.3676491,0.41185755,-0.39707702
1747679494.1586003,0.37212628,1.0254065,0.18530047,0.3676491,0.41185755,-0.39707702
1747679494.1592133,0.37212628,1.0254065,0.18530047,0.3676491,0.41185755,-0.39707702
1747679494.1597369,0.37212628,1.0254065,0.18530047,0.3676491,0.41185755,-0.39707702
1747679494.1602566,0.3013497,1.0234541,0.16431154,0.3239733,0.6888261,-0.4801676
1747679494.1607757,0.3013497,1.0234541,0.16431154,0.3239733,0.6888261,-0.4801676
1747679494.161317,0.3013497,1.0234541,0.16431154,0.3239733,0.6888261,-0.4801676
1747679494.161855,0.3013497,1.0234541,0.16431154,0.3239733,0.6888261,-0.4801676
1747679494.1623774,0.3013497,1.0234541,0.16431154,0.3239733,0.6888261,-0.4801676
1747679494.1628966,0.3013497,1.0234541,0.16431154,0.3239733,0.6888261,-0.4801676
1747679494.1634152,0.3013497,1.0234541,0.16431154,0.3239733,0.6888261,-0.4801676
1747679494.1639483,0.3013497,1.0234541,0.16431154,0.3239733,0.6888261,-0.4801676
1747679494.164487,0.3013497,1.0234541,0.16431154,0.3239733,0.6888261,-0.4801676
1747679494.1650105,0.3013497,1.0234541,0.16431154,0.3239733,0.6888261,-0.4801676
1747679494.165532,0.3013497,1.0234541,0.16431154,0.3239733,0.6888261,-0.4801676
1747679494.1660533,0.3013497,1.0234541,0.16431154,0.3239733,0.6888261,-0.4801676
1747679494.166575,0.3013497,1.0234541,0.16431154,0.3239733,0.6888261,-0.4801676
1747679494.1670961,0.3013497,1.0234541,0.16431154,0.3239733,0.6888261,-0.4801676
1747679494.1676176,0.3013497,1.0234541,0.16431154,0.3239733,0.6888261,-0.4801676
1747679494.168139,0.3013497,1.0234541,0.16431154,0.3239733,0.6888261,-0.4801676
1747679494.1686604,0.3013497,1.0234541,0.16431154,0.3239733,0.6888261,-0.4801676
1747679494.1691847,0.19054769,1.0122274,0.13063164,0.3239733,0.6888261,-0.4801676
1747679494.1697063,0.19054769,1.0122274,0.13063164,0.3239733,0.6888261,-0.4801676
1747679494.1702287,0.19054769,1.0122274,0.13063164,0.3239733,0.6888261,-0.4801676
1747679494.17075,0.19054769,1.0122274,0.13063164,0.3239733,0.6888261,-0.4801676
1747679494.1712713,0.19054769,1.0122274,0.13063164,0.29308066,0.8635293,-0.51106024
1747679494.1717932,0.19054769,1.0122274,0.13063164,0.29308066,0.8635293,-0.51106024
1747679494.1723225,0.19054769,1.0122274,0.13063164,0.29308066,0.8635293,-0.51106024
1747679494.1728833,0.19054769,1.0122274,0.13063164,0.29308066,0.8635293,-0.51106024
1747679494.1734443,0.19054769,1.0122274,0.13063164,0.29308066,0.8635293,-0.51106024
1747679494.1739905,0.19054769,1.0122274,0.13063164,0.29308066,0.8635293,-0.51106024
1747679494.1745286,0.19054769,1.0122274,0.13063164,0.29308066,0.8635293,-0.51106024
1747679494.1750565,0.19054769,1.0122274,0.13063164,0.29308066,0.8635293,-0.51106024
1747679494.1755784,0.19054769,1.0122274,0.13063164,0.29308066,0.8635293,-0.51106024
1747679494.1760995,0.19054769,1.0122274,0.13063164,0.29308066,0.8635293,-0.51106024
1747679494.1766381,0.19054769,1.0122274,0.13063164,0.29308066,0.8635293,-0.51106024
1747679494.1772008,0.19054769,1.0122274,0.13063164,0.29308066,0.8635293,-0.51106024
1747679494.1777387,0.19054769,1.0122274,0.13063164,0.29308066,0.8635293,-0.51106024
1747679494.1783593,0.19054769,1.0122274,0.13063164,0.29308066,0.8635293,-0.51106024
1747679494.1789138,0.08804365,0.9970959,0.12819107,0.29308066,0.8635293,-0.51106024
1747679494.1794705,0.08804365,0.9970959,0.12819107,0.29308066,0.8635293,-0.51106024
1747679494.1799977,0.08804365,0.9970959,0.12819107,0.29308066,0.8635293,-0.51106024
1747679494.180505,0.08804365,0.9970959,0.12819107,0.29308066,0.8635293,-0.51106024
1747679494.1810255,0.08804365,0.9970959,0.12819107,0.28775433,0.8528767,-0.4801676
1747679494.1815453,0.08804365,0.9970959,0.12819107,0.28775433,0.8528767,-0.4801676
1747679494.182064,0.08804365,0.9970959,0.12819107,0.28775433,0.8528767,-0.4801676
1747679494.182583,0.08804365,0.9970959,0.12819107,0.28775433,0.8528767,-0.4801676
1747679494.1831021,0.08804365,0.9970959,0.12819107,0.28775433,0.8528767,-0.4801676
1747679494.1836212,0.08804365,0.9970959,0.12819107,0.28775433,0.8528767,-0.4801676
1747679494.1841483,0.08804365,0.9970959,0.12819107,0.28775433,0.8528767,-0.4801676
1747679494.184677,0.08804365,0.9970959,0.12819107,0.28775433,0.8528767,-0.4801676
1747679494.1851974,0.08804365,0.9970959,0.12819107,0.28775433,0.8528767,-0.4801676
1747679494.185716,0.08804365,0.9970959,0.12819107,0.28775433,0.8528767,-0.4801676
1747679494.1862347,0.08804365,0.9970959,0.12819107,0.28775433,0.8528767,-0.4801676
1747679494.1867533,0.08804365,0.9970959,0.12819107,0.28775433,0.8528767,-0.4801676
1747679494.1872723,0.08804365,0.9970959,0.12819107,0.28775433,0.8528767,-0.4801676
1747679494.1877906,0.08804365,0.9970959,0.12819107,0.28775433,0.8528767,-0.4801676
1747679494.1883094,0.08804365,0.9970959,0.12819107,0.28775433,0.8528767,-0.4801676
1747679494.1888614,0.08804365,0.9970959,0.12819107,0.28775433,0.8528767,-0.4801676
1747679494.1894214,0.08804365,0.9970959,0.12819107,0.28775433,0.8528767,-0.4801676
1747679494.1899767,0.08804365,0.9970959,0.12819107,0.28775433,0.8528767,-0.4801676
1747679494.1905406,0.08804365,0.9970959,0.12819107,0.28775433,0.8528767,-0.4801676
1747679494.1910765,0.08804365,0.9970959,0.12819107,0.28775433,0.8528767,-0.4801676
1747679494.1915996,0.08804365,0.9970959,0.12819107,0.3239733,0.7186535,-0.40027282
1747679494.192136,0.01824328,0.9848931,0.13551278,0.3239733,0.7186535,-0.40027282
1747679494.192685,0.01824328,0.9848931,0.13551278,0.3239733,0.7186535,-0.40027282
1747679494.1932106,0.01824328,0.9848931,0.13551278,0.3239733,0.7186535,-0.40027282
1747679494.1937296,0.01824328,0.9848931,0.13551278,0.3239733,0.7186535,-0.40027282
1747679494.1942558,0.01824328,0.9848931,0.13551278,0.3239733,0.7186535,-0.40027282
1747679494.194782,0.01824328,0.9848931,0.13551278,0.3239733,0.7186535,-0.40027282
1747679494.1953025,0.01824328,0.9848931,0.13551278,0.3239733,0.7186535,-0.40027282
1747679494.1958213,0.01824328,0.9848931,0.13551278,0.3239733,0.7186535,-0.40027282
1747679494.19634,0.01824328,0.9848931,0.13551278,0.3239733,0.7186535,-0.40027282
1747679494.1968586,0.01824328,0.9848931,0.13551278,0.3239733,0.7186535,-0.40027282
1747679494.1973774,0.01824328,0.9848931,0.13551278,0.3239733,0.7186535,-0.40027282
1747679494.1978962,0.01824328,0.9848931,0.13551278,0.3239733,0.7186535,-0.40027282
1747679494.198415,0.01824328,0.9848931,0.13551278,0.3239733,0.7186535,-0.40027282
1747679494.1989338,0.01824328,0.9848931,0.13551278,0.3239733,0.7186535,-0.40027282
1747679494.1994524,0.01824328,0.9848931,0.13551278,0.3239733,0.7186535,-0.40027282
1747679494.199971,0.01824328,0.9848931,0.13551278,0.3239733,0.7186535,-0.40027282
1747679494.2004895,0.01824328,0.9848931,0.13551278,0.3239733,0.7186535,-0.40027282
1747679494.2010083,0.01824328,0.9848931,0.13551278,0.3239733,0.7186535,-0.40027282
1747679494.2015302,0.01824328,0.9848931,0.13551278,0.3239733,0.7186535,-0.40027282
1747679494.2020512,0.01824328,0.9848931,0.13551278,0.3239733,0.7186535,-0.40027282
1747679494.20257,0.01824328,0.9848931,0.13551278,0.3239733,0.7186535,-0.40027282
1747679494.2030885,0.01824328,0.9848931,0.13551278,0.3239733,0.7186535,-0.40027282
1747679494.2036142,0.01824328,0.9848931,0.13551278,0.3239733,0.7186535,-0.40027282
1747679494.2041624,0.01824328,0.9848931,0.13551278,0.3239733,0.7186535,-0.40027282
1747679494.2047327,0.01824328,0.9848931,0.13551278,0.3239733,0.7186535,-0.40027282
1747679494.2052941,0.01824328,0.9848931,0.13551278,0.3239733,0.7186535,-0.40027282
1747679494.2058434,0.01824328,0.9848931,0.13551278,0.3239733,0.7186535,-0.40027282
1747679494.2063773,0.01824328,0.9848931,0.13551278,0.3239733,0.7186535,-0.40027282
1747679494.2069325,0.01824328,0.9848931,0.13551278,0.3239733,0.7186535,-0.40027282
1747679494.207492,0.01824328,0.9848931,0.13551278,0.36445332,0.61425763,-0.34274858
1747679494.2080314,0.0031117299,0.9629278,0.1428345,0.36445332,0.61425763,-0.34274858
1747679494.208563,0.0031117299,0.9629278,0.1428345,0.36445332,0.61425763,-0.34274858
1747679494.2090998,0.0031117299,0.9629278,0.1428345,0.36445332,0.61425763,-0.34274858
1747679494.2096334,0.0031117299,0.9629278,0.1428345,0.36445332,0.61425763,-0.34274858
1747679494.210157,0.0031117299,0.9629278,0.1428345,0.36445332,0.61425763,-0.34274858
1747679494.210678,0.0031117299,0.9629278,0.1428345,0.36445332,0.61425763,-0.34274858
1747679494.2111998,0.0031117299,0.9629278,0.1428345,0.36445332,0.61425763,-0.34274858
1747679494.2117279,0.0031117299,0.9629278,0.1428345,0.36445332,0.61425763,-0.34274858
1747679494.2122483,0.0031117299,0.9629278,0.1428345,0.36445332,0.61425763,-0.34274858
1747679494.2127676,0.0031117299,0.9629278,0.1428345,0.36445332,0.61425763,-0.34274858
1747679494.2132888,0.0031117299,0.9629278,0.1428345,0.36445332,0.61425763,-0.34274858
1747679494.2138221,0.0031117299,0.9629278,0.1428345,0.44328284,0.42996705,-0.23196116
1747679494.2143526,0.0031117299,0.9629278,0.1428345,0.44328284,0.42996705,-0.23196116
1747679494.2148738,0.0031117299,0.9629278,0.1428345,0.44328284,0.42996705,-0.23196116
1747679494.2154155,0.024588767,0.9263193,0.12086935,0.44328284,0.42996705,-0.23196116
1747679494.2159355,0.024588767,0.9263193,0.12086935,0.44328284,0.42996705,-0.23196116
1747679494.2164545,0.024588767,0.9263193,0.12086935,0.44328284,0.42996705,-0.23196116
1747679494.2169728,0.024588767,0.9263193,0.12086935,0.44328284,0.42996705,-0.23196116
1747679494.2174911,0.024588767,0.9263193,0.12086935,0.44328284,0.42996705,-0.23196116
1747679494.2180097,0.024588767,0.9263193,0.12086935,0.44328284,0.42996705,-0.23196116
1747679494.2185283,0.024588767,0.9263193,0.12086935,0.44328284,0.42996705,-0.23196116
1747679494.2190464,0.024588767,0.9263193,0.12086935,0.44328284,0.42996705,-0.23196116
1747679494.2195938,0.024588767,0.9263193,0.12086935,0.44328284,0.42996705,-0.23196116
1747679494.220148,0.024588767,0.9263193,0.12086935,0.44328284,0.42996705,-0.23196116
1747679494.2207143,0.024588767,0.9263193,0.12086935,0.44328284,0.42996705,-0.23196116
1747679494.2212539,0.024588767,0.9263193,0.12086935,0.44328284,0.42996705,-0.23196116
1747679494.2218058,0.024588767,0.9263193,0.12086935,0.44328284,0.42996705,-0.23196116
1747679494.2223752,0.04850638,0.94145083,0.08133208,0.44328284,0.42996705,-0.23196116
1747679494.2229419,0.04850638,0.94145083,0.08133208,0.44328284,0.42996705,-0.23196116
1747679494.223552,0.04850638,0.94145083,0.08133208,0.46352285,0.32024488,-0.14993586
1747679494.2241051,0.04850638,0.94145083,0.08133208,0.46352285,0.32024488,-0.14993586
1747679494.2246501,0.04850638,0.94145083,0.08133208,0.46352285,0.32024488,-0.14993586
1747679494.2252052,0.04850638,0.94145083,0.08133208,0.46352285,0.32024488,-0.14993586
1747679494.2257802,0.04850638,0.94145083,0.08133208,0.46352285,0.32024488,-0.14993586
1747679494.2263255,0.04850638,0.94145083,0.08133208,0.46352285,0.32024488,-0.14993586
1747679494.2268767,0.04850638,0.94145083,0.08133208,0.46352285,0.32024488,-0.14993586
1747679494.2274299,0.04850638,0.94145083,0.08133208,0.46352285,0.32024488,-0.14993586
1747679494.2279549,0.04850638,0.94145083,0.08133208,0.46352285,0.32024488,-0.14993586
1747679494.2284749,0.04850638,0.94145083,0.08133208,0.46352285,0.32024488,-0.14993586
1747679494.228994,0.04850638,0.94145083,0.08133208,0.46352285,0.32024488,-0.14993586
1747679494.2295127,0.04850638,0.94145083,0.08133208,0.46352285,0.32024488,-0.14993586
1747679494.2300313,0.04850638,0.94145083,0.08133208,0.46352285,0.32024488,-0.14993586
1747679494.2305503,0.04850638,0.94145083,0.08133208,0.46352285,0.32024488,-0.14993586
1747679494.231069,0.04850638,0.94145083,0.08133208,0.46352285,0.32024488,-0.14993586
1747679494.231614,0.04850638,0.94145083,0.08133208,0.46352285,0.32024488,-0.14993586
1747679494.2321334,0.04850638,0.94145083,0.08133208,0.46352285,0.32024488,-0.14993586
1747679494.2326531,0.087067425,0.9897742,0.030568171,0.42623863,0.27230802,-0.07430214
1747679494.2331722,0.087067425,0.9897742,0.030568171,0.42623863,0.27230802,-0.07430214
1747679494.233691,0.087067425,0.9897742,0.030568171,0.42623863,0.27230802,-0.07430214
1747679494.2342293,0.087067425,0.9897742,0.030568171,0.42623863,0.27230802,-0.07430214
1747679494.234763,0.087067425,0.9897742,0.030568171,0.42623863,0.27230802,-0.07430214
1747679494.235313,0.087067425,0.9897742,0.030568171,0.42623863,0.27230802,-0.07430214
1747679494.2358668,0.087067425,0.9897742,0.030568171,0.42623863,0.27230802,-0.07430214
1747679494.2364209,0.087067425,0.9897742,0.030568171,0.42623863,0.27230802,-0.07430214
1747679494.2369633,0.087067425,0.9897742,0.030568171,0.42623863,0.27230802,-0.07430214
1747679494.2375233,0.087067425,0.9897742,0.030568171,0.42623863,0.27230802,-0.07430214
1747679494.2380595,0.087067425,0.9897742,0.030568171,0.42623863,0.27230802,-0.07430214
1747679494.2385826,0.087067425,0.9897742,0.030568171,0.42623863,0.27230802,-0.07430214
1747679494.239138,0.087067425,0.9897742,0.030568171,0.42623863,0.27230802,-0.07430214
1747679494.2396715,0.087067425,0.9897742,0.030568171,0.42623863,0.27230802,-0.07430214
1747679494.2401915,0.087067425,0.9897742,0.030568171,0.42623863,0.27230802,-0.07430214
1747679494.2407105,0.087067425,0.9897742,0.030568171,0.42623863,0.27230802,-0.07430214
1747679494.2412295,0.087067425,0.9897742,0.030568171,0.42623863,0.27230802,-0.07430214
1747679494.2417488,0.087067425,0.9897742,0.030568171,0.42623863,0.27230802,-0.07430214
1747679494.2422676,0.087067425,0.9897742,0.030568171,0.42623863,0.27230802,-0.07430214
1747679494.2427864,0.087067425,0.9897742,0.030568171,0.42623863,0.27230802,-0.07430214
1747679494.2433188,0.087067425,0.9897742,0.030568171,0.42623863,0.27230802,-0.07430214
1747679494.2438512,0.087067425,0.9897742,0.030568171,0.42623863,0.27230802,-0.07430214
1747679494.2444,0.087067425,0.9897742,0.030568171,0.42623863,0.27230802,-0.07430214
1747679494.244919,0.087067425,0.9897742,0.030568171,0.42623863,0.27230802,-0.07430214
1747679494.2454374,0.087067425,0.9897742,0.030568171,0.42623863,0.27230802,-0.07430214
1747679494.2459567,0.19982187,1.0405381,0.009091132,0.42623863,0.27230802,-0.07430214
1747679494.2464755,0.19982187,1.0405381,0.009091132,0.42623863,0.27230802,-0.07430214
1747679494.2469943,0.19982187,1.0405381,0.009091132,0.42623863,0.27230802,-0.07430214
