timestamp,acc_x,acc_y,acc_z,gyro_x,gyro_y,gyro_z
1747679588.539655,-0.07596282,0.9839168,0.08621322,-0.4696481,0.08375636,-0.3534012
1747679588.5402777,-0.07596282,0.9839168,0.08621322,-0.51438916,-0.055793185,-0.27457172
1747679588.5408244,-0.07596282,0.9839168,0.08621322,-0.51438916,-0.055793185,-0.27457172
1747679588.541353,-0.07596282,0.9839168,0.08621322,-0.51438916,-0.055793185,-0.27457172
1747679588.5418732,-0.07596282,0.9839168,0.08621322,-0.51438916,-0.055793185,-0.27457172
1747679588.5423927,-0.07596282,0.9839168,0.08621322,-0.51438916,-0.055793185,-0.27457172
1747679588.5429118,-0.07596282,0.9839168,0.08621322,-0.51438916,-0.055793185,-0.27457172
1747679588.5434644,-0.07596282,0.9839168,0.08621322,-0.51438916,-0.055793185,-0.27457172
1747679588.5440087,-0.07596282,0.9839168,0.08621322,-0.51438916,-0.055793185,-0.27457172
1747679588.5445318,-0.07596282,0.9839168,0.08621322,-0.51438916,-0.055793185,-0.27457172
1747679588.5450504,-0.07596282,0.9839168,0.08621322,-0.51438916,-0.055793185,-0.27457172
1747679588.545569,-0.07596282,0.9839168,0.08621322,-0.51438916,-0.055793185,-0.27457172
1747679588.5460906,-0.07596282,0.9839168,0.08621322,-0.51438916,-0.055793185,-0.27457172
1747679588.5466123,-0.07596282,0.9839168,0.08621322,-0.51438916,-0.055793185,-0.27457172
1747679588.5471334,-0.07596282,0.9839168,0.08621322,-0.51438916,-0.055793185,-0.27457172
1747679588.5476913,-0.04814029,0.9839168,0.18481235,-0.51438916,-0.055793185,-0.27457172
1747679588.5482788,-0.04814029,0.9839168,0.18481235,-0.48349655,-0.21558273,-0.13395691
1747679588.548856,-0.04814029,0.9839168,0.18481235,-0.48349655,-0.21558273,-0.13395691
1747679588.5494273,-0.04814029,0.9839168,0.18481235,-0.48349655,-0.21558273,-0.13395691
1747679588.5499964,-0.04814029,0.9839168,0.18481235,-0.48349655,-0.21558273,-0.13395691
1747679588.5505655,-0.04814029,0.9839168,0.18481235,-0.48349655,-0.21558273,-0.13395691
1747679588.5511336,-0.04814029,0.9839168,0.18481235,-0.48349655,-0.21558273,-0.13395691
1747679588.551717,-0.04814029,0.9839168,0.18481235,-0.48349655,-0.21558273,-0.13395691
1747679588.5523007,-0.04814029,0.9839168,0.18481235,-0.48349655,-0.21558273,-0.13395691
1747679588.5528848,-0.04814029,0.9839168,0.18481235,-0.48349655,-0.21558273,-0.13395691
1747679588.5534828,-0.04814029,0.9839168,0.18481235,-0.48349655,-0.21558273,-0.13395691
1747679588.5540628,-0.04814029,0.9839168,0.18481235,-0.48349655,-0.21558273,-0.13395691
1747679588.5546105,-0.04814029,0.9839168,0.18481235,-0.48349655,-0.21558273,-0.13395691
1747679588.555139,-0.04814029,0.9839168,0.18481235,-0.48349655,-0.21558273,-0.13395691
1747679588.555661,-0.04814029,0.9839168,0.18481235,-0.48349655,-0.21558273,-0.13395691
1747679588.5561829,-0.04814029,0.9839168,0.18481235,-0.48349655,-0.21558273,-0.13395691
1747679588.5567045,-0.04814029,0.9839168,0.18481235,-0.48349655,-0.21558273,-0.13395691
1747679588.557226,-0.04814029,0.9839168,0.18481235,-0.48349655,-0.21558273,-0.13395691
1747679588.557749,-0.04814029,0.9839168,0.18481235,-0.48349655,-0.21558273,-0.13395691
1747679588.5582705,-0.04814029,0.9839168,0.18481235,-0.48349655,-0.21558273,-0.13395691
1747679588.5588272,-0.04814029,0.9839168,0.18481235,-0.48349655,-0.21558273,-0.13395691
1747679588.5594192,0.028493684,0.9517012,0.23948117,-0.48349655,-0.21558273,-0.13395691
1747679588.5599875,0.028493684,0.9517012,0.23948117,-0.48349655,-0.21558273,-0.13395691
1747679588.560557,0.028493684,0.9517012,0.23948117,-0.36631754,-0.3476754,-0.071106344
1747679588.5611234,0.028493684,0.9517012,0.23948117,-0.36631754,-0.3476754,-0.071106344
1747679588.5616658,0.028493684,0.9517012,0.23948117,-0.36631754,-0.3476754,-0.071106344
1747679588.5622299,0.028493684,0.9517012,0.23948117,-0.36631754,-0.3476754,-0.071106344
1747679588.5627913,0.028493684,0.9517012,0.23948117,-0.36631754,-0.3476754,-0.071106344
1747679588.5633597,0.028493684,0.9517012,0.23948117,-0.36631754,-0.3476754,-0.071106344
1747679588.5639267,0.028493684,0.9517012,0.23948117,-0.36631754,-0.3476754,-0.071106344
1747679588.5645003,0.028493684,0.9517012,0.23948117,-0.36631754,-0.3476754,-0.071106344
1747679588.5650792,0.028493684,0.9517012,0.23948117,-0.36631754,-0.3476754,-0.071106344
1747679588.565643,0.028493684,0.9517012,0.23948117,-0.36631754,-0.3476754,-0.071106344
1747679588.5662043,0.028493684,0.9517012,0.23948117,-0.36631754,-0.3476754,-0.071106344
1747679588.566766,0.028493684,0.9517012,0.23948117,-0.36631754,-0.3476754,-0.071106344
1747679588.5673277,0.028493684,0.9517012,0.23948117,-0.36631754,-0.3476754,-0.071106344
1747679588.5678892,0.028493684,0.9517012,0.23948117,-0.36631754,-0.3476754,-0.071106344
1747679588.568484,0.028493684,0.9517012,0.23948117,-0.36631754,-0.3476754,-0.071106344
1747679588.569045,0.028493684,0.9517012,0.23948117,-0.36631754,-0.3476754,-0.071106344
1747679588.5804846,0.028493684,0.9517012,0.23948117,-0.36631754,-0.3476754,-0.071106344
1747679588.5810647,0.0660785,0.97073764,0.26144633,-0.03715107,-0.55433655,-0.012516848
1747679588.5816002,0.0660785,0.97073764,0.26144633,-0.03715107,-0.55433655,-0.012516848
1747679588.58213,0.0660785,0.97073764,0.26144633,-0.03715107,-0.55433655,-0.012516848
1747679588.5826552,0.0660785,0.97073764,0.26144633,-0.03715107,-0.55433655,-0.012516848
1747679588.5832174,0.0660785,0.97073764,0.26144633,-0.03715107,-0.55433655,-0.012516848
1747679588.5837827,0.0660785,0.97073764,0.26144633,-0.03715107,-0.55433655,-0.012516848
1747679588.584342,0.0660785,0.97073764,0.26144633,-0.03715107,-0.55433655,-0.012516848
1747679588.5848756,0.0660785,0.97073764,0.26144633,-0.03715107,-0.55433655,-0.012516848
1747679588.5853965,0.0660785,0.97073764,0.26144633,-0.03715107,-0.55433655,-0.012516848
1747679588.5859153,0.0660785,0.97073764,0.26144633,-0.03715107,-0.55433655,-0.012516848
1747679588.5864427,0.0660785,0.97073764,0.26144633,-0.03715107,-0.55433655,-0.012516848
1747679588.586962,0.0660785,0.97073764,0.26144633,-0.03715107,-0.55433655,-0.012516848
1747679588.5874808,0.0660785,0.97073764,0.26144633,-0.03715107,-0.55433655,-0.012516848
1747679588.5879998,0.0660785,0.97073764,0.26144633,-0.03715107,-0.55433655,-0.012516848
1747679588.5885217,0.0660785,0.97073764,0.26144633,-0.03715107,-0.55433655,-0.012516848
1747679588.589046,0.0660785,0.97073764,0.26144633,-0.03715107,-0.55433655,-0.012516848
1747679588.58957,0.21153662,1.0200373,0.25949386,-0.03715107,-0.55433655,-0.012516848
1747679588.5900943,0.21153662,1.0200373,0.25949386,0.12903006,-0.511726,-0.041278966
1747679588.5906153,0.21153662,1.0200373,0.25949386,0.12903006,-0.511726,-0.041278966
1747679588.5911343,0.21153662,1.0200373,0.25949386,0.12903006,-0.511726,-0.041278966
1747679588.591653,0.21153662,1.0200373,0.25949386,0.12903006,-0.511726,-0.041278966
1747679588.5921717,0.21153662,1.0200373,0.25949386,0.12903006,-0.511726,-0.041278966
1747679588.5926945,0.21153662,1.0200373,0.25949386,0.12903006,-0.511726,-0.041278966
1747679588.5932143,0.21153662,1.0200373,0.25949386,0.12903006,-0.511726,-0.041278966
1747679588.593733,0.21153662,1.0200373,0.25949386,0.12903006,-0.511726,-0.041278966
1747679588.5942643,0.21153662,1.0200373,0.25949386,0.12903006,-0.511726,-0.041278966
1747679588.5948083,0.21153662,1.0200373,0.25949386,0.12903006,-0.511726,-0.041278966
1747679588.5953722,0.21153662,1.0200373,0.25949386,0.12903006,-0.511726,-0.041278966
1747679588.595938,0.21153662,1.0200373,0.25949386,0.12903006,-0.511726,-0.041278966
1747679588.596488,0.21153662,1.0200373,0.25949386,0.12903006,-0.511726,-0.041278966
1747679588.5970268,0.21153662,1.0200373,0.25949386,0.12903006,-0.511726,-0.041278966
1747679588.5975645,0.21153662,1.0200373,0.25949386,0.12903006,-0.511726,-0.041278966
1747679588.598102,0.21153662,1.0200373,0.25949386,0.12903006,-0.511726,-0.041278966
1747679588.5986872,0.21153662,1.0200373,0.25949386,0.12903006,-0.511726,-0.041278966
1747679588.5992584,0.21153662,1.0200373,0.25949386,0.12903006,-0.511726,-0.041278966
1747679588.5998075,0.21153662,1.0200373,0.25949386,0.12903006,-0.511726,-0.041278966
1747679588.6003456,0.21153662,1.0200373,0.25949386,0.12903006,-0.511726,-0.041278966
1747679588.6015925,0.30232593,1.0205253,0.24973157,0.19081534,-0.33489224,-0.10626005
1747679588.6021876,0.30232593,1.0205253,0.24973157,0.19081534,-0.33489224,-0.10626005
1747679588.6027434,0.30232593,1.0205253,0.24973157,0.19081534,-0.33489224,-0.10626005
1747679588.6032898,0.30232593,1.0205253,0.24973157,0.19081534,-0.33489224,-0.10626005
1747679588.603843,0.30232593,1.0205253,0.24973157,0.19081534,-0.33489224,-0.10626005
1747679588.6043992,0.30232593,1.0205253,0.24973157,0.19081534,-0.33489224,-0.10626005
1747679588.6049569,0.30232593,1.0205253,0.24973157,0.19081534,-0.33489224,-0.10626005
1747679588.6055064,0.30232593,1.0205253,0.24973157,0.19081534,-0.33489224,-0.10626005
1747679588.6060483,0.30232593,1.0205253,0.24973157,0.19081534,-0.33489224,-0.10626005
1747679588.6065822,0.30232593,1.0205253,0.24973157,0.19081534,-0.33489224,-0.10626005
1747679588.6071022,0.30232593,1.0205253,0.24973157,0.19081534,-0.33489224,-0.10626005
1747679588.6076217,0.30232593,1.0205253,0.24973157,0.19081534,-0.33489224,-0.10626005
1747679588.6081407,0.30232593,1.0205253,0.24973157,0.19081534,-0.33489224,-0.10626005
1747679588.6086597,0.30232593,1.0205253,0.24973157,0.19081534,-0.33489224,-0.10626005
1747679588.6091785,0.30232593,1.0205253,0.24973157,0.19081534,-0.33489224,-0.10626005
1747679588.609702,0.3423513,1.0117394,0.24680288,0.2707101,-0.024900537,-0.27670223
1747679588.6102407,0.3423513,1.0117394,0.24680288,0.2707101,-0.024900537,-0.27670223
1747679588.6108198,0.3423513,1.0117394,0.24680288,0.2707101,-0.024900537,-0.27670223
1747679588.6113763,0.3423513,1.0117394,0.24680288,0.2707101,-0.024900537,-0.27670223
1747679588.6119246,0.3423513,1.0117394,0.24680288,0.2707101,-0.024900537,-0.27670223
1747679588.612471,0.3423513,1.0117394,0.24680288,0.2707101,-0.024900537,-0.27670223
1747679588.6130168,0.3423513,1.0117394,0.24680288,0.2707101,-0.024900537,-0.27670223
1747679588.6135921,0.3423513,1.0117394,0.24680288,0.2707101,-0.024900537,-0.27670223
1747679588.6141756,0.3423513,1.0117394,0.24680288,0.2707101,-0.024900537,-0.27670223
1747679588.6147263,0.3423513,1.0117394,0.24680288,0.2707101,-0.024900537,-0.27670223
1747679588.6152875,0.3423513,1.0117394,0.24680288,0.2707101,-0.024900537,-0.27670223
1747679588.6158354,0.3423513,1.0117394,0.24680288,0.2707101,-0.024900537,-0.27670223
1747679588.6163635,0.3423513,1.0117394,0.24680288,0.2707101,-0.024900537,-0.27670223
1747679588.6168833,0.3423513,1.0117394,0.24680288,0.2707101,-0.024900537,-0.27670223
1747679588.6174026,0.3423513,1.0117394,0.24680288,0.2707101,-0.024900537,-0.27670223
1747679588.617921,0.3423513,1.0117394,0.24680288,0.2707101,-0.024900537,-0.27670223
1747679588.61844,0.3423513,1.0117394,0.24680288,0.2707101,-0.024900537,-0.27670223
1747679588.6189585,0.3423513,1.0117394,0.24680288,0.2707101,-0.024900537,-0.27670223
1747679588.6194775,0.3423513,1.0117394,0.24680288,0.2707101,-0.024900537,-0.27670223
1747679588.6200395,0.3423513,1.0117394,0.24680288,0.2707101,-0.024900537,-0.27670223
1747679588.6205845,0.1436887,0.99904835,0.25510085,0.2707101,-0.024900537,-0.27670223
1747679588.6211224,0.1436887,0.99904835,0.25510085,0.2707101,-0.024900537,-0.27670223
1747679588.6216896,0.1436887,0.99904835,0.25510085,0.42623863,0.0326237,-0.4269044
1747679588.622216,0.1436887,0.99904835,0.25510085,0.42623863,0.0326237,-0.4269044
1747679588.622735,0.1436887,0.99904835,0.25510085,0.42623863,0.0326237,-0.4269044
1747679588.6232648,0.1436887,0.99904835,0.25510085,0.42623863,0.0326237,-0.4269044
1747679588.6237984,0.1436887,0.99904835,0.25510085,0.42623863,0.0326237,-0.4269044
1747679588.62432,0.1436887,0.99904835,0.25510085,0.42623863,0.0326237,-0.4269044
1747679588.6248388,0.1436887,0.99904835,0.25510085,0.42623863,0.0326237,-0.4269044
1747679588.625369,0.1436887,0.99904835,0.25510085,0.42623863,0.0326237,-0.4269044
1747679588.6259222,0.1436887,0.99904835,0.25510085,0.42623863,0.0326237,-0.4269044
1747679588.6264813,0.1436887,0.99904835,0.25510085,0.42623863,0.0326237,-0.4269044
1747679588.627038,0.1436887,0.99904835,0.25510085,0.42623863,0.0326237,-0.4269044
1747679588.627584,0.1436887,0.99904835,0.25510085,0.42623863,0.0326237,-0.4269044
1747679588.6281211,0.1436887,0.99904835,0.25510085,0.42623863,0.0326237,-0.4269044
1747679588.6286898,0.1436887,0.99904835,0.25510085,0.42623863,0.0326237,-0.4269044
1747679588.629281,0.1436887,0.99904835,0.25510085,0.42623863,0.0326237,-0.4269044
1747679588.6298494,0.1436887,0.99904835,0.25510085,0.42623863,0.0326237,-0.4269044
1747679588.630399,0.1436887,0.99904835,0.25510085,0.42623863,0.0326237,-0.4269044
1747679588.6309414,0.1436887,0.99904835,0.25510085,0.42623863,0.0326237,-0.4269044
1747679588.631496,0.1436887,0.99904835,0.25510085,0.42623863,0.0326237,-0.4269044
1747679588.6326587,0.1436887,0.99904835,0.25510085,0.42623863,0.0326237,-0.4269044
1747679588.6332533,-0.108666494,1.01418,0.25607708,0.5849629,-0.33169648,-0.3299654
1747679588.633825,-0.108666494,1.01418,0.25607708,0.5849629,-0.33169648,-0.3299654
1747679588.6343915,-0.108666494,1.01418,0.25607708,0.5849629,-0.33169648,-0.3299654
1747679588.6349444,-0.108666494,1.01418,0.25607708,0.5849629,-0.33169648,-0.3299654
1747679588.6354804,-0.108666494,1.01418,0.25607708,0.5849629,-0.33169648,-0.3299654
1747679588.6360009,-0.108666494,1.01418,0.25607708,0.5849629,-0.33169648,-0.3299654
1747679588.6365204,-0.108666494,1.01418,0.25607708,0.5849629,-0.33169648,-0.3299654
1747679588.6370394,-0.108666494,1.01418,0.25607708,0.5849629,-0.33169648,-0.3299654
1747679588.6376116,-0.08767757,1.0185729,0.17358571,0.5849629,-0.33169648,-0.3299654
1747679588.6381373,-0.08767757,1.0185729,0.17358571,0.5849629,-0.33169648,-0.3299654
1747679588.6386602,-0.08767757,1.0185729,0.17358571,0.5849629,-0.33169648,-0.3299654
1747679588.6391826,-0.08767757,1.0185729,0.17358571,0.5849629,-0.33169648,-0.3299654
1747679588.639703,-0.08767757,1.0185729,0.17358571,0.5849629,-0.33169648,-0.3299654
1747679588.6402216,-0.08767757,1.0185729,0.17358571,0.5849629,-0.33169648,-0.3299654
1747679588.6407406,-0.08767757,1.0185729,0.17358571,0.5849629,-0.33169648,-0.3299654
1747679588.6412594,-0.08767757,1.0185729,0.17358571,0.5849629,-0.33169648,-0.3299654
1747679588.6418107,-0.08767757,1.0185729,0.17358571,0.5849629,-0.33169648,-0.3299654
1747679588.642352,-0.08767757,1.0185729,0.17358571,0.5849629,-0.33169648,-0.3299654
1747679588.6428907,-0.08767757,1.0185729,0.17358571,0.5849629,-0.33169648,-0.3299654
1747679588.6434221,-0.08767757,1.0185729,0.17358571,0.5849629,-0.33169648,-0.3299654
1747679588.643996,-0.08767757,1.0185729,0.17358571,0.5849629,-0.33169648,-0.3299654
1747679588.644563,-0.08767757,1.0185729,0.17358571,0.5849629,-0.33169648,-0.3299654
1747679588.6451018,-0.08767757,1.0185729,0.17358571,0.5849629,-0.33169648,-0.3299654
1747679588.6456256,-0.08767757,1.0185729,0.17358571,0.5849629,-0.33169648,-0.3299654
1747679588.6461596,-0.08767757,1.0185729,0.17358571,0.5849629,-0.33169648,-0.3299654
1747679588.6466873,-0.08767757,1.0185729,0.17358571,0.5849629,-0.33169648,-0.3299654
1747679588.6472147,-0.08767757,1.0185729,0.17358571,0.5849629,-0.33169648,-0.3299654
1747679588.6477416,-0.08767757,1.0185729,0.17358571,0.5849629,-0.33169648,-0.3299654
1747679588.6482706,-0.08767757,1.0185729,0.17358571,0.73090404,-0.7876293,-0.0061252657
1747679588.648799,-0.08767757,1.0185729,0.17358571,0.73090404,-0.7876293,-0.0061252657
1747679588.6493263,-0.08767757,1.0185729,0.17358571,0.73090404,-0.7876293,-0.0061252657
1747679588.649856,0.017755164,1.0063701,0.01641285,0.73090404,-0.7876293,-0.0061252657
1747679588.6503847,0.017755164,1.0063701,0.01641285,0.73090404,-0.7876293,-0.0061252657
1747679588.6509464,0.017755164,1.0063701,0.01641285,0.73090404,-0.7876293,-0.0061252657
1747679588.6514878,0.017755164,1.0063701,0.01641285,0.73090404,-0.7876293,-0.0061252657
1747679588.652011,0.017755164,1.0063701,0.01641285,0.73090404,-0.7876293,-0.0061252657
1747679588.6525333,0.017755164,1.0063701,0.01641285,0.73090404,-0.7876293,-0.0061252657
1747679588.6530552,0.017755164,1.0063701,0.01641285,0.73090404,-0.7876293,-0.0061252657
1747679588.6535773,0.017755164,1.0063701,0.01641285,0.73090404,-0.7876293,-0.0061252657
1747679588.654109,0.017755164,1.0063701,0.01641285,0.73090404,-0.7876293,-0.0061252657
1747679588.654645,0.017755164,1.0063701,0.01641285,0.73090404,-0.7876293,-0.0061252657
1747679588.6551695,0.017755164,1.0063701,0.01641285,0.73090404,-0.7876293,-0.0061252657
1747679588.655691,0.017755164,1.0063701,0.01641285,0.73090404,-0.7876293,-0.0061252657
1747679588.6562128,0.017755164,1.0063701,0.01641285,0.73090404,-0.7876293,-0.0061252657
1747679588.656744,0.017755164,1.0063701,0.01641285,0.73090404,-0.7876293,-0.0061252657
1747679588.657302,0.017755164,1.0063701,0.01641285,0.73090404,-0.7876293,-0.0061252657
1747679588.657858,0.017755164,1.0063701,0.01641285,0.73090404,-0.7876293,-0.0061252657
1747679588.658403,0.017755164,1.0063701,0.01641285,0.73090404,-0.7876293,-0.0061252657
1747679588.658989,0.056804325,0.99758404,-0.10219897,0.58602816,-0.64381874,0.015180007
1747679588.6595633,0.056804325,0.99758404,-0.10219897,0.58602816,-0.64381874,0.015180007
1747679588.6601267,0.056804325,0.99758404,-0.10219897,0.58602816,-0.64381874,0.015180007
1747679588.660688,0.056804325,0.99758404,-0.10219897,0.58602816,-0.64381874,0.015180007
1747679588.6612415,0.056804325,0.99758404,-0.10219897,0.58602816,-0.64381874,0.015180007
1747679588.661761,0.056804325,0.99758404,-0.10219897,0.58602816,-0.64381874,0.015180007
1747679588.6627502,0.056804325,0.99758404,-0.10219897,0.58602816,-0.64381874,0.015180007
1747679588.6633096,0.056804325,0.99758404,-0.10219897,0.58602816,-0.64381874,0.015180007
1747679588.663843,0.056804325,0.99758404,-0.10219897,0.58602816,-0.64381874,0.015180007
1747679588.6643815,0.056804325,0.99758404,-0.10219897,0.58602816,-0.64381874,0.015180007
1747679588.6649218,0.056804325,0.99758404,-0.10219897,0.58602816,-0.64381874,0.015180007
1747679588.6654441,0.056804325,0.99758404,-0.10219897,0.58602816,-0.64381874,0.015180007
1747679588.665963,0.056804325,0.99758404,-0.10219897,0.58602816,-0.64381874,0.015180007
1747679588.6664813,0.056804325,0.99758404,-0.10219897,0.58602816,-0.64381874,0.015180007
1747679588.6669998,0.056804325,0.99758404,-0.10219897,0.58602816,-0.64381874,0.015180007
1747679588.6675231,0.056804325,0.99758404,-0.10219897,0.58602816,-0.64381874,0.015180007
1747679588.6680462,0.037767857,0.9946554,-0.12855715,0.58602816,-0.64381874,0.015180007
1747679588.66857,0.037767857,0.9946554,-0.12855715,0.34847438,-0.38815543,0.037550543
1747679588.6690898,0.037767857,0.9946554,-0.12855715,0.34847438,-0.38815543,0.037550543
1747679588.669608,0.037767857,0.9946554,-0.12855715,0.34847438,-0.38815543,0.037550543
1747679588.6701267,0.037767857,0.9946554,-0.12855715,0.34847438,-0.38815543,0.037550543
1747679588.670645,0.037767857,0.9946554,-0.12855715,0.34847438,-0.38815543,0.037550543
1747679588.6711636,0.037767857,0.9946554,-0.12855715,0.34847438,-0.38815543,0.037550543
1747679588.6716824,0.037767857,0.9946554,-0.12855715,0.34847438,-0.38815543,0.037550543
1747679588.672214,0.037767857,0.9946554,-0.12855715,0.34847438,-0.38815543,0.037550543
1747679588.6727695,0.037767857,0.9946554,-0.12855715,0.34847438,-0.38815543,0.037550543
1747679588.6733239,0.037767857,0.9946554,-0.12855715,0.34847438,-0.38815543,0.037550543
1747679588.673892,0.037767857,0.9946554,-0.12855715,0.34847438,-0.38815543,0.037550543
1747679588.674451,0.037767857,0.9946554,-0.12855715,0.34847438,-0.38815543,0.037550543
1747679588.6749773,0.037767857,0.9946554,-0.12855715,0.34847438,-0.38815543,0.037550543
1747679588.6754968,0.037767857,0.9946554,-0.12855715,0.34847438,-0.38815543,0.037550543
1747679588.6760159,0.037767857,0.9946554,-0.12855715,0.34847438,-0.38815543,0.037550543
1747679588.6765356,0.037767857,0.9946554,-0.12855715,0.34847438,-0.38815543,0.037550543
1747679588.6770542,0.037767857,0.9946554,-0.12855715,0.34847438,-0.38815543,0.037550543
1747679588.677578,0.0075047608,0.9927029,-0.116842404,0.12050795,-0.12503532,0.08016109
1747679588.6780992,0.0075047608,0.9927029,-0.116842404,0.12050795,-0.12503532,0.08016109
1747679588.678676,0.0075047608,0.9927029,-0.116842404,0.12050795,-0.12503532,0.08016109
1747679588.6791968,0.0075047608,0.9927029,-0.116842404,0.12050795,-0.12503532,0.08016109
1747679588.6797159,0.0075047608,0.9927029,-0.116842404,0.12050795,-0.12503532,0.08016109
1747679588.6802347,0.0075047608,0.9927029,-0.116842404,0.12050795,-0.12503532,0.08016109
1747679588.680754,0.0075047608,0.9927029,-0.116842404,0.12050795,-0.12503532,0.08016109
1747679588.6812725,0.0075047608,0.9927029,-0.116842404,0.12050795,-0.12503532,0.08016109
1747679588.681791,0.0075047608,0.9927029,-0.116842404,0.12050795,-0.12503532,0.08016109
1747679588.6823099,0.0075047608,0.9927029,-0.116842404,0.12050795,-0.12503532,0.08016109
1747679588.6828282,0.0075047608,0.9927029,-0.116842404,0.12050795,-0.12503532,0.08016109
1747679588.6833467,0.0075047608,0.9927029,-0.116842404,0.12050795,-0.12503532,0.08016109
1747679588.6838653,0.0075047608,0.9927029,-0.116842404,0.12050795,-0.12503532,0.08016109
1747679588.6843991,0.0075047608,0.9927029,-0.116842404,0.12050795,-0.12503532,0.08016109
1747679588.6849408,0.0075047608,0.9927029,-0.116842404,0.12050795,-0.12503532,0.08016109
1747679588.6854627,0.0075047608,0.9927029,-0.116842404,0.12050795,-0.12503532,0.08016109
1747679588.6859818,0.0075047608,0.9927029,-0.116842404,0.12050795,-0.12503532,0.08016109
1747679588.6865005,0.0075047608,0.9927029,-0.116842404,0.12050795,-0.12503532,0.08016109
1747679588.6870196,0.0075047608,0.9927029,-0.116842404,0.12050795,-0.12503532,0.08016109
1747679588.6875668,0.0075047608,0.9927029,-0.116842404,0.12050795,-0.12503532,0.08016109
1747679588.688111,0.0075047608,0.9927029,-0.116842404,0.12050795,-0.12503532,0.08016109
1747679588.6886463,0.0075047608,0.9927029,-0.116842404,0.12050795,-0.12503532,0.08016109
1747679588.6892154,0.0075047608,0.9927029,-0.116842404,0.12050795,-0.12503532,0.08016109
1747679588.689781,0.0075047608,0.9927029,-0.116842404,0.12050795,-0.12503532,0.08016109
1747679588.6903512,0.020683851,1.0127156,-0.06168547,-0.08082688,0.054994237,0.12596743
1747679588.690908,0.020683851,1.0127156,-0.06168547,-0.08082688,0.054994237,0.12596743
1747679588.6914563,0.020683851,1.0127156,-0.06168547,-0.08082688,0.054994237,0.12596743
1747679588.6920052,0.020683851,1.0127156,-0.06168547,-0.08082688,0.054994237,0.12596743
1747679588.6925626,0.020683851,1.0127156,-0.06168547,-0.08082688,0.054994237,0.12596743
1747679588.6931255,0.020683851,1.0127156,-0.06168547,-0.08082688,0.054994237,0.12596743
1747679588.6937113,0.020683851,1.0127156,-0.06168547,-0.08082688,0.054994237,0.12596743
1747679588.694287,0.020683851,1.0127156,-0.06168547,-0.08082688,0.054994237,0.12596743
1747679588.694817,0.020683851,1.0127156,-0.06168547,-0.08082688,0.054994237,0.12596743
1747679588.6953382,0.020683851,1.0127156,-0.06168547,-0.08082688,0.054994237,0.12596743
1747679588.695858,0.020683851,1.0127156,-0.06168547,-0.08082688,0.054994237,0.12596743
1747679588.6963768,0.020683851,1.0127156,-0.06168547,-0.08082688,0.054994237,0.12596743
1747679588.6968958,0.020683851,1.0127156,-0.06168547,-0.08082688,0.054994237,0.12596743
1747679588.6974146,0.020683851,1.0127156,-0.06168547,-0.08082688,0.054994237,0.12596743
1747679588.6979444,0.020683851,1.0127156,-0.06168547,-0.08082688,0.054994237,0.12596743
1747679588.6984675,0.07340022,1.0332164,0.023734568,-0.08082688,0.054994237,0.12596743
1747679588.6989906,0.07340022,1.0332164,0.023734568,-0.08082688,0.054994237,0.12596743
1747679588.6995115,0.07340022,1.0332164,0.023734568,-0.08082688,0.054994237,0.12596743
1747679588.700034,0.07340022,1.0332164,0.023734568,-0.1330248,0.09867004,0.12916322
1747679588.7005546,0.07340022,1.0332164,0.023734568,-0.1330248,0.09867004,0.12916322
1747679588.7010732,0.07340022,1.0332164,0.023734568,-0.1330248,0.09867004,0.12916322
1747679588.7015922,0.07340022,1.0332164,0.023734568,-0.1330248,0.09867004,0.12916322
1747679588.7021108,0.07340022,1.0332164,0.023734568,-0.1330248,0.09867004,0.12916322
1747679588.7026293,0.07340022,1.0332164,0.023734568,-0.1330248,0.09867004,0.12916322
1747679588.7031481,0.07340022,1.0332164,0.023734568,-0.1330248,0.09867004,0.12916322
1747679588.703685,0.07340022,1.0332164,0.023734568,-0.1330248,0.09867004,0.12916322
1747679588.7042458,0.07340022,1.0332164,0.023734568,-0.1330248,0.09867004,0.12916322
1747679588.7048273,0.07340022,1.0332164,0.023734568,-0.1330248,0.09867004,0.12916322
1747679588.7053928,0.07340022,1.0332164,0.023734568,-0.1330248,0.09867004,0.12916322
1747679588.7059383,0.07340022,1.0332164,0.023734568,-0.1330248,0.09867004,0.12916322
1747679588.7064755,0.07340022,1.0332164,0.023734568,-0.1330248,0.09867004,0.12916322
1747679588.7070124,0.07340022,1.0332164,0.023734568,-0.1330248,0.09867004,0.12916322
1747679588.7075486,0.07340022,1.0332164,0.023734568,-0.1330248,0.09867004,0.12916322
1747679588.7080855,0.07340022,1.0332164,0.023734568,-0.1330248,0.09867004,0.12916322
1747679588.7086227,0.07340022,1.0332164,0.023734568,-0.1330248,0.09867004,0.12916322
1747679588.709159,0.07340022,1.0332164,0.023734568,-0.1330248,0.09867004,0.12916322
1747679588.7097127,0.07340022,1.0332164,0.023734568,-0.1330248,0.09867004,0.12916322
1747679588.710256,0.07340022,1.0332164,0.023734568,-0.1330248,0.09867004,0.12916322
1747679588.7108004,0.07340022,1.0332164,0.023734568,-0.1330248,0.09867004,0.12916322
1747679588.7113569,0.07340022,1.0332164,0.023734568,-0.1330248,0.09867004,0.12916322
1747679588.7119162,0.110008806,1.0424905,0.052045207,-0.13941638,0.10612689,0.11957584
1747679588.7124684,0.110008806,1.0424905,0.052045207,-0.13941638,0.10612689,0.11957584
1747679588.7129989,0.110008806,1.0424905,0.052045207,-0.13941638,0.10612689,0.11957584
1747679588.7135289,0.110008806,1.0424905,0.052045207,-0.13941638,0.10612689,0.11957584
1747679588.7140627,0.110008806,1.0424905,0.052045207,-0.13941638,0.10612689,0.11957584
1747679588.714585,0.110008806,1.0424905,0.052045207,-0.13941638,0.10612689,0.11957584
1747679588.7151048,0.110008806,1.0424905,0.052045207,-0.13941638,0.10612689,0.11957584
1747679588.7156234,0.110008806,1.0424905,0.052045207,-0.13941638,0.10612689,0.11957584
1747679588.7161422,0.110008806,1.0424905,0.052045207,-0.13941638,0.10612689,0.11957584
1747679588.7166605,0.110008806,1.0424905,0.052045207,-0.13941638,0.10612689,0.11957584
1747679588.7171793,0.110008806,1.0424905,0.052045207,-0.13941638,0.10612689,0.11957584
1747679588.7176983,0.110008806,1.0424905,0.052045207,-0.13941638,0.10612689,0.11957584
1747679588.7182167,0.110008806,1.0424905,0.052045207,-0.13941638,0.10612689,0.11957584
1747679588.7187357,0.110008806,1.0424905,0.052045207,-0.13941638,0.10612689,0.11957584
1747679588.7192724,0.110008806,1.0424905,0.052045207,-0.13941638,0.10612689,0.11957584
1747679588.719868,0.110008806,1.0424905,0.052045207,-0.13941638,0.10612689,0.11957584
1747679588.7204435,0.110008806,1.0424905,0.052045207,-0.13941638,0.10612689,0.11957584
1747679588.7209892,0.110008806,1.0424905,0.052045207,-0.13941638,0.10612689,0.11957584
1747679588.721527,0.110008806,1.0424905,0.052045207,-0.13941638,0.10612689,0.11957584
1747679588.7225366,0.110008806,1.0424905,0.052045207,-0.13941638,0.10612689,0.11957584
1747679588.723094,0.15101042,1.0625032,0.08767757,-0.10319742,0.07629951,0.038615808
1747679588.7236407,0.15101042,1.0625032,0.08767757,-0.10319742,0.07629951,0.038615808
1747679588.7241812,0.15101042,1.0625032,0.08767757,-0.10319742,0.07629951,0.038615808
1747679588.724704,0.15101042,1.0625032,0.08767757,-0.10319742,0.07629951,0.038615808
1747679588.7252228,0.15101042,1.0625032,0.08767757,-0.10319742,0.07629951,0.038615808
1747679588.7257414,0.15101042,1.0625032,0.08767757,-0.10319742,0.07629951,0.038615808
1747679588.7262602,0.15101042,1.0625032,0.08767757,-0.10319742,0.07629951,0.038615808
1747679588.726779,0.15101042,1.0625032,0.08767757,-0.10319742,0.07629951,0.038615808
1747679588.7272975,0.15101042,1.0625032,0.08767757,-0.10319742,0.07629951,0.038615808
1747679588.7278159,0.15101042,1.0625032,0.08767757,-0.10319742,0.07629951,0.038615808
1747679588.728335,0.15101042,1.0625032,0.08767757,-0.10319742,0.07629951,0.038615808
1747679588.728853,0.15101042,1.0625032,0.08767757,-0.10319742,0.07629951,0.038615808
1747679588.7293713,0.15101042,1.0625032,0.08767757,-0.10319742,0.07629951,0.038615808
1747679588.7298899,0.15101042,1.0625032,0.08767757,-0.10319742,0.07629951,0.038615808
1747679588.7304084,0.15101042,1.0625032,0.08767757,-0.10319742,0.07629951,0.038615808
1747679588.7309268,0.15101042,1.0625032,0.08767757,-0.10319742,0.07629951,0.038615808
1747679588.7314453,0.15101042,1.0625032,0.08767757,-0.10319742,0.07629951,0.038615808
1747679588.732007,0.15101042,1.0625032,0.08767757,-0.10319742,0.07629951,0.038615808
1747679588.7325482,0.098782174,1.0859327,0.11403575,-0.024367906,-0.005725792,-0.0519316
1747679588.733071,0.098782174,1.0859327,0.11403575,-0.024367906,-0.005725792,-0.0519316
1747679588.733592,0.098782174,1.0859327,0.11403575,-0.024367906,-0.005725792,-0.0519316
1747679588.734122,0.098782174,1.0859327,0.11403575,-0.024367906,-0.005725792,-0.0519316
1747679588.734675,0.098782174,1.0859327,0.11403575,-0.024367906,-0.005725792,-0.0519316
1747679588.7352226,0.098782174,1.0859327,0.11403575,-0.024367906,-0.005725792,-0.0519316
1747679588.7357817,0.098782174,1.0859327,0.11403575,-0.024367906,-0.005725792,-0.0519316
1747679588.7363317,0.098782174,1.0859327,0.11403575,-0.024367906,-0.005725792,-0.0519316
1747679588.736859,0.098782174,1.0859327,0.11403575,-0.024367906,-0.005725792,-0.0519316
1747679588.7373784,0.098782174,1.0859327,0.11403575,-0.024367906,-0.005725792,-0.0519316
1747679588.7378972,0.098782174,1.0859327,0.11403575,-0.024367906,-0.005725792,-0.0519316
1747679588.738416,0.098782174,1.0859327,0.11403575,-0.024367906,-0.005725792,-0.0519316
1747679588.7389348,0.098782174,1.0859327,0.11403575,-0.024367906,-0.005725792,-0.0519316
1747679588.7394543,0.098782174,1.0859327,0.11403575,-0.024367906,-0.005725792,-0.0519316
1747679588.7399728,0.098782174,1.0859327,0.11403575,-0.024367906,-0.005725792,-0.0519316
1747679588.7404919,0.098782174,1.0859327,0.11403575,-0.024367906,-0.005725792,-0.0519316
1747679588.7410102,0.098782174,1.0859327,0.11403575,-0.024367906,-0.005725792,-0.0519316
1747679588.7415721,0.098782174,1.0859327,0.11403575,-0.024367906,-0.005725792,-0.0519316
1747679588.7421203,0.098782174,1.0859327,0.11403575,-0.024367906,-0.005725792,-0.0519316
1747679588.7426586,0.030934256,1.1020405,0.132096,0.054461602,-0.07709846,-0.075367406
1747679588.743188,0.030934256,1.1020405,0.132096,0.054461602,-0.07709846,-0.075367406
1747679588.7437074,0.030934256,1.1020405,0.132096,0.054461602,-0.07709846,-0.075367406
1747679588.744236,0.030934256,1.1020405,0.132096,0.054461602,-0.07709846,-0.075367406
1747679588.7447693,0.030934256,1.1020405,0.132096,0.054461602,-0.07709846,-0.075367406
1747679588.7452915,0.030934256,1.1020405,0.132096,0.054461602,-0.07709846,-0.075367406
1747679588.7458124,0.030934256,1.1020405,0.132096,0.054461602,-0.07709846,-0.075367406
1747679588.7463357,0.030934256,1.1020405,0.132096,0.054461602,-0.07709846,-0.075367406
1747679588.7468603,0.030934256,1.1020405,0.132096,0.14394376,-0.13036163,-0.075367406
1747679588.747385,0.030934256,1.1020405,0.132096,0.14394376,-0.13036163,-0.075367406
1747679588.7479076,0.030934256,1.1020405,0.132096,0.14394376,-0.13036163,-0.075367406
1747679588.7484386,-0.018853422,1.1191245,0.14137016,0.14394376,-0.13036163,-0.075367406
1747679588.7489765,-0.018853422,1.1191245,0.14137016,0.14394376,-0.13036163,-0.075367406
1747679588.7495034,-0.018853422,1.1191245,0.14137016,0.14394376,-0.13036163,-0.075367406
1747679588.7500558,-0.018853422,1.1191245,0.14137016,0.14394376,-0.13036163,-0.075367406
1747679588.7506588,-0.018853422,1.1191245,0.14137016,0.14394376,-0.13036163,-0.075367406
1747679588.7512293,-0.018853422,1.1191245,0.14137016,0.14394376,-0.13036163,-0.075367406
1747679588.751797,-0.018853422,1.1191245,0.14137016,0.14394376,-0.13036163,-0.075367406
1747679588.7523685,-0.018853422,1.1191245,0.14137016,0.14394376,-0.13036163,-0.075367406
1747679588.7529273,-0.018853422,1.1191245,0.14137016,0.14394376,-0.13036163,-0.075367406
1747679588.7534778,-0.018853422,1.1191245,0.14137016,0.14394376,-0.13036163,-0.075367406
1747679588.754035,-0.018853422,1.1191245,0.14137016,0.14394376,-0.13036163,-0.075367406
1747679588.7546012,-0.018853422,1.1191245,0.14137016,0.14394376,-0.13036163,-0.075367406
1747679588.7551377,-0.018853422,1.1191245,0.14137016,0.14394376,-0.13036163,-0.075367406
1747679588.7556603,-0.018853422,1.1191245,0.14137016,0.14394376,-0.13036163,-0.075367406
1747679588.7561822,-0.018853422,1.1191245,0.14137016,0.14394376,-0.13036163,-0.075367406
1747679588.7567039,-0.018853422,1.1191245,0.14137016,0.14394376,-0.13036163,-0.075367406
1747679588.7572253,-0.018853422,1.1191245,0.14137016,0.14394376,-0.13036163,-0.075367406
1747679588.7577462,-0.018853422,1.1191245,0.14137016,0.14394376,-0.13036163,-0.075367406
1747679588.7582679,-0.018853422,1.1191245,0.14137016,0.14394376,-0.13036163,-0.075367406
1747679588.7588031,-0.018853422,1.1191245,0.14137016,0.14394376,-0.13036163,-0.075367406
1747679588.7593515,-0.053021435,1.1215651,0.13356033,0.22916484,-0.15912376,-0.052996866
1747679588.759876,-0.053021435,1.1215651,0.13356033,0.22916484,-0.15912376,-0.052996866
1747679588.7603984,-0.053021435,1.1215651,0.13356033,0.22916484,-0.15912376,-0.052996866
1747679588.7609203,-0.053021435,1.1215651,0.13356033,0.22916484,-0.15912376,-0.052996866
1747679588.761445,-0.053021435,1.1215651,0.13356033,0.22916484,-0.15912376,-0.052996866
1747679588.7619858,-0.053021435,1.1215651,0.13356033,0.22916484,-0.15912376,-0.052996866
1747679588.7625353,-0.053021435,1.1215651,0.13356033,0.22916484,-0.15912376,-0.052996866
1747679588.7630696,-0.053021435,1.1215651,0.13356033,0.22916484,-0.15912376,-0.052996866
1747679588.7636104,-0.053021435,1.1215651,0.13356033,0.22916484,-0.15912376,-0.052996866
1747679588.7641623,-0.053021435,1.1215651,0.13356033,0.22916484,-0.15912376,-0.052996866
1747679588.7646856,-0.053021435,1.1215651,0.13356033,0.22916484,-0.15912376,-0.052996866
1747679588.7652283,-0.053021435,1.1215651,0.13356033,0.22916484,-0.15912376,-0.052996866
1747679588.7657995,-0.053021435,1.1215651,0.13356033,0.22916484,-0.15912376,-0.052996866
1747679588.7663603,-0.053021435,1.1215651,0.13356033,0.22916484,-0.15912376,-0.052996866
1747679588.7669182,-0.053021435,1.1215651,0.13356033,0.22916484,-0.15912376,-0.052996866
1747679588.7674687,-0.053021435,1.1215651,0.13356033,0.22916484,-0.15912376,-0.052996866
1747679588.767999,-0.061319385,1.129863,0.11061895,0.29627645,-0.1548627,-0.034887385
1747679588.7685397,-0.061319385,1.129863,0.11061895,0.29627645,-0.1548627,-0.034887385
1747679588.7690983,-0.061319385,1.129863,0.11061895,0.29627645,-0.1548627,-0.034887385
1747679588.769621,-0.061319385,1.129863,0.11061895,0.29627645,-0.1548627,-0.034887385
1747679588.7701404,-0.061319385,1.129863,0.11061895,0.29627645,-0.1548627,-0.034887385
1747679588.77066,-0.061319385,1.129863,0.11061895,0.29627645,-0.1548627,-0.034887385
1747679588.771179,-0.061319385,1.129863,0.11061895,0.29627645,-0.1548627,-0.034887385
1747679588.771698,-0.061319385,1.129863,0.11061895,0.29627645,-0.1548627,-0.034887385
1747679588.7722168,-0.061319385,1.129863,0.11061895,0.29627645,-0.1548627,-0.034887385
1747679588.7727356,-0.061319385,1.129863,0.11061895,0.29627645,-0.1548627,-0.034887385
1747679588.7732544,-0.061319385,1.129863,0.11061895,0.29627645,-0.1548627,-0.034887385
1747679588.773786,-0.061319385,1.129863,0.11061895,0.29627645,-0.1548627,-0.034887385
1747679588.7743235,-0.061319385,1.129863,0.11061895,0.29627645,-0.1548627,-0.034887385
1747679588.7748454,-0.061319385,1.129863,0.11061895,0.29627645,-0.1548627,-0.034887385
1747679588.7753646,-0.061319385,1.129863,0.11061895,0.29627645,-0.1548627,-0.034887385
1747679588.7758832,-0.061319385,1.129863,0.11061895,0.29627645,-0.1548627,-0.034887385
1747679588.7764025,-0.061319385,1.129863,0.11061895,0.29627645,-0.1548627,-0.034887385
1747679588.7769241,-0.061319385,1.129863,0.11061895,0.29627645,-0.1548627,-0.034887385
1747679588.7774446,-0.061319385,1.129863,0.11061895,0.29627645,-0.1548627,-0.034887385
1747679588.7779665,-0.061319385,1.129863,0.11061895,0.34847438,-0.123970054,-0.023169484
1747679588.7785203,-0.061319385,1.129863,0.11061895,0.34847438,-0.123970054,-0.023169484
1747679588.7790556,-0.061319385,1.129863,0.11061895,0.34847438,-0.123970054,-0.023169484
1747679588.77958,-0.08670134,1.1308392,0.09988043,0.34847438,-0.123970054,-0.023169484
1747679588.7800999,-0.08670134,1.1308392,0.09988043,0.34847438,-0.123970054,-0.023169484
1747679588.7806566,-0.08670134,1.1308392,0.09988043,0.34847438,-0.123970054,-0.023169484
1747679588.7812204,-0.08670134,1.1308392,0.09988043,0.34847438,-0.123970054,-0.023169484
1747679588.7817688,-0.08670134,1.1308392,0.09988043,0.34847438,-0.123970054,-0.023169484
1747679588.7823086,-0.08670134,1.1308392,0.09988043,0.34847438,-0.123970054,-0.023169484
1747679588.7828665,-0.08670134,1.1308392,0.09988043,0.34847438,-0.123970054,-0.023169484
1747679588.7834213,-0.08670134,1.1308392,0.09988043,0.34847438,-0.123970054,-0.023169484
1747679588.7839732,-0.08670134,1.1308392,0.09988043,0.34847438,-0.123970054,-0.023169484
1747679588.7845163,-0.08670134,1.1308392,0.09988043,0.34847438,-0.123970054,-0.023169484
1747679588.7850392,-0.08670134,1.1308392,0.09988043,0.34847438,-0.123970054,-0.023169484
1747679588.785558,-0.08670134,1.1308392,0.09988043,0.34847438,-0.123970054,-0.023169484
1747679588.7860775,-0.08670134,1.1308392,0.09988043,0.34847438,-0.123970054,-0.023169484
1747679588.7865963,-0.08670134,1.1308392,0.09988043,0.34847438,-0.123970054,-0.023169484
1747679588.78712,-0.08670134,1.1308392,0.09988043,0.34847438,-0.123970054,-0.023169484
1747679588.787641,-0.08670134,1.1308392,0.09988043,0.34847438,-0.123970054,-0.023169484
1747679588.7881641,-0.11061895,1.1176602,0.08230831,0.40173754,-0.10159952,0.01304948
1747679588.7886846,-0.11061895,1.1176602,0.08230831,0.40173754,-0.10159952,0.01304948
1747679588.7892036,-0.11061895,1.1176602,0.08230831,0.40173754,-0.10159952,0.01304948
1747679588.7897224,-0.11061895,1.1176602,0.08230831,0.40173754,-0.10159952,0.01304948
1747679588.7902412,-0.11061895,1.1176602,0.08230831,0.40173754,-0.10159952,0.01304948
1747679588.7907596,-0.11061895,1.1176602,0.08230831,0.40173754,-0.10159952,0.01304948
1747679588.7912786,-0.11061895,1.1176602,0.08230831,0.40173754,-0.10159952,0.01304948
1747679588.7917972,-0.11061895,1.1176602,0.08230831,0.40173754,-0.10159952,0.01304948
1747679588.7923157,-0.11061895,1.1176602,0.08230831,0.40173754,-0.10159952,0.01304948
1747679588.7928345,-0.11061895,1.1176602,0.08230831,0.40173754,-0.10159952,0.01304948
1747679588.7933536,-0.11061895,1.1176602,0.08230831,0.40173754,-0.10159952,0.01304948
1747679588.7938929,-0.11061895,1.1176602,0.08230831,0.40173754,-0.10159952,0.01304948
1747679588.7944424,-0.11061895,1.1176602,0.08230831,0.40173754,-0.10159952,0.01304948
1747679588.7949843,-0.11061895,1.1176602,0.08230831,0.40173754,-0.10159952,0.01304948
1747679588.7955062,-0.11061895,1.1176602,0.08230831,0.40173754,-0.10159952,0.01304948
1747679588.7960553,-0.11061895,1.1176602,0.08230831,0.40173754,-0.10159952,0.01304948
1747679588.7966008,-0.11061895,1.1176602,0.08230831,0.40173754,-0.10159952,0.01304948
1747679588.7971418,-0.12477427,1.0922782,0.055950124,0.40173754,-0.10159952,0.01304948
1747679588.7977612,-0.12477427,1.0922782,0.055950124,0.40173754,-0.10159952,0.01304948
1747679588.798311,-0.12477427,1.0922782,0.055950124,0.40173754,-0.10159952,0.01304948
1747679588.7988462,-0.12477427,1.0922782,0.055950124,0.43476072,-0.07496793,0.05779055
1747679588.799368,-0.12477427,1.0922782,0.055950124,0.43476072,-0.07496793,0.05779055
1747679588.7998872,-0.12477427,1.0922782,0.055950124,0.43476072,-0.07496793,0.05779055
1747679588.800406,-0.12477427,1.0922782,0.055950124,0.43476072,-0.07496793,0.05779055
1747679588.8009248,-0.12477427,1.0922782,0.055950124,0.43476072,-0.07496793,0.05779055
1747679588.8014433,-0.12477427,1.0922782,0.055950124,0.43476072,-0.07496793,0.05779055
1747679588.8019626,-0.12477427,1.0922782,0.055950124,0.43476072,-0.07496793,0.05779055
1747679588.802482,-0.12477427,1.0922782,0.055950124,0.43476072,-0.07496793,0.05779055
1747679588.803001,-0.12477427,1.0922782,0.055950124,0.43476072,-0.07496793,0.05779055
1747679588.8035388,-0.12477427,1.0922782,0.055950124,0.43476072,-0.07496793,0.05779055
1747679588.8040814,-0.12477427,1.0922782,0.055950124,0.43476072,-0.07496793,0.05779055
1747679588.8046029,-0.12477427,1.0922782,0.055950124,0.43476072,-0.07496793,0.05779055
1747679588.805122,-0.12477427,1.0922782,0.055950124,0.43476072,-0.07496793,0.05779055
1747679588.80564,-0.12477427,1.0922782,0.055950124,0.43476072,-0.07496793,0.05779055
1747679588.8061588,-0.12477427,1.0922782,0.055950124,0.43476072,-0.07496793,0.05779055
1747679588.8066776,-0.12477427,1.0922782,0.055950124,0.43476072,-0.07496793,0.05779055
1747679588.807196,-0.12477427,1.0922782,0.055950124,0.43476072,-0.07496793,0.05779055
1747679588.8077142,-0.12477427,1.0922782,0.055950124,0.43476072,-0.07496793,0.05779055
1747679588.808233,-0.12477427,1.0922782,0.055950124,0.43476072,-0.07496793,0.05779055
1747679588.8087523,-0.12477427,1.0922782,0.055950124,0.43476072,-0.07496793,0.05779055
1747679588.809311,-0.13502468,1.053229,0.011531705,0.4613923,-0.07603319,0.14088112
1747679588.8098476,-0.13502468,1.053229,0.011531705,0.4613923,-0.07603319,0.14088112
1747679588.8103714,-0.13502468,1.053229,0.011531705,0.4613923,-0.07603319,0.14088112
1747679588.8109288,-0.13502468,1.053229,0.011531705,0.4613923,-0.07603319,0.14088112
1747679588.8114948,-0.13502468,1.053229,0.011531705,0.4613923,-0.07603319,0.14088112
1747679588.8120403,-0.13502468,1.053229,0.011531705,0.4613923,-0.07603319,0.14088112
1747679588.8125741,-0.13502468,1.053229,0.011531705,0.4613923,-0.07603319,0.14088112
1747679588.8131282,-0.13502468,1.053229,0.011531705,0.4613923,-0.07603319,0.14088112
1747679588.8137014,-0.13502468,1.053229,0.011531705,0.4613923,-0.07603319,0.14088112
1747679588.814244,-0.13502468,1.053229,0.011531705,0.4613923,-0.07603319,0.14088112
1747679588.814766,-0.13502468,1.053229,0.011531705,0.4613923,-0.07603319,0.14088112
1747679588.8152852,-0.13502468,1.053229,0.011531705,0.4613923,-0.07603319,0.14088112
1747679588.8158045,-0.13502468,1.053229,0.011531705,0.4613923,-0.07603319,0.14088112
1747679588.8163247,-0.13502468,1.053229,0.011531705,0.4613923,-0.07603319,0.14088112
1747679588.8168461,-0.13502468,1.053229,0.011531705,0.4613923,-0.07603319,0.14088112
1747679588.817369,-0.13502468,1.053229,0.011531705,0.4613923,-0.07603319,0.14088112
1747679588.8178887,-0.13502468,1.053229,0.011531705,0.4613923,-0.07603319,0.14088112
1747679588.818407,-0.13502468,1.053229,0.011531705,0.4613923,-0.07603319,0.14088112
1747679588.818926,-0.13502468,1.053229,0.011531705,0.4613923,-0.07603319,0.14088112
1747679588.819445,-0.13502468,1.053229,0.011531705,0.4613923,-0.07603319,0.14088112
1747679588.8199637,-0.13502468,1.053229,0.011531705,0.4613923,-0.07603319,0.14088112
1747679588.8204823,-0.13502468,1.053229,0.011531705,0.4613923,-0.07603319,0.14088112
1747679588.8210008,-0.13502468,1.053229,0.011531705,0.4613923,-0.07603319,0.14088112
1747679588.8215191,-0.13502468,1.053229,0.011531705,0.4613923,-0.07603319,0.14088112
1747679588.8220441,-0.13502468,1.053229,0.011531705,0.4613923,-0.07603319,0.14088112
1747679588.8225684,-0.13502468,1.053229,0.011531705,0.46884915,-0.09520794,0.19947061
1747679588.8230937,-0.12916729,1.0156442,-0.011409677,0.46884915,-0.09520794,0.19947061
1747679588.8236141,-0.12916729,1.0156442,-0.011409677,0.46884915,-0.09520794,0.19947061
1747679588.8241541,-0.12916729,1.0156442,-0.011409677,0.46884915,-0.09520794,0.19947061
1747679588.824697,-0.12916729,1.0156442,-0.011409677,0.46884915,-0.09520794,0.19947061
1747679588.8252192,-0.12916729,1.0156442,-0.011409677,0.46884915,-0.09520794,0.19947061
1747679588.825738,-0.12916729,1.0156442,-0.011409677,0.46884915,-0.09520794,0.19947061
1747679588.826275,-0.12916729,1.0156442,-0.011409677,0.46884915,-0.09520794,0.19947061
1747679588.8268106,-0.12916729,1.0156442,-0.011409677,0.46884915,-0.09520794,0.19947061
1747679588.8273318,-0.12916729,1.0156442,-0.011409677,0.46884915,-0.09520794,0.19947061
1747679588.8278513,-0.12916729,1.0156442,-0.011409677,0.46884915,-0.09520794,0.19947061
1747679588.82837,-0.12916729,1.0156442,-0.011409677,0.46884915,-0.09520794,0.19947061
1747679588.828915,-0.12916729,1.0156442,-0.011409677,0.46884915,-0.09520794,0.19947061
1747679588.8294687,-0.12916729,1.0156442,-0.011409677,0.46884915,-0.09520794,0.19947061
1747679588.8300347,-0.12916729,1.0156442,-0.011409677,0.46884915,-0.09520794,0.19947061
1747679588.8305664,-0.12916729,1.0156442,-0.011409677,0.46884915,-0.09520794,0.19947061
1747679588.8310874,-0.12916729,1.0156442,-0.011409677,0.46884915,-0.09520794,0.19947061
1747679588.8316095,-0.09792797,0.9634159,-0.04753015,0.46352285,-0.12503532,0.26551697
1747679588.8321302,-0.09792797,0.9634159,-0.04753015,0.46352285,-0.12503532,0.26551697
1747679588.8327062,-0.09792797,0.9634159,-0.04753015,0.46352285,-0.12503532,0.26551697
1747679588.8332257,-0.09792797,0.9634159,-0.04753015,0.46352285,-0.12503532,0.26551697
1747679588.8337443,-0.09792797,0.9634159,-0.04753015,0.46352285,-0.12503532,0.26551697
1747679588.8342755,-0.09792797,0.9634159,-0.04753015,0.46352285,-0.12503532,0.26551697
1747679588.83481,-0.09792797,0.9634159,-0.04753015,0.46352285,-0.12503532,0.26551697
1747679588.8353324,-0.09792797,0.9634159,-0.04753015,0.46352285,-0.12503532,0.26551697
1747679588.835851,-0.09792797,0.9634159,-0.04753015,0.46352285,-0.12503532,0.26551697
1747679588.8363705,-0.09792797,0.9634159,-0.04753015,0.46352285,-0.12503532,0.26551697
1747679588.8368895,-0.09792797,0.9634159,-0.04753015,0.46352285,-0.12503532,0.26551697
1747679588.8374472,-0.09792797,0.9634159,-0.04753015,0.46352285,-0.12503532,0.26551697
1747679588.838002,-0.09792797,0.9634159,-0.04753015,0.46352285,-0.12503532,0.26551697
1747679588.8385365,-0.09792797,0.9634159,-0.04753015,0.46352285,-0.12503532,0.26551697
1747679588.8390572,-0.09792797,0.9634159,-0.04753015,0.46352285,-0.12503532,0.26551697
1747679588.8395762,-0.09792797,0.9634159,-0.04753015,0.46352285,-0.12503532,0.26551697
1747679588.8401008,-0.09792797,0.9634159,-0.04753015,0.46352285,-0.12503532,0.26551697
1747679588.8406198,-0.09792797,0.9634159,-0.04753015,0.46352285,-0.12503532,0.26551697
1747679588.8411388,-0.047164064,0.8848296,-0.07925759,0.4326302,-0.17190692,0.31558436
1747679588.8417585,-0.047164064,0.8848296,-0.07925759,0.4326302,-0.17190692,0.31558436
1747679588.8423,-0.047164064,0.8848296,-0.07925759,0.4326302,-0.17190692,0.31558436
1747679588.8428235,-0.047164064,0.8848296,-0.07925759,0.4326302,-0.17190692,0.31558436
1747679588.8433845,-0.047164064,0.8848296,-0.07925759,0.4326302,-0.17190692,0.31558436
1747679588.8439364,-0.047164064,0.8848296,-0.07925759,0.4326302,-0.17190692,0.31558436
1747679588.8444626,-0.047164064,0.8848296,-0.07925759,0.4326302,-0.17190692,0.31558436
1747679588.8449843,-0.047164064,0.8848296,-0.07925759,0.4326302,-0.17190692,0.31558436
1747679588.8455374,-0.047164064,0.8848296,-0.07925759,0.4326302,-0.17190692,0.31558436
1747679588.8460813,-0.047164064,0.8848296,-0.07925759,0.4326302,-0.17190692,0.31558436
1747679588.8466167,-0.047164064,0.8848296,-0.07925759,0.4326302,-0.17190692,0.31558436
1747679588.847139,-0.047164064,0.8848296,-0.07925759,0.4326302,-0.17190692,0.31558436
1747679588.84766,-0.047164064,0.8848296,-0.07925759,0.4326302,-0.17190692,0.31558436
1747679588.848182,-0.047164064,0.8848296,-0.07925759,0.4326302,-0.17190692,0.31558436
1747679588.8487034,-0.047164064,0.8848296,-0.07925759,0.4326302,-0.17190692,0.31558436
1747679588.8492248,-0.047164064,0.8848296,-0.07925759,0.4326302,-0.17190692,0.31558436
1747679588.8497458,-0.047164064,0.8848296,-0.07925759,0.4326302,-0.17190692,0.31558436
1747679588.8502667,-0.047164064,0.8848296,-0.07925759,0.4326302,-0.17190692,0.31558436
1747679588.8507874,-0.047164064,0.8848296,-0.07925759,0.4326302,-0.17190692,0.31558436
1747679588.8513083,-0.047164064,0.8848296,-0.07925759,0.4326302,-0.17190692,0.31558436
1747679588.8518293,-0.047164064,0.8848296,-0.07925759,0.4326302,-0.17190692,0.31558436
1747679588.8523502,-0.047164064,0.8848296,-0.07925759,0.4326302,-0.17190692,0.31558436
1747679588.8528712,-0.047164064,0.8848296,-0.07925759,0.4326302,-0.17190692,0.31558436
1747679588.8533924,-0.0032337585,0.8086837,-0.10366331,0.4006723,-0.2134522,0.34221596
1747679588.853921,-0.0032337585,0.8086837,-0.10366331,0.4006723,-0.2134522,0.34221596
1747679588.8544629,-0.0032337585,0.8086837,-0.10366331,0.4006723,-0.2134522,0.34221596
1747679588.85499,-0.0032337585,0.8086837,-0.10366331,0.4006723,-0.2134522,0.34221596
1747679588.8555117,-0.0032337585,0.8086837,-0.10366331,0.4006723,-0.2134522,0.34221596
1747679588.8560328,-0.0032337585,0.8086837,-0.10366331,0.4006723,-0.2134522,0.34221596
1747679588.8565545,-0.0032337585,0.8086837,-0.10366331,0.4006723,-0.2134522,0.34221596
1747679588.85711,-0.0032337585,0.8086837,-0.10366331,0.4006723,-0.2134522,0.34221596
1747679588.8576674,-0.0032337585,0.8086837,-0.10366331,0.4006723,-0.2134522,0.34221596
1747679588.8581994,-0.0032337585,0.8086837,-0.10366331,0.4006723,-0.2134522,0.34221596
1747679588.8587265,-0.0032337585,0.8086837,-0.10366331,0.4006723,-0.2134522,0.34221596
1747679588.8592575,0.03435106,0.7242399,-0.12953338,0.4006723,-0.2134522,0.34221596
1747679588.8598082,0.03435106,0.7242399,-0.12953338,0.35699648,-0.2486059,0.36565176
1747679588.8603778,0.03435106,0.7242399,-0.12953338,0.35699648,-0.2486059,0.36565176
1747679588.8609407,0.03435106,0.7242399,-0.12953338,0.35699648,-0.2486059,0.36565176
1747679588.8614938,0.03435106,0.7242399,-0.12953338,0.35699648,-0.2486059,0.36565176
1747679588.862009,0.03435106,0.7242399,-0.12953338,0.35699648,-0.2486059,0.36565176
1747679588.8625376,0.03435106,0.7242399,-0.12953338,0.35699648,-0.2486059,0.36565176
1747679588.86306,0.03435106,0.7242399,-0.12953338,0.35699648,-0.2486059,0.36565176
1747679588.8635788,0.03435106,0.7242399,-0.12953338,0.35699648,-0.2486059,0.36565176
1747679588.8641038,0.03435106,0.7242399,-0.12953338,0.35699648,-0.2486059,0.36565176
1747679588.8646295,0.03435106,0.7242399,-0.12953338,0.35699648,-0.2486059,0.36565176
1747679588.8651497,0.03435106,0.7242399,-0.12953338,0.35699648,-0.2486059,0.36565176
1747679588.865668,0.03435106,0.7242399,-0.12953338,0.35699648,-0.2486059,0.36565176
1747679588.8661861,0.03435106,0.7242399,-0.12953338,0.35699648,-0.2486059,0.36565176
1747679588.8667047,0.03435106,0.7242399,-0.12953338,0.35699648,-0.2486059,0.36565176
1747679588.867223,0.03435106,0.7242399,-0.12953338,0.35699648,-0.2486059,0.36565176
1747679588.867741,0.03435106,0.7242399,-0.12953338,0.35699648,-0.2486059,0.36565176
1747679588.8682594,0.03435106,0.7242399,-0.12953338,0.35699648,-0.2486059,0.36565176
1747679588.8687773,0.03435106,0.7242399,-0.12953338,0.35699648,-0.2486059,0.36565176
1747679588.8692954,0.03435106,0.7242399,-0.12953338,0.35699648,-0.2486059,0.36565176
1747679588.8698134,0.03435106,0.7242399,-0.12953338,0.35699648,-0.2486059,0.36565176
1747679588.870332,0.0626617,0.63345057,-0.15247476,0.2973417,-0.28908592,0.38695702
1747679588.870861,0.0626617,0.63345057,-0.15247476,0.2973417,-0.28908592,0.38695702
1747679588.8713927,0.0626617,0.63345057,-0.15247476,0.2973417,-0.28908592,0.38695702
1747679588.871964,0.0626617,0.63345057,-0.15247476,0.2973417,-0.28908592,0.38695702
1747679588.872521,0.0626617,0.63345057,-0.15247476,0.2973417,-0.28908592,0.38695702
1747679588.8730686,0.0626617,0.63345057,-0.15247476,0.2973417,-0.28908592,0.38695702
1747679588.8736093,0.0626617,0.63345057,-0.15247476,0.2973417,-0.28908592,0.38695702
1747679588.8741543,0.0626617,0.63345057,-0.15247476,0.2973417,-0.28908592,0.38695702
1747679588.8747003,0.0626617,0.63345057,-0.15247476,0.2973417,-0.28908592,0.38695702
1747679588.875226,0.0626617,0.63345057,-0.15247476,0.2973417,-0.28908592,0.38695702
1747679588.8757482,0.0626617,0.63345057,-0.15247476,0.2973417,-0.28908592,0.38695702
1747679588.8762999,0.0626617,0.63345057,-0.15247476,0.2973417,-0.28908592,0.38695702
1747679588.8768435,0.0626617,0.63345057,-0.15247476,0.2973417,-0.28908592,0.38695702
1747679588.8773766,0.0626617,0.63345057,-0.15247476,0.2973417,-0.28908592,0.38695702
1747679588.8778965,0.070471525,0.53289896,-0.16077271,0.22809958,-0.32956594,0.4050665
1747679588.8784156,0.070471525,0.53289896,-0.16077271,0.22809958,-0.32956594,0.4050665
1747679588.878934,0.070471525,0.53289896,-0.16077271,0.22809958,-0.32956594,0.4050665
1747679588.8794525,0.070471525,0.53289896,-0.16077271,0.22809958,-0.32956594,0.4050665
1747679588.8799715,0.070471525,0.53289896,-0.16077271,0.22809958,-0.32956594,0.4050665
1747679588.8804903,0.070471525,0.53289896,-0.16077271,0.22809958,-0.32956594,0.4050665
1747679588.8810084,0.070471525,0.53289896,-0.16077271,0.22809958,-0.32956594,0.4050665
1747679588.8815267,0.070471525,0.53289896,-0.16077271,0.22809958,-0.32956594,0.4050665
1747679588.882045,0.070471525,0.53289896,-0.16077271,0.22809958,-0.32956594,0.4050665
1747679588.8825636,0.070471525,0.53289896,-0.16077271,0.22809958,-0.32956594,0.4050665
1747679588.8830817,0.070471525,0.53289896,-0.16077271,0.22809958,-0.32956594,0.4050665
1747679588.8836105,0.070471525,0.53289896,-0.16077271,0.22809958,-0.32956594,0.4050665
1747679588.8841503,0.070471525,0.53289896,-0.16077271,0.22809958,-0.32956594,0.4050665
1747679588.8846757,0.070471525,0.53289896,-0.16077271,0.22809958,-0.32956594,0.4050665
1747679588.8851945,0.070471525,0.53289896,-0.16077271,0.22809958,-0.32956594,0.4050665
1747679588.8857129,0.070471525,0.53289896,-0.16077271,0.22809958,-0.32956594,0.4050665
1747679588.8862312,0.070471525,0.53289896,-0.16077271,0.22809958,-0.32956594,0.4050665
1747679588.8867497,0.070471525,0.53289896,-0.16077271,0.22809958,-0.32956594,0.4050665
1747679588.8872988,0.070471525,0.53289896,-0.16077271,0.22809958,-0.32956594,0.4050665
1747679588.8878338,0.070471525,0.53289896,-0.16077271,0.22809958,-0.32956594,0.4050665
1747679588.88836,0.070471525,0.53289896,-0.16077271,0.22809958,-0.32956594,0.4050665
1747679588.8888824,0.070471525,0.53289896,-0.16077271,0.22809958,-0.32956594,0.4050665
1747679588.8894033,0.070471525,0.53289896,-0.16077271,0.22809958,-0.32956594,0.4050665
1747679588.889924,0.070471525,0.53289896,-0.16077271,0.22809958,-0.32956594,0.4050665
1747679588.8904452,0.070471525,0.53289896,-0.16077271,0.16418377,-0.35513225,0.4370244
1747679588.890964,0.070471525,0.53289896,-0.16077271,0.16418377,-0.35513225,0.4370244
1747679588.8914857,0.062173583,0.42795438,-0.13978378,0.16418377,-0.35513225,0.4370244
1747679588.8920376,0.062173583,0.42795438,-0.13978378,0.16418377,-0.35513225,0.4370244
1747679588.892584,0.062173583,0.42795438,-0.13978378,0.16418377,-0.35513225,0.4370244
1747679588.8931174,0.062173583,0.42795438,-0.13978378,0.16418377,-0.35513225,0.4370244
1747679588.893653,0.062173583,0.42795438,-0.13978378,0.16418377,-0.35513225,0.4370244
1747679588.8942053,0.062173583,0.42795438,-0.13978378,0.16418377,-0.35513225,0.4370244
1747679588.8947303,0.062173583,0.42795438,-0.13978378,0.16418377,-0.35513225,0.4370244
1747679588.8952494,0.062173583,0.42795438,-0.13978378,0.16418377,-0.35513225,0.4370244
1747679588.8957682,0.062173583,0.42795438,-0.13978378,0.16418377,-0.35513225,0.4370244
1747679588.8962865,0.062173583,0.42795438,-0.13978378,0.16418377,-0.35513225,0.4370244
1747679588.8968048,0.062173583,0.42795438,-0.13978378,0.16418377,-0.35513225,0.4370244
1747679588.8973227,0.062173583,0.42795438,-0.13978378,0.16418377,-0.35513225,0.4370244
1747679588.897841,0.062173583,0.42795438,-0.13978378,0.16418377,-0.35513225,0.4370244
1747679588.8983593,0.046065807,0.32252166,-0.10073463,0.16418377,-0.35513225,0.4370244
1747679588.8988779,0.046065807,0.32252166,-0.10073463,0.16418377,-0.35513225,0.4370244
1747679588.8993967,0.046065807,0.32252166,-0.10073463,0.12583427,-0.35619754,0.504136
1747679588.8999174,0.046065807,0.32252166,-0.10073463,0.12583427,-0.35619754,0.504136
1747679588.900438,0.046065807,0.32252166,-0.10073463,0.12583427,-0.35619754,0.504136
1747679588.9009564,0.046065807,0.32252166,-0.10073463,0.12583427,-0.35619754,0.504136
1747679588.9014742,0.046065807,0.32252166,-0.10073463,0.12583427,-0.35619754,0.504136
1747679588.9019928,0.046065807,0.32252166,-0.10073463,0.12583427,-0.35619754,0.504136
1747679588.9025578,0.046065807,0.32252166,-0.10073463,0.12583427,-0.35619754,0.504136
1747679588.9031112,0.046065807,0.32252166,-0.10073463,0.12583427,-0.35619754,0.504136
1747679588.9036393,0.046065807,0.32252166,-0.10073463,0.12583427,-0.35619754,0.504136
1747679588.904188,0.046065807,0.32252166,-0.10073463,0.12583427,-0.35619754,0.504136
1747679588.9047415,0.046065807,0.32252166,-0.10073463,0.12583427,-0.35619754,0.504136
1747679588.9052744,0.046065807,0.32252166,-0.10073463,0.12583427,-0.35619754,0.504136
1747679588.9057944,0.046065807,0.32252166,-0.10073463,0.12583427,-0.35619754,0.504136
1747679588.906313,0.046065807,0.32252166,-0.10073463,0.12583427,-0.35619754,0.504136
1747679588.9068315,0.046065807,0.32252166,-0.10073463,0.12583427,-0.35619754,0.504136
1747679588.9073532,0.046065807,0.32252166,-0.10073463,0.12583427,-0.35619754,0.504136
1747679588.9079003,0.046065807,0.32252166,-0.10073463,0.12583427,-0.35619754,0.504136
1747679588.9084592,0.030446142,0.19707623,-0.053387526,0.13435638,-0.33595753,0.61811924
1747679588.9089913,0.030446142,0.19707623,-0.053387526,0.13435638,-0.33595753,0.61811924
1747679588.909511,0.030446142,0.19707623,-0.053387526,0.13435638,-0.33595753,0.61811924
1747679588.9100301,0.030446142,0.19707623,-0.053387526,0.13435638,-0.33595753,0.61811924
1747679588.9105484,0.030446142,0.19707623,-0.053387526,0.13435638,-0.33595753,0.61811924
1747679588.9110668,0.030446142,0.19707623,-0.053387526,0.13435638,-0.33595753,0.61811924
1747679588.9115853,0.030446142,0.19707623,-0.053387526,0.13435638,-0.33595753,0.61811924
1747679588.9121034,0.030446142,0.19707623,-0.053387526,0.13435638,-0.33595753,0.61811924
1747679588.9126217,0.030446142,0.19707623,-0.053387526,0.13435638,-0.33595753,0.61811924
1747679588.9131618,0.030446142,0.19707623,-0.053387526,0.13435638,-0.33595753,0.61811924
1747679588.9136899,0.030446142,0.19707623,-0.053387526,0.13435638,-0.33595753,0.61811924
1747679588.91423,0.030446142,0.19707623,-0.053387526,0.13435638,-0.33595753,0.61811924
1747679588.9147558,0.030446142,0.19707623,-0.053387526,0.13435638,-0.33595753,0.61811924
1747679588.9152744,0.030446142,0.19707623,-0.053387526,0.13435638,-0.33595753,0.61811924
1747679588.915793,0.030446142,0.19707623,-0.053387526,0.13435638,-0.33595753,0.61811924
1747679588.9163113,0.030446142,0.19707623,-0.053387526,0.13435638,-0.33595753,0.61811924
1747679588.9168296,0.030446142,0.19707623,-0.053387526,0.13435638,-0.33595753,0.61811924
1747679588.917348,0.030446142,0.19707623,-0.053387526,0.13435638,-0.33595753,0.61811924
1747679588.9178798,0.030446142,0.19707623,-0.053387526,0.13435638,-0.33595753,0.61811924
1747679588.9184065,0.030446142,0.19707623,-0.053387526,0.13435638,-0.33595753,0.61811924
1747679588.9189262,0.030446142,0.19707623,-0.053387526,0.13435638,-0.33595753,0.61811924
1747679588.919445,0.030446142,0.19707623,-0.053387526,0.13435638,-0.33595753,0.61811924
1747679588.919963,0.030446142,0.19707623,-0.053387526,0.13435638,-0.33595753,0.61811924
1747679588.9204814,0.018731393,0.043808278,-0.03142237,0.1748364,-0.333827,0.7981488
1747679588.921,0.018731393,0.043808278,-0.03142237,0.1748364,-0.333827,0.7981488
1747679588.9215183,0.018731393,0.043808278,-0.03142237,0.1748364,-0.333827,0.7981488
1747679588.9220362,0.018731393,0.043808278,-0.03142237,0.1748364,-0.333827,0.7981488
1747679588.9225547,0.018731393,0.043808278,-0.03142237,0.1748364,-0.333827,0.7981488
1747679588.9230757,0.018731393,0.043808278,-0.03142237,0.1748364,-0.333827,0.7981488
1747679588.9236212,0.018731393,0.043808278,-0.03142237,0.1748364,-0.333827,0.7981488
1747679588.9241862,0.018731393,0.043808278,-0.03142237,0.1748364,-0.333827,0.7981488
1747679588.9247332,0.018731393,0.043808278,-0.03142237,0.1748364,-0.333827,0.7981488
1747679588.9252584,0.018731393,0.043808278,-0.03142237,0.1748364,-0.333827,0.7981488
1747679588.9257884,0.018731393,0.043808278,-0.03142237,0.1748364,-0.333827,0.7981488
1747679588.9263828,0.018731393,0.043808278,-0.03142237,0.1748364,-0.333827,0.7981488
1747679588.9269202,0.018731393,0.043808278,-0.03142237,0.1748364,-0.333827,0.7981488
1747679588.927445,0.018731393,0.043808278,-0.03142237,0.1748364,-0.333827,0.7981488
1747679588.9279642,0.018731393,0.043808278,-0.03142237,0.1748364,-0.333827,0.7981488
1747679588.9284825,0.018731393,0.043808278,-0.03142237,0.1748364,-0.333827,0.7981488
1747679588.9290006,0.018731393,0.043808278,-0.03142237,0.1748364,-0.333827,0.7981488
1747679588.9295194,0.018731393,0.043808278,-0.03142237,0.1748364,-0.333827,0.7981488
1747679588.93004,0.018731393,0.043808278,-0.03142237,0.1748364,-0.333827,0.7981488
1747679588.9305623,0.0026236153,-0.095792465,-0.040696546,0.1748364,-0.333827,0.7981488
1747679588.9310832,0.0026236153,-0.095792465,-0.040696546,0.1748364,-0.333827,0.7981488
1747679588.9316022,0.0026236153,-0.095792465,-0.040696546,0.1982722,-0.34341437,1.0069405
1747679588.932121,0.0026236153,-0.095792465,-0.040696546,0.1982722,-0.34341437,1.0069405
1747679588.9326396,0.0026236153,-0.095792465,-0.040696546,0.1982722,-0.34341437,1.0069405
1747679588.9332306,0.0026236153,-0.095792465,-0.040696546,0.1982722,-0.34341437,1.0069405
1747679588.9337845,0.0026236153,-0.095792465,-0.040696546,0.1982722,-0.34341437,1.0069405
1747679588.9343307,0.0026236153,-0.095792465,-0.040696546,0.1982722,-0.34341437,1.0069405
1747679588.934865,0.0026236153,-0.095792465,-0.040696546,0.1982722,-0.34341437,1.0069405
1747679588.9353983,0.0026236153,-0.095792465,-0.040696546,0.1982722,-0.34341437,1.0069405
1747679588.9359176,0.0026236153,-0.095792465,-0.040696546,0.1982722,-0.34341437,1.0069405
1747679588.9364364,0.0026236153,-0.095792465,-0.040696546,0.1982722,-0.34341437,1.0069405
1747679588.9369547,0.0026236153,-0.095792465,-0.040696546,0.1982722,-0.34341437,1.0069405
1747679588.9374726,0.0026236153,-0.095792465,-0.040696546,0.1982722,-0.34341437,1.0069405
1747679588.9379938,0.0026236153,-0.095792465,-0.040696546,0.1982722,-0.34341437,1.0069405
1747679588.9385467,0.0026236153,-0.095792465,-0.040696546,0.1982722,-0.34341437,1.0069405
1747679588.9390905,0.0026236153,-0.095792465,-0.040696546,0.1982722,-0.34341437,1.0069405
1747679588.9396234,0.0026236153,-0.095792465,-0.040696546,0.1982722,-0.34341437,1.0069405
1747679588.9401433,0.0026236153,-0.095792465,-0.040696546,0.1982722,-0.34341437,1.0069405
1747679588.940662,0.0026236153,-0.095792465,-0.040696546,0.1982722,-0.34341437,1.0069405
1747679588.941181,-0.0051862164,-0.26175138,-0.062173583,0.1865543,-0.3711112,1.3467596
1747679588.9417017,-0.0051862164,-0.26175138,-0.062173583,0.1865543,-0.3711112,1.3467596
1747679588.9422226,-0.0051862164,-0.26175138,-0.062173583,0.1865543,-0.3711112,1.3467596
1747679588.9427414,-0.0051862164,-0.26175138,-0.062173583,0.1865543,-0.3711112,1.3467596
1747679588.9432604,-0.0051862164,-0.26175138,-0.062173583,0.1865543,-0.3711112,1.3467596
1747679588.9437785,-0.0051862164,-0.26175138,-0.062173583,0.1865543,-0.3711112,1.3467596
1747679588.944307,-0.0051862164,-0.26175138,-0.062173583,0.1865543,-0.3711112,1.3467596
1747679588.944847,-0.0051862164,-0.26175138,-0.062173583,0.1865543,-0.3711112,1.3467596
1747679588.9453723,-0.0051862164,-0.26175138,-0.062173583,0.1865543,-0.3711112,1.3467596
1747679588.9458911,-0.0051862164,-0.26175138,-0.062173583,0.1865543,-0.3711112,1.3467596
1747679588.9464126,-0.0051862164,-0.26175138,-0.062173583,0.1865543,-0.3711112,1.3467596
1747679588.9469337,-0.0051862164,-0.26175138,-0.062173583,0.1865543,-0.3711112,1.3467596
1747679588.9474547,-0.0051862164,-0.26175138,-0.062173583,0.1865543,-0.3711112,1.3467596
1747679588.9479759,-0.0051862164,-0.26175138,-0.062173583,0.1865543,-0.3711112,1.3467596
1747679588.9485006,-0.0051862164,-0.26175138,-0.062173583,0.1865543,-0.3711112,1.3467596
1747679588.9490242,-0.0051862164,-0.26175138,-0.062173583,0.1865543,-0.3711112,1.3467596
1747679588.9495454,-0.0051862164,-0.26175138,-0.062173583,0.1865543,-0.3711112,1.3467596
1747679588.9500668,-0.0051862164,-0.26175138,-0.062173583,0.1865543,-0.3711112,1.3467596
1747679588.9505877,-0.0051862164,-0.26175138,-0.062173583,0.1865543,-0.3711112,1.3467596
1747679588.9511087,-0.0051862164,-0.26175138,-0.062173583,0.1865543,-0.3711112,1.3467596
1747679588.9516299,0.01726705,-0.40623328,-0.07681701,0.1865543,-0.3711112,1.3467596
1747679588.952151,0.01726705,-0.40623328,-0.07681701,0.1865543,-0.3711112,1.3467596
1747679588.952672,0.01726705,-0.40623328,-0.07681701,0.1865543,-0.3711112,1.3467596
1747679588.9531927,0.01726705,-0.40623328,-0.07681701,0.1865543,-0.3711112,1.3467596
1747679588.9537227,0.01726705,-0.40623328,-0.07681701,0.1865543,-0.3711112,1.3467596
1747679588.9542744,0.01726705,-0.40623328,-0.07681701,0.1865543,-0.3711112,1.3467596
1747679588.9548194,0.01726705,-0.40623328,-0.07681701,0.1865543,-0.3711112,1.3467596
1747679588.9553547,0.01726705,-0.40623328,-0.07681701,0.1865543,-0.3711112,1.3467596
1747679588.9558766,0.01726705,-0.40623328,-0.07681701,0.1865543,-0.3711112,1.3467596
1747679588.956398,0.01726705,-0.40623328,-0.07681701,0.1865543,-0.3711112,1.3467596
1747679588.956919,0.01726705,-0.40623328,-0.07681701,0.1865543,-0.3711112,1.3467596
1747679588.9574401,0.01726705,-0.40623328,-0.07681701,0.1865543,-0.3711112,1.3467596
1747679588.957966,0.01726705,-0.40623328,-0.07681701,0.1865543,-0.3711112,1.3467596
1747679588.958497,0.01726705,-0.40623328,-0.07681701,0.1865543,-0.3711112,1.3467596
1747679588.9590244,0.01726705,-0.40623328,-0.07681701,0.1865543,-0.3711112,1.3467596
1747679588.9595876,0.01726705,-0.40623328,-0.07681701,0.1865543,-0.3711112,1.3467596
1747679588.9601157,0.01726705,-0.40623328,-0.07681701,0.1865543,-0.3711112,1.3467596
1747679588.960642,0.01726705,-0.40623328,-0.07681701,0.1865543,-0.3711112,1.3467596
1747679588.961169,0.01726705,-0.40623328,-0.07681701,0.1865543,-0.3711112,1.3467596
1747679588.9616978,0.01726705,-0.40623328,-0.07681701,0.1865543,-0.3711112,1.3467596
1747679588.9622266,0.01726705,-0.40623328,-0.07681701,0.1865543,-0.3711112,1.3467596
1747679588.9627643,0.01726705,-0.40623328,-0.07681701,-0.06058687,-0.2518017,2.39924
1747679588.9632878,0.10659201,-0.48872462,-0.08853176,-0.06058687,-0.2518017,2.39924
1747679588.9638457,0.10659201,-0.48872462,-0.08853176,-0.06058687,-0.2518017,2.39924
1747679588.9643948,0.10659201,-0.48872462,-0.08853176,-0.06058687,-0.2518017,2.39924
1747679588.9649234,0.10659201,-0.48872462,-0.08853176,-0.06058687,-0.2518017,2.39924
1747679588.9654462,0.10659201,-0.48872462,-0.08853176,-0.06058687,-0.2518017,2.39924
1747679588.9659681,0.10659201,-0.48872462,-0.08853176,-0.06058687,-0.2518017,2.39924
1747679588.9664903,0.10659201,-0.48872462,-0.08853176,-0.06058687,-0.2518017,2.39924
1747679588.967012,0.10659201,-0.48872462,-0.08853176,-0.06058687,-0.2518017,2.39924
1747679588.967534,0.2144653,-0.5180115,-0.090484224,-0.19694062,-0.1548627,2.7337327
1747679588.968056,0.2144653,-0.5180115,-0.090484224,-0.19694062,-0.1548627,2.7337327
1747679588.9685779,0.2144653,-0.5180115,-0.090484224,-0.19694062,-0.1548627,2.7337327
1747679588.9690995,0.2144653,-0.5180115,-0.090484224,-0.19694062,-0.1548627,2.7337327
1747679588.9696243,0.2144653,-0.5180115,-0.090484224,-0.19694062,-0.1548627,2.7337327
1747679588.9701753,0.2144653,-0.5180115,-0.090484224,-0.19694062,-0.1548627,2.7337327
1747679588.970722,0.2144653,-0.5180115,-0.090484224,-0.19694062,-0.1548627,2.7337327
1747679588.971255,0.2144653,-0.5180115,-0.090484224,-0.19694062,-0.1548627,2.7337327
1747679588.9717755,0.2144653,-0.5180115,-0.090484224,-0.19694062,-0.1548627,2.7337327
1747679588.9722939,0.2144653,-0.5180115,-0.090484224,-0.19694062,-0.1548627,2.7337327
1747679588.9728127,0.2144653,-0.5180115,-0.090484224,-0.19694062,-0.1548627,2.7337327
1747679588.9733307,0.2144653,-0.5180115,-0.090484224,-0.19694062,-0.1548627,2.7337327
1747679588.9738493,0.2144653,-0.5180115,-0.090484224,-0.19694062,-0.1548627,2.7337327
1747679588.9743834,0.2144653,-0.5180115,-0.090484224,-0.19694062,-0.1548627,2.7337327
1747679588.974936,0.2144653,-0.5180115,-0.090484224,-0.19694062,-0.1548627,2.7337327
1747679588.9754605,0.2144653,-0.5180115,-0.090484224,-0.19694062,-0.1548627,2.7337327
1747679588.9759793,0.2144653,-0.5180115,-0.090484224,-0.19694062,-0.1548627,2.7337327
1747679588.9764977,0.2144653,-0.5180115,-0.090484224,-0.19694062,-0.1548627,2.7337327
1747679588.977016,0.2144653,-0.5180115,-0.090484224,-0.19694062,-0.1548627,2.7337327
1747679588.9775343,0.2144653,-0.5180115,-0.090484224,-0.19694062,-0.1548627,2.7337327
1747679588.9780543,0.3931152,-0.5355836,-0.09341291,-0.3705786,-0.09840373,3.0447898
1747679588.9785743,0.3931152,-0.5355836,-0.09341291,-0.3705786,-0.09840373,3.0447898
1747679588.9791121,0.3931152,-0.5355836,-0.09341291,-0.3705786,-0.09840373,3.0447898
1747679588.9796631,0.3931152,-0.5355836,-0.09341291,-0.3705786,-0.09840373,3.0447898
1747679588.9801958,0.3931152,-0.5355836,-0.09341291,-0.3705786,-0.09840373,3.0447898
1747679588.9807158,0.3931152,-0.5355836,-0.09341291,-0.3705786,-0.09840373,3.0447898
1747679588.9812346,0.3931152,-0.5355836,-0.09341291,-0.3705786,-0.09840373,3.0447898
1747679588.981753,0.3931152,-0.5355836,-0.09341291,-0.3705786,-0.09840373,3.0447898
1747679588.9822714,0.3931152,-0.5355836,-0.09341291,-0.3705786,-0.09840373,3.0447898
1747679588.98279,0.3931152,-0.5355836,-0.09341291,-0.3705786,-0.09840373,3.0447898
1747679588.9833083,0.3931152,-0.5355836,-0.09341291,-0.3705786,-0.09840373,3.0447898
1747679588.9838398,0.3931152,-0.5355836,-0.09341291,-0.3705786,-0.09840373,3.0447898
1747679588.9843938,0.3931152,-0.5355836,-0.09341291,-0.3705786,-0.09840373,3.0447898
1747679588.9849188,0.3931152,-0.5355836,-0.09341291,-0.3705786,-0.09840373,3.0447898
1747679588.9854407,0.3931152,-0.5355836,-0.09341291,-0.3705786,-0.09840373,3.0447898
1747679588.985988,0.3931152,-0.5355836,-0.09341291,-0.3705786,-0.09840373,3.0447898
1747679588.9865336,0.5483356,-0.56487054,-0.08853176,-0.537825,-0.14101428,3.2194932
1747679588.9870665,0.5483356,-0.56487054,-0.08853176,-0.537825,-0.14101428,3.2194932
1747679588.9875863,0.5483356,-0.56487054,-0.08853176,-0.537825,-0.14101428,3.2194932
1747679588.988105,0.5483356,-0.56487054,-0.08853176,-0.537825,-0.14101428,3.2194932
1747679588.9886234,0.5483356,-0.56487054,-0.08853176,-0.537825,-0.14101428,3.2194932
1747679588.989142,0.5483356,-0.56487054,-0.08853176,-0.537825,-0.14101428,3.2194932
1747679588.9896603,0.5483356,-0.56487054,-0.08853176,-0.537825,-0.14101428,3.2194932
1747679588.9901786,0.5483356,-0.56487054,-0.08853176,-0.537825,-0.14101428,3.2194932
1747679588.9906967,0.5483356,-0.56487054,-0.08853176,-0.537825,-0.14101428,3.2194932
1747679588.9912148,0.5483356,-0.56487054,-0.08853176,-0.537825,-0.14101428,3.2194932
1747679588.991733,0.5483356,-0.56487054,-0.08853176,-0.537825,-0.14101428,3.2194932
1747679588.9922512,0.5483356,-0.56487054,-0.08853176,-0.537825,-0.14101428,3.2194932
1747679588.9927692,0.5483356,-0.56487054,-0.08853176,-0.537825,-0.14101428,3.2194932
1747679588.9932873,0.5483356,-0.56487054,-0.08853176,-0.537825,-0.14101428,3.2194932
1747679588.9938056,0.5483356,-0.56487054,-0.08853176,-0.537825,-0.14101428,3.2194932
1747679588.9943795,0.5483356,-0.56487054,-0.08853176,-0.537825,-0.14101428,3.2194932
1747679588.9949243,0.5483356,-0.56487054,-0.08853176,-0.537825,-0.14101428,3.2194932
1747679588.9954495,0.5483356,-0.56487054,-0.08853176,-0.537825,-0.14101428,3.2194932
1747679588.9959812,0.5483356,-0.56487054,-0.08853176,-0.537825,-0.14101428,3.2194932
1747679588.996514,0.5483356,-0.56487054,-0.08853176,-0.537825,-0.14101428,3.2194932
1747679588.997034,0.6625544,-0.5995266,-0.06314981,-0.6933535,-0.28269434,3.3089752
1747679588.9975529,0.6625544,-0.5995266,-0.06314981,-0.6933535,-0.28269434,3.3089752
1747679588.9980712,0.6625544,-0.5995266,-0.06314981,-0.6933535,-0.28269434,3.3089752
1747679588.9985895,0.6625544,-0.5995266,-0.06314981,-0.6933535,-0.28269434,3.3089752
1747679588.9991078,0.6625544,-0.5995266,-0.06314981,-0.6933535,-0.28269434,3.3089752
1747679588.999626,0.6625544,-0.5995266,-0.06314981,-0.6933535,-0.28269434,3.3089752
1747679589.0001445,0.6625544,-0.5995266,-0.06314981,-0.6933535,-0.28269434,3.3089752
1747679589.0006626,0.6625544,-0.5995266,-0.06314981,-0.6933535,-0.28269434,3.3089752
1747679589.001184,0.6625544,-0.5995266,-0.06314981,-0.6933535,-0.28269434,3.3089752
1747679589.001759,0.6625544,-0.5995266,-0.06314981,-0.6933535,-0.28269434,3.3089752
1747679589.0022953,0.6625544,-0.5995266,-0.06314981,-0.6933535,-0.28269434,3.3089752
1747679589.0028152,0.6625544,-0.5995266,-0.06314981,-0.6933535,-0.28269434,3.3089752
1747679589.0033338,0.6625544,-0.5995266,-0.06314981,-0.6933535,-0.28269434,3.3089752
1747679589.0038679,0.6625544,-0.5995266,-0.06314981,-0.6933535,-0.28269434,3.3089752
1747679589.0044188,0.6625544,-0.5995266,-0.06314981,-0.6933535,-0.28269434,3.3089752
1747679589.0049436,0.6625544,-0.5995266,-0.06314981,-0.6933535,-0.28269434,3.3089752
1747679589.0054626,0.6625544,-0.5995266,-0.06314981,-0.6933535,-0.28269434,3.3089752
1747679589.005981,0.6625544,-0.5995266,-0.06314981,-0.6933535,-0.28269434,3.3089752
1747679589.0064993,0.6625544,-0.5995266,-0.06314981,-0.6933535,-0.28269434,3.3089752
1747679589.0070174,0.6625544,-0.5995266,-0.06314981,-0.6933535,-0.28269434,3.3089752
1747679589.0075378,0.6625544,-0.5995266,-0.06314981,-0.6933535,-0.28269434,3.3089752
1747679589.0080585,0.74797446,-0.64101636,-0.009945333,-0.81159776,-0.48615968,3.36863
1747679589.0085773,0.74797446,-0.64101636,-0.009945333,-0.81159776,-0.48615968,3.36863
1747679589.0090957,0.74797446,-0.64101636,-0.009945333,-0.81159776,-0.48615968,3.36863
1747679589.0096333,0.74797446,-0.64101636,-0.009945333,-0.81159776,-0.48615968,3.36863
1747679589.0101845,0.74797446,-0.64101636,-0.009945333,-0.81159776,-0.48615968,3.36863
1747679589.0107126,0.74797446,-0.64101636,-0.009945333,-0.81159776,-0.48615968,3.36863
1747679589.0112352,0.74797446,-0.64101636,-0.009945333,-0.81159776,-0.48615968,3.36863
1747679589.0117574,0.74797446,-0.64101636,-0.009945333,-0.81159776,-0.48615968,3.36863
1747679589.0122924,0.74797446,-0.64101636,-0.009945333,-0.81159776,-0.48615968,3.36863
1747679589.012815,0.74797446,-0.64101636,-0.009945333,-0.81159776,-0.48615968,3.36863
1747679589.0133371,0.74797446,-0.64101636,-0.009945333,-0.81159776,-0.48615968,3.36863
1747679589.0138593,0.74797446,-0.64101636,-0.009945333,-0.81159776,-0.48615968,3.36863
1747679589.0144083,0.74797446,-0.64101636,-0.009945333,-0.81159776,-0.48615968,3.36863
1747679589.0149696,0.74797446,-0.64101636,-0.009945333,-0.81159776,-0.48615968,3.36863
1747679589.015499,0.74797446,-0.64101636,-0.009945333,-0.81159776,-0.48615968,3.36863
1747679589.0160432,0.74797446,-0.64101636,-0.009945333,-0.81159776,-0.48615968,3.36863
1747679589.0166037,0.74797446,-0.64101636,-0.009945333,-0.81159776,-0.48615968,3.36863
1747679589.017147,0.74797446,-0.64101636,-0.009945333,-0.81159776,-0.48615968,3.36863
1747679589.0176802,0.74797446,-0.64101636,-0.009945333,-0.81159776,-0.48615968,3.36863
1747679589.0182,0.74797446,-0.64101636,-0.009945333,-0.81159776,-0.48615968,3.36863
1747679589.0187194,0.78165436,-0.71130484,0.03935423,-0.81159776,-0.48615968,3.36863
1747679589.0192385,0.78165436,-0.71130484,0.03935423,-0.8701872,-0.68642926,3.4400027
1747679589.019757,0.78165436,-0.71130484,0.03935423,-0.8701872,-0.68642926,3.4400027
1747679589.0202756,0.78165436,-0.71130484,0.03935423,-0.8701872,-0.68642926,3.4400027
1747679589.020794,0.78165436,-0.71130484,0.03935423,-0.8701872,-0.68642926,3.4400027
1747679589.021312,0.78165436,-0.71130484,0.03935423,-0.8701872,-0.68642926,3.4400027
1747679589.02183,0.78165436,-0.71130484,0.03935423,-0.8701872,-0.68642926,3.4400027
1747679589.0223486,0.78165436,-0.71130484,0.03935423,-0.8701872,-0.68642926,3.4400027
1747679589.0228667,0.78165436,-0.71130484,0.03935423,-0.8701872,-0.68642926,3.4400027
1747679589.0233848,0.78165436,-0.71130484,0.03935423,-0.8701872,-0.68642926,3.4400027
1747679589.0239131,0.78165436,-0.71130484,0.03935423,-0.8701872,-0.68642926,3.4400027
1747679589.0244515,0.78165436,-0.71130484,0.03935423,-0.8701872,-0.68642926,3.4400027
1747679589.0250044,0.78165436,-0.71130484,0.03935423,-0.8701872,-0.68642926,3.4400027
1747679589.025564,0.78165436,-0.71130484,0.03935423,-0.8701872,-0.68642926,3.4400027
1747679589.0261145,0.78165436,-0.71130484,0.03935423,-0.8701872,-0.68642926,3.4400027
1747679589.0266993,0.78165436,-0.71130484,0.03935423,-0.8701872,-0.68642926,3.4400027
1747679589.0272474,0.78165436,-0.71130484,0.03935423,-0.8701872,-0.68642926,3.4400027
1747679589.0277805,0.78165436,-0.71130484,0.03935423,-0.8701872,-0.68642926,3.4400027
1747679589.0283003,0.78165436,-0.71130484,0.03935423,-0.8701872,-0.68642926,3.4400027
1747679589.028819,0.78165436,-0.71130484,0.03935423,-0.8701872,-0.68642926,3.4400027
1747679589.0293376,0.78165436,-0.71130484,0.03935423,-0.8701872,-0.68642926,3.4400027
1747679589.0298562,0.78165436,-0.71130484,0.03935423,-0.8701872,-0.68642926,3.4400027
1747679589.0303748,0.78165436,-0.71130484,0.03935423,-0.8701872,-0.68642926,3.4400027
1747679589.030893,0.78165436,-0.71130484,0.03935423,-0.8701872,-0.68642926,3.4400027
1747679589.0314121,0.84999037,-0.85188186,0.07840339,-0.92877674,-0.8845683,3.6125753
1747679589.0319338,0.84999037,-0.85188186,0.07840339,-0.92877674,-0.8845683,3.6125753
1747679589.0325055,0.84999037,-0.85188186,0.07840339,-0.92877674,-0.8845683,3.6125753
1747679589.033057,0.84999037,-0.85188186,0.07840339,-0.92877674,-0.8845683,3.6125753
1747679589.0335898,0.84999037,-0.85188186,0.07840339,-0.92877674,-0.8845683,3.6125753
1747679589.0341244,0.84999037,-0.85188186,0.07840339,-0.92877674,-0.8845683,3.6125753
1747679589.0346675,0.84999037,-0.85188186,0.07840339,-0.92877674,-0.8845683,3.6125753
1747679589.0351923,0.84999037,-0.85188186,0.07840339,-0.92877674,-0.8845683,3.6125753
1747679589.0357113,0.84999037,-0.85188186,0.07840339,-0.92877674,-0.8845683,3.6125753
1747679589.0362337,0.84999037,-0.85188186,0.07840339,-0.92877674,-0.8845683,3.6125753
1747679589.0367525,0.84999037,-0.85188186,0.07840339,-0.92877674,-0.8845683,3.6125753
1747679589.0373201,0.84999037,-0.85188186,0.07840339,-0.92877674,-0.8845683,3.6125753
1747679589.0378401,0.84999037,-0.85188186,0.07840339,-0.92877674,-0.8845683,3.6125753
1747679589.0383584,0.84999037,-0.85188186,0.07840339,-0.92877674,-0.8845683,3.6125753
1747679589.038877,0.84999037,-0.85188186,0.07840339,-0.92877674,-0.8845683,3.6125753
1747679589.039395,0.84999037,-0.85188186,0.07840339,-0.92877674,-0.8845683,3.6125753
1747679589.0399134,0.84999037,-0.85188186,0.07840339,-0.92877674,-0.8845683,3.6125753
1747679589.040459,0.94810134,-1.0705571,0.08182019,-1.0118673,-0.95061463,3.8522596
1747679589.0410175,0.94810134,-1.0705571,0.08182019,-1.0118673,-0.95061463,3.8522596
1747679589.0415459,0.94810134,-1.0705571,0.08182019,-1.0118673,-0.95061463,3.8522596
1747679589.0420682,0.94810134,-1.0705571,0.08182019,-1.0118673,-0.95061463,3.8522596
1747679589.042623,0.94810134,-1.0705571,0.08182019,-1.0118673,-0.95061463,3.8522596
1747679589.043181,0.94810134,-1.0705571,0.08182019,-1.0118673,-0.95061463,3.8522596
1747679589.0437312,0.94810134,-1.0705571,0.08182019,-1.0118673,-0.95061463,3.8522596
1747679589.0442865,0.94810134,-1.0705571,0.08182019,-1.0118673,-0.95061463,3.8522596
1747679589.0448458,0.94810134,-1.0705571,0.08182019,-1.0118673,-0.95061463,3.8522596
1747679589.0454013,0.94810134,-1.0705571,0.08182019,-1.0118673,-0.95061463,3.8522596
1747679589.0459538,0.94810134,-1.0705571,0.08182019,-1.0118673,-0.95061463,3.8522596
1747679589.046506,0.94810134,-1.0705571,0.08182019,-1.0118673,-0.95061463,3.8522596
1747679589.047059,0.94810134,-1.0705571,0.08182019,-1.0118673,-0.95061463,3.8522596
1747679589.0476127,0.94810134,-1.0705571,0.08182019,-1.0118673,-0.95061463,3.8522596
1747679589.0483387,0.94810134,-1.0705571,0.08182019,-1.0118673,-0.95061463,3.8522596
1747679589.0489075,0.94810134,-1.0705571,0.08182019,-1.0118673,-0.95061463,3.8522596
1747679589.0494528,0.94810134,-1.0705571,0.08182019,-1.0118673,-0.95061463,3.8522596
1747679589.0499914,0.94810134,-1.0705571,0.08182019,-1.0118673,-0.95061463,3.8522596
1747679589.0505295,0.94810134,-1.0705571,0.08182019,-1.0118673,-0.95061463,3.8522596
1747679589.0510669,0.94810134,-1.0705571,0.08182019,-1.0118673,-0.95061463,3.8522596
1747679589.0516105,1.0159492,-1.351223,0.06766488,-1.1492863,-0.8376967,4.1995354
1747679589.0521507,1.0159492,-1.351223,0.06766488,-1.1492863,-0.8376967,4.1995354
1747679589.0526884,1.0159492,-1.351223,0.06766488,-1.1492863,-0.8376967,4.1995354
1747679589.0532255,1.0159492,-1.351223,0.06766488,-1.1492863,-0.8376967,4.1995354
1747679589.053779,1.0159492,-1.351223,0.06766488,-1.1492863,-0.8376967,4.1995354
1747679589.0543315,1.0159492,-1.351223,0.06766488,-1.1492863,-0.8376967,4.1995354
1747679589.0548773,1.0159492,-1.351223,0.06766488,-1.1492863,-0.8376967,4.1995354
1747679589.055789,1.0159492,-1.351223,0.06766488,-1.1492863,-0.8376967,4.1995354
1747679589.056348,1.0159492,-1.351223,0.06766488,-1.1492863,-0.8376967,4.1995354
1747679589.0568988,1.0159492,-1.351223,0.06766488,-1.1492863,-0.8376967,4.1995354
1747679589.0574474,1.0159492,-1.351223,0.06766488,-1.1492863,-0.8376967,4.1995354
1747679589.0580099,1.0159492,-1.351223,0.06766488,-1.1492863,-0.8376967,4.1995354
1747679589.0585558,1.0159492,-1.351223,0.06766488,-1.1492863,-0.8376967,4.1995354
1747679589.0590954,1.0159492,-1.351223,0.06766488,-1.1492863,-0.8376967,4.1995354
1747679589.0596337,1.0159492,-1.351223,0.06766488,-1.1492863,-0.8376967,4.1995354
1747679589.0601707,1.0159492,-1.351223,0.06766488,-1.1492863,-0.8376967,4.1995354
1747679589.0607085,1.0159492,-1.351223,0.06766488,-1.1492863,-0.8376967,4.1995354
1747679589.0612462,1.0159492,-1.351223,0.06766488,-1.1492863,-0.8376967,4.1995354
1747679589.0617843,1.0159492,-1.351223,0.06766488,-1.1492863,-0.8376967,4.1995354
1747679589.0623145,1.1223582,-1.6724023,0.015924735,-1.3644695,-0.48402917,4.701275
1747679589.0628664,1.1223582,-1.6724023,0.015924735,-1.3644695,-0.48402917,4.701275
1747679589.063556,1.1223582,-1.6724023,0.015924735,-1.3644695,-0.48402917,4.701275
1747679589.064172,1.1223582,-1.6724023,0.015924735,-1.3644695,-0.48402917,4.701275
1747679589.0647304,1.1223582,-1.6724023,0.015924735,-1.3644695,-0.48402917,4.701275
1747679589.065285,1.1223582,-1.6724023,0.015924735,-1.3644695,-0.48402917,4.701275
1747679589.0658312,1.1223582,-1.6724023,0.015924735,-1.3644695,-0.48402917,4.701275
1747679589.0663745,1.1223582,-1.6724023,0.015924735,-1.3644695,-0.48402917,4.701275
1747679589.0669208,1.1223582,-1.6724023,0.015924735,-1.3644695,-0.48402917,4.701275
1747679589.0674663,1.1223582,-1.6724023,0.015924735,-1.3644695,-0.48402917,4.701275
1747679589.0680163,1.1223582,-1.6724023,0.015924735,-1.3644695,-0.48402917,4.701275
1747679589.0685778,1.1223582,-1.6724023,0.015924735,-1.3644695,-0.48402917,4.701275
1747679589.0691345,1.1223582,-1.6724023,0.015924735,-1.3644695,-0.48402917,4.701275
1747679589.0696802,1.1223582,-1.6724023,0.015924735,-1.3644695,-0.48402917,4.701275
1747679589.0702174,1.1223582,-1.6724023,0.015924735,-1.3644695,-0.48402917,4.701275
1747679589.0707781,1.1223582,-1.6724023,0.015924735,-1.3644695,-0.48402917,4.701275
1747679589.0713332,1.1223582,-1.6724023,0.015924735,-1.3644695,-0.48402917,4.701275
1747679589.0718765,1.1223582,-1.6724023,0.015924735,-1.3644695,-0.48402917,4.701275
1747679589.0724237,1.219005,-1.8861964,-0.0075047608,-1.3644695,-0.48402917,4.701275
1747679589.0729873,1.219005,-1.8861964,-0.0075047608,-1.5487602,-0.119709,5.0847697
1747679589.0735822,1.219005,-1.8861964,-0.0075047608,-1.5487602,-0.119709,5.0847697
1747679589.0741305,1.219005,-1.8861964,-0.0075047608,-1.5487602,-0.119709,5.0847697
1747679589.0746849,1.219005,-1.8861964,-0.0075047608,-1.5487602,-0.119709,5.0847697
1747679589.0752382,1.219005,-1.8861964,-0.0075047608,-1.5487602,-0.119709,5.0847697
1747679589.0757902,1.219005,-1.8861964,-0.0075047608,-1.5487602,-0.119709,5.0847697
1747679589.0763426,1.219005,-1.8861964,-0.0075047608,-1.5487602,-0.119709,5.0847697
1747679589.0768948,1.219005,-1.8861964,-0.0075047608,-1.5487602,-0.119709,5.0847697
1747679589.077447,1.3097942,-1.9955342,0.037401773,-1.6339812,0.016644744,5.380913
1747679589.077999,1.3097942,-1.9955342,0.037401773,-1.6339812,0.016644744,5.380913
1747679589.0785499,1.3097942,-1.9955342,0.037401773,-1.6339812,0.016644744,5.380913
1747679589.0791028,1.3097942,-1.9955342,0.037401773,-1.6339812,0.016644744,5.380913
1747679589.0804605,1.3097942,-1.9955342,0.037401773,-1.6339812,0.016644744,5.380913
1747679589.0810244,1.3097942,-1.9955342,0.037401773,-1.6339812,0.016644744,5.380913
1747679589.0815895,1.3097942,-1.9955342,0.037401773,-1.6339812,0.016644744,5.380913
1747679589.082146,1.3097942,-1.9955342,0.037401773,-1.6339812,0.016644744,5.380913
1747679589.0826921,1.3097942,-1.9955342,0.037401773,-1.6339812,0.016644744,5.380913
1747679589.0832403,1.3097942,-1.9955342,0.037401773,-1.6339812,0.016644744,5.380913
1747679589.083798,1.3097942,-1.9955342,0.037401773,-1.6339812,0.016644744,5.380913
1747679589.0843582,1.3097942,-1.9955342,0.037401773,-1.6339812,0.016644744,5.380913
1747679589.0849116,1.3097942,-1.9955342,0.037401773,-1.6339812,0.016644744,5.380913
1747679589.08548,1.3097942,-1.9955342,0.037401773,-1.6339812,0.016644744,5.380913
1747679589.0860808,1.3097942,-1.9955342,0.037401773,-1.6339812,0.016644744,5.380913
1747679589.0866356,1.3097942,-1.9955342,0.037401773,-1.6339812,0.016644744,5.380913
1747679589.0871894,1.3122348,-2.0438573,0.12428615,-1.6339812,0.016644744,5.380913
1747679589.0877435,1.3122348,-2.0438573,0.12428615,-1.531716,-0.22197431,5.6685343
1747679589.0883043,1.3122348,-2.0438573,0.12428615,-1.531716,-0.22197431,5.6685343
1747679589.0888963,1.3122348,-2.0438573,0.12428615,-1.531716,-0.22197431,5.6685343
1747679589.0894556,1.3122348,-2.0438573,0.12428615,-1.531716,-0.22197431,5.6685343
1747679589.0900247,1.3122348,-2.0438573,0.12428615,-1.531716,-0.22197431,5.6685343
1747679589.090584,1.3122348,-2.0438573,0.12428615,-1.531716,-0.22197431,5.6685343
1747679589.0911384,1.3122348,-2.0438573,0.12428615,-1.531716,-0.22197431,5.6685343
1747679589.0916917,1.3122348,-2.0438573,0.12428615,-1.531716,-0.22197431,5.6685343
1747679589.0922596,1.3122348,-2.0438573,0.12428615,-1.531716,-0.22197431,5.6685343
1747679589.0928133,1.3122348,-2.0438573,0.12428615,-1.531716,-0.22197431,5.6685343
1747679589.0933506,1.3122348,-2.0438573,0.12428615,-1.531716,-0.22197431,5.6685343
1747679589.0938945,1.3122348,-2.0438573,0.12428615,-1.531716,-0.22197431,5.6685343
1747679589.0944552,1.3122348,-2.0438573,0.12428615,-1.531716,-0.22197431,5.6685343
1747679589.0950267,1.3122348,-2.0438573,0.12428615,-1.531716,-0.22197431,5.6685343
1747679589.0955968,1.3122348,-2.0438573,0.12428615,-1.531716,-0.22197431,5.6685343
1747679589.0961494,1.3122348,-2.0438573,0.12428615,-1.531716,-0.22197431,5.6685343
1747679589.0966864,1.3122348,-2.0438573,0.12428615,-1.531716,-0.22197431,5.6685343
1747679589.0972102,1.3122348,-2.0438573,0.12428615,-1.531716,-0.22197431,5.6685343
1747679589.097738,1.3122348,-2.0438573,0.12428615,-1.2025495,-0.8345009,6.129793
1747679589.0982656,1.3424978,-2.0057845,0.2101943,-1.2025495,-0.8345009,6.129793
1747679589.0987897,1.3424978,-2.0057845,0.2101943,-1.2025495,-0.8345009,6.129793
1747679589.099312,1.3424978,-2.0057845,0.2101943,-1.2025495,-0.8345009,6.129793
1747679589.099834,1.3424978,-2.0057845,0.2101943,-1.2025495,-0.8345009,6.129793
1747679589.1003556,1.3424978,-2.0057845,0.2101943,-1.2025495,-0.8345009,6.129793
1747679589.1009088,1.3424978,-2.0057845,0.2101943,-1.2025495,-0.8345009,6.129793
1747679589.101461,1.3424978,-2.0057845,0.2101943,-1.2025495,-0.8345009,6.129793
1747679589.1019893,1.3424978,-2.0057845,0.2101943,-1.2025495,-0.8345009,6.129793
1747679589.1025121,1.3424978,-2.0057845,0.2101943,-1.2025495,-0.8345009,6.129793
1747679589.1030343,1.3424978,-2.0057845,0.2101943,-1.2025495,-0.8345009,6.129793
1747679589.1035564,1.3424978,-2.0057845,0.2101943,-1.2025495,-0.8345009,6.129793
1747679589.1040967,1.3424978,-2.0057845,0.2101943,-1.2025495,-0.8345009,6.129793
1747679589.1046371,1.3424978,-2.0057845,0.2101943,-1.2025495,-0.8345009,6.129793
1747679589.1051612,1.3424978,-2.0057845,0.2101943,-1.2025495,-0.8345009,6.129793
1747679589.1056836,1.3424978,-2.0057845,0.2101943,-1.2025495,-0.8345009,6.129793
1747679589.1062052,1.3424978,-2.0057845,0.2101943,-1.2025495,-0.8345009,6.129793
1747679589.1067266,1.3424978,-2.0057845,0.2101943,-1.2025495,-0.8345009,6.129793
1747679589.1072485,1.3424978,-2.0057845,0.2101943,-1.2025495,-0.8345009,6.129793
1747679589.1077764,1.5889957,-1.8983994,0.20824185,-0.70187557,-1.7996298,6.7923875
1747679589.1083012,1.5889957,-1.8983994,0.20824185,-0.70187557,-1.7996298,6.7923875
1747679589.1088228,1.5889957,-1.8983994,0.20824185,-0.70187557,-1.7996298,6.7923875
1747679589.109345,1.5889957,-1.8983994,0.20824185,-0.70187557,-1.7996298,6.7923875
1747679589.109888,1.5889957,-1.8983994,0.20824185,-0.70187557,-1.7996298,6.7923875
1747679589.1104589,1.5889957,-1.8983994,0.20824185,-0.70187557,-1.7996298,6.7923875
1747679589.111027,1.5889957,-1.8983994,0.20824185,-0.70187557,-1.7996298,6.7923875
1747679589.1115828,1.5889957,-1.8983994,0.20824185,-0.70187557,-1.7996298,6.7923875
1747679589.1121278,1.5889957,-1.8983994,0.20824185,-0.70187557,-1.7996298,6.7923875
1747679589.112685,1.5889957,-1.8983994,0.20824185,-0.70187557,-1.7996298,6.7923875
1747679589.1132402,1.5889957,-1.8983994,0.20824185,-0.70187557,-1.7996298,6.7923875
1747679589.1137862,1.5889957,-1.8983994,0.20824185,-0.70187557,-1.7996298,6.7923875
1747679589.114343,1.5889957,-1.8983994,0.20824185,-0.70187557,-1.7996298,6.7923875
1747679589.114889,1.5889957,-1.8983994,0.20824185,-0.70187557,-1.7996298,6.7923875
1747679589.1154459,1.5889957,-1.8983994,0.20824185,-0.70187557,-1.7996298,6.7923875
1747679589.1162417,1.5889957,-1.8983994,0.20824185,-0.70187557,-1.7996298,6.7923875
1747679589.1168134,1.5889957,-1.8983994,0.20824185,-0.70187557,-1.7996298,6.7923875
1747679589.1173697,1.5889957,-1.8983994,0.20824185,-0.70187557,-1.7996298,6.7923875
1747679589.1179144,1.5889957,-1.8983994,0.20824185,-0.70187557,-1.7996298,6.7923875
1747679589.1184578,1.5889957,-1.8983994,0.20824185,-0.70187557,-1.7996298,6.7923875
1747679589.1190014,1.5889957,-1.8983994,0.20824185,-0.70187557,-1.7996298,6.7923875
1747679589.1203456,1.5889957,-1.8983994,0.20824185,-0.70187557,-1.7996298,6.7923875
1747679589.120929,1.5889957,-1.8983994,0.20824185,-0.70187557,-1.7996298,6.7923875
1747679589.1214972,2.1059089,-1.773442,0.12867919,-0.16924377,-2.6134913,7.4816127
1747679589.1220493,2.1059089,-1.773442,0.12867919,-0.16924377,-2.6134913,7.4816127
1747679589.122603,2.1059089,-1.773442,0.12867919,-0.16924377,-2.6134913,7.4816127
1747679589.1231554,2.1059089,-1.773442,0.12867919,-0.16924377,-2.6134913,7.4816127
1747679589.123705,2.1059089,-1.773442,0.12867919,-0.16924377,-2.6134913,7.4816127
1747679589.1242533,2.1059089,-1.773442,0.12867919,-0.16924377,-2.6134913,7.4816127
1747679589.124806,2.1059089,-1.773442,0.12867919,-0.16924377,-2.6134913,7.4816127
1747679589.125358,2.1059089,-1.773442,0.12867919,-0.16924377,-2.6134913,7.4816127
1747679589.1265762,2.1059089,-1.773442,0.12867919,-0.16924377,-2.6134913,7.4816127
1747679589.1271489,2.1059089,-1.773442,0.12867919,-0.16924377,-2.6134913,7.4816127
1747679589.1277108,2.1059089,-1.773442,0.12867919,-0.16924377,-2.6134913,7.4816127
1747679589.1282613,2.1059089,-1.773442,0.12867919,-0.16924377,-2.6134913,7.4816127
1747679589.128813,2.1059089,-1.773442,0.12867919,-0.16924377,-2.6134913,7.4816127
1747679589.1293654,2.1059089,-1.773442,0.12867919,0.09707215,-2.9032428,7.801192
1747679589.1299186,2.1059089,-1.773442,0.12867919,0.09707215,-2.9032428,7.801192
1747679589.1304708,2.1059089,-1.773442,0.12867919,0.09707215,-2.9032428,7.801192
1747679589.1310265,2.1059089,-1.773442,0.12867919,0.09707215,-2.9032428,7.801192
1747679589.131644,2.1059089,-1.773442,0.12867919,0.09707215,-2.9032428,7.801192
1747679589.1322036,2.1059089,-1.773442,0.12867919,0.09707215,-2.9032428,7.801192
1747679589.1327705,2.1059089,-1.773442,0.12867919,0.09707215,-2.9032428,7.801192
1747679589.133337,2.1059089,-1.773442,0.12867919,0.09707215,-2.9032428,7.801192
1747679589.133947,2.1059089,-1.773442,0.12867919,0.09707215,-2.9032428,7.801192
1747679589.134504,2.1059089,-1.773442,0.12867919,0.09707215,-2.9032428,7.801192
1747679589.135061,2.1059089,-1.773442,0.12867919,0.09707215,-2.9032428,7.801192
1747679589.135631,2.1059089,-1.773442,0.12867919,0.09707215,-2.9032428,7.801192
1747679589.1361823,2.1059089,-1.773442,0.12867919,0.09707215,-2.9032428,7.801192
1747679589.1367373,2.1059089,-1.773442,0.12867919,0.09707215,-2.9032428,7.801192
1747679589.1373055,2.1059089,-1.773442,0.12867919,0.09707215,-2.9032428,7.801192
1747679589.137869,2.1059089,-1.773442,0.12867919,0.09707215,-2.9032428,7.801192
1747679589.1384313,2.1059089,-1.773442,0.12867919,0.09707215,-2.9032428,7.801192
1747679589.1389902,2.1059089,-1.773442,0.12867919,0.09707215,-2.9032428,7.801192
1747679589.1395965,2.1059089,-1.773442,0.12867919,0.09707215,-2.9032428,7.801192
1747679589.1401563,2.1059089,-1.773442,0.12867919,0.09707215,-2.9032428,7.801192
1747679589.1407351,2.1059089,-1.773442,0.12867919,0.09707215,-2.9032428,7.801192
1747679589.1412923,2.1059089,-1.773442,0.12867919,0.09707215,-2.9032428,7.801192
1747679589.1432161,3.5707405,-1.3863672,-0.3047665,0.33782172,-3.1248178,8.17723
1747679589.144069,3.5707405,-1.3863672,-0.3047665,0.33782172,-3.1248178,8.17723
1747679589.1447053,3.5707405,-1.3863672,-0.3047665,0.33782172,-3.1248178,8.17723
1747679589.1452746,3.5707405,-1.3863672,-0.3047665,0.33782172,-3.1248178,8.17723
1747679589.1458342,3.5707405,-1.3863672,-0.3047665,0.33782172,-3.1248178,8.17723
1747679589.152721,4.118893,-1.2287062,-0.46047503,0.21957746,-2.8574367,8.036615
1747679589.1533134,4.118893,-1.2287062,-0.46047503,0.21957746,-2.8574367,8.036615
1747679589.153883,4.118893,-1.2287062,-0.46047503,0.21957746,-2.8574367,8.036615
1747679589.1545277,4.118893,-1.2287062,-0.46047503,0.21957746,-2.8574367,8.036615
1747679589.1560512,4.118893,-1.2287062,-0.46047503,0.21957746,-2.8574367,8.036615
1747679589.157905,4.118893,-1.2287062,-0.46047503,0.21957746,-2.8574367,8.036615
1747679589.1584866,4.118893,-1.2287062,-0.46047503,0.21957746,-2.8574367,8.036615
1747679589.1590524,4.118893,-1.2287062,-0.46047503,0.21957746,-2.8574367,8.036615
1747679589.1596131,4.118893,-1.2287062,-0.46047503,0.21957746,-2.8574367,8.036615
1747679589.1601717,4.118893,-1.2287062,-0.46047503,0.21957746,-2.8574367,8.036615
1747679589.1607313,4.118893,-1.2287062,-0.46047503,0.21957746,-2.8574367,8.036615
1747679589.1612852,4.118893,-1.2287062,-0.46047503,0.21957746,-2.8574367,8.036615
1747679589.161941,4.118893,-1.2287062,-0.46047503,0.21957746,-2.8574367,8.036615
1747679589.1623907,4.118893,-1.2287062,-0.46047503,0.21957746,-2.8574367,8.036615
1747679589.1629477,4.600174,-0.9582908,-0.62399334,-0.2704438,-1.893373,7.486939
1747679589.1635044,4.600174,-0.9582908,-0.62399334,-0.2704438,-1.893373,7.486939
1747679589.1640606,4.600174,-0.9582908,-0.62399334,-0.2704438,-1.893373,7.486939
1747679589.1646264,4.600174,-0.9582908,-0.62399334,-0.2704438,-1.893373,7.486939
1747679589.1651933,4.600174,-0.9582908,-0.62399334,-0.2704438,-1.893373,7.486939
1747679589.1657481,4.600174,-0.9582908,-0.62399334,-0.2704438,-1.893373,7.486939
1747679589.166289,4.600174,-0.9582908,-0.62399334,-0.2704438,-1.893373,7.486939
1747679589.1668284,4.600174,-0.9582908,-0.62399334,-0.2704438,-1.893373,7.486939
1747679589.1673658,4.600174,-0.9582908,-0.62399334,-0.2704438,-1.893373,7.486939
1747679589.167905,4.600174,-0.9582908,-0.62399334,-0.2704438,-1.893373,7.486939
1747679589.168443,4.600174,-0.9582908,-0.62399334,-0.2704438,-1.893373,7.486939
1747679589.1689816,4.600174,-0.9582908,-0.62399334,-0.2704438,-1.893373,7.486939
1747679589.1695194,4.600174,-0.9582908,-0.62399334,-0.2704438,-1.893373,7.486939
1747679589.1700587,4.600174,-0.9582908,-0.62399334,-0.2704438,-1.893373,7.486939
1747679589.1705997,4.600174,-0.9582908,-0.62399334,-0.2704438,-1.893373,7.486939
1747679589.1711507,4.600174,-0.9582908,-0.62399334,-0.2704438,-1.893373,7.486939
1747679589.1718934,4.610913,-0.77085483,-0.67426914,-0.9053409,-1.0486189,6.989461
1747679589.1724567,4.610913,-0.77085483,-0.67426914,-0.9053409,-1.0486189,6.989461
1747679589.1730158,4.610913,-0.77085483,-0.67426914,-0.9053409,-1.0486189,6.989461
1747679589.1735818,4.610913,-0.77085483,-0.67426914,-0.9053409,-1.0486189,6.989461
1747679589.1741464,4.610913,-0.77085483,-0.67426914,-0.9053409,-1.0486189,6.989461
1747679589.1746998,4.610913,-0.77085483,-0.67426914,-0.9053409,-1.0486189,6.989461
1747679589.175246,4.610913,-0.77085483,-0.67426914,-0.9053409,-1.0486189,6.989461
1747679589.175785,4.610913,-0.77085483,-0.67426914,-0.9053409,-1.0486189,6.989461
1747679589.1763325,4.338545,-0.5883,-0.6254577,-0.9053409,-1.0486189,6.989461
1747679589.1769595,4.338545,-0.5883,-0.6254577,-1.621198,-0.5415534,6.6485767
1747679589.1775217,4.338545,-0.5883,-0.6254577,-1.621198,-0.5415534,6.6485767
1747679589.1780748,4.338545,-0.5883,-0.6254577,-1.621198,-0.5415534,6.6485767
1747679589.1786256,4.338545,-0.5883,-0.6254577,-1.621198,-0.5415534,6.6485767
1747679589.179186,4.338545,-0.5883,-0.6254577,-1.621198,-0.5415534,6.6485767
1747679589.17975,4.338545,-0.5883,-0.6254577,-1.621198,-0.5415534,6.6485767
1747679589.180298,4.338545,-0.5883,-0.6254577,-1.621198,-0.5415534,6.6485767
1747679589.1808496,4.338545,-0.5883,-0.6254577,-1.621198,-0.5415534,6.6485767
1747679589.1814008,4.338545,-0.5883,-0.6254577,-1.621198,-0.5415534,6.6485767
1747679589.1819532,4.338545,-0.5883,-0.6254577,-1.621198,-0.5415534,6.6485767
1747679589.1828723,4.338545,-0.5883,-0.6254577,-1.621198,-0.5415534,6.6485767
1747679589.1834352,4.338545,-0.5883,-0.6254577,-1.621198,-0.5415534,6.6485767
1747679589.1839962,4.338545,-0.5883,-0.6254577,-1.621198,-0.5415534,6.6485767
1747679589.1845465,4.338545,-0.5883,-0.6254577,-1.621198,-0.5415534,6.6485767
1747679589.1850843,4.338545,-0.5883,-0.6254577,-1.621198,-0.5415534,6.6485767
1747679589.1856132,4.338545,-0.5883,-0.6254577,-1.621198,-0.5415534,6.6485767
1747679589.1861403,4.338545,-0.5883,-0.6254577,-1.621198,-0.5415534,6.6485767
1747679589.1866677,4.338545,-0.5883,-0.6254577,-1.621198,-0.5415534,6.6485767
1747679589.1871948,4.338545,-0.5883,-0.6254577,-1.621198,-0.5415534,6.6485767
1747679589.1877253,4.085701,-0.4404013,-0.46145123,-1.621198,-0.5415534,6.6485767
1747679589.188261,4.085701,-0.4404013,-0.46145123,-2.291249,-0.52877027,6.5899873
1747679589.1888175,4.085701,-0.4404013,-0.46145123,-2.291249,-0.52877027,6.5899873
1747679589.1893847,4.085701,-0.4404013,-0.46145123,-2.291249,-0.52877027,6.5899873
1747679589.1899328,4.085701,-0.4404013,-0.46145123,-2.291249,-0.52877027,6.5899873
1747679589.1904745,4.085701,-0.4404013,-0.46145123,-2.291249,-0.52877027,6.5899873
1747679589.1910152,4.085701,-0.4404013,-0.46145123,-2.291249,-0.52877027,6.5899873
1747679589.191553,4.085701,-0.4404013,-0.46145123,-2.291249,-0.52877027,6.5899873
1747679589.1921704,4.085701,-0.4404013,-0.46145123,-2.291249,-0.52877027,6.5899873
1747679589.1927395,4.085701,-0.4404013,-0.46145123,-2.291249,-0.52877027,6.5899873
1747679589.19329,4.085701,-0.4404013,-0.46145123,-2.291249,-0.52877027,6.5899873
1747679589.1938932,4.085701,-0.4404013,-0.46145123,-2.291249,-0.52877027,6.5899873
1747679589.1944385,4.085701,-0.4404013,-0.46145123,-2.291249,-0.52877027,6.5899873
1747679589.1949854,4.085701,-0.4404013,-0.46145123,-2.291249,-0.52877027,6.5899873
1747679589.1955297,4.085701,-0.4404013,-0.46145123,-2.291249,-0.52877027,6.5899873
1747679589.196074,4.085701,-0.4404013,-0.46145123,-2.291249,-0.52877027,6.5899873
1747679589.1966367,4.085701,-0.4404013,-0.46145123,-2.291249,-0.52877027,6.5899873
1747679589.1971862,4.085701,-0.4404013,-0.46145123,-2.291249,-0.52877027,6.5899873
1747679589.1977448,4.027616,-0.3871968,-0.22325136,-2.784466,-0.78869456,6.7220798
1747679589.1982894,4.027616,-0.3871968,-0.22325136,-2.784466,-0.78869456,6.7220798
1747679589.1988282,4.027616,-0.3871968,-0.22325136,-2.784466,-0.78869456,6.7220798
1747679589.1993742,4.027616,-0.3871968,-0.22325136,-2.784466,-0.78869456,6.7220798
1747679589.1999512,4.027616,-0.3871968,-0.22325136,-2.784466,-0.78869456,6.7220798
1747679589.2004905,4.027616,-0.3871968,-0.22325136,-2.784466,-0.78869456,6.7220798
1747679589.2010367,4.027616,-0.3871968,-0.22325136,-2.784466,-0.78869456,6.7220798
1747679589.2015674,4.027616,-0.3871968,-0.22325136,-2.784466,-0.78869456,6.7220798
1747679589.2020953,4.027616,-0.3871968,-0.22325136,-2.784466,-0.78869456,6.7220798
1747679589.2026227,4.027616,-0.3871968,-0.22325136,-2.784466,-0.78869456,6.7220798
1747679589.2031505,4.027616,-0.3871968,-0.22325136,-2.784466,-0.78869456,6.7220798
1747679589.2036865,4.027616,-0.3871968,-0.22325136,-2.784466,-0.78869456,6.7220798
1747679589.2043009,4.027616,-0.3871968,-0.22325136,-2.784466,-0.78869456,6.7220798
1747679589.2048597,4.027616,-0.3871968,-0.22325136,-2.784466,-0.78869456,6.7220798
1747679589.2054164,4.027616,-0.3871968,-0.22325136,-2.784466,-0.78869456,6.7220798
1747679589.2059674,4.027616,-0.3871968,-0.22325136,-2.784466,-0.78869456,6.7220798
1747679589.206504,4.027616,-0.3871968,-0.22325136,-2.784466,-0.78869456,6.7220798
1747679589.2070282,4.027616,-0.3871968,-0.22325136,-2.784466,-0.78869456,6.7220798
1747679589.2076743,4.027616,-0.3871968,-0.22325136,-2.784466,-0.78869456,6.7220798
1747679589.2082384,4.027616,-0.3871968,-0.22325136,-2.784466,-0.78869456,6.7220798
1747679589.2087936,4.027616,-0.3871968,-0.22325136,-2.784466,-0.78869456,6.7220798
1747679589.2093458,4.027616,-0.3871968,-0.22325136,-2.784466,-0.78869456,6.7220798
1747679589.210867,4.19211,-0.3959829,0.02519891,-2.784466,-0.78869456,6.7220798
1747679589.2114449,4.19211,-0.3959829,0.02519891,-2.784466,-0.78869456,6.7220798
1747679589.211997,4.19211,-0.3959829,0.02519891,-2.784466,-0.78869456,6.7220798
1747679589.2125385,4.19211,-0.3959829,0.02519891,-2.784466,-0.78869456,6.7220798
1747679589.2130816,4.19211,-0.3959829,0.02519891,-2.784466,-0.78869456,6.7220798
1747679589.2136483,4.19211,-0.3959829,0.02519891,-2.784466,-0.78869456,6.7220798
1747679589.214201,4.19211,-0.3959829,0.02519891,-2.784466,-0.78869456,6.7220798
1747679589.2147274,4.19211,-0.3959829,0.02519891,-2.784466,-0.78869456,6.7220798
1747679589.2152472,4.19211,-0.3959829,0.02519891,-2.784466,-0.78869456,6.7220798
1747679589.2157655,4.19211,-0.3959829,0.02519891,-2.784466,-0.78869456,6.7220798
1747679589.2162838,4.19211,-0.3959829,0.02519891,-2.784466,-0.78869456,6.7220798
1747679589.216802,4.19211,-0.3959829,0.02519891,-2.784466,-0.78869456,6.7220798
1747679589.2173202,4.19211,-0.3959829,0.02519891,-2.784466,-0.78869456,6.7220798
1747679589.2178385,4.19211,-0.3959829,0.02519891,-2.784466,-0.78869456,6.7220798
1747679589.2183588,4.19211,-0.3959829,0.02519891,-2.784466,-0.78869456,6.7220798
1747679589.2188823,4.4337273,-0.36376733,0.2682799,-3.2063105,-1.1881684,6.669882
1747679589.2194035,4.4337273,-0.36376733,0.2682799,-3.2063105,-1.1881684,6.669882
1747679589.219924,4.4337273,-0.36376733,0.2682799,-3.2063105,-1.1881684,6.669882
1747679589.2204635,4.4337273,-0.36376733,0.2682799,-3.2063105,-1.1881684,6.669882
1747679589.2210112,4.4337273,-0.36376733,0.2682799,-3.2063105,-1.1881684,6.669882
1747679589.221549,4.4337273,-0.36376733,0.2682799,-3.2063105,-1.1881684,6.669882
1747679589.2220695,4.4337273,-0.36376733,0.2682799,-3.2063105,-1.1881684,6.669882
1747679589.2225883,4.4337273,-0.36376733,0.2682799,-3.2063105,-1.1881684,6.669882
1747679589.2231424,4.4337273,-0.36376733,0.2682799,-3.2063105,-1.1881684,6.669882
1747679589.2237434,4.4337273,-0.36376733,0.2682799,-3.2063105,-1.1881684,6.669882
1747679589.2243683,4.4337273,-0.36376733,0.2682799,-3.2063105,-1.1881684,6.669882
1747679589.2249026,4.4337273,-0.36376733,0.2682799,-3.2063105,-1.1881684,6.669882
1747679589.2254307,4.4337273,-0.36376733,0.2682799,-3.2063105,-1.1881684,6.669882
1747679589.2259579,4.4337273,-0.36376733,0.2682799,-3.2063105,-1.1881684,6.669882
1747679589.226483,4.4337273,-0.36376733,0.2682799,-3.2063105,-1.1881684,6.669882
1747679589.2270088,4.4337273,-0.36376733,0.2682799,-3.2063105,-1.1881684,6.669882
1747679589.2275403,4.5113373,-0.2885977,0.55577934,-3.208441,-1.0400968,6.3076925
1747679589.2280679,4.5113373,-0.2885977,0.55577934,-3.208441,-1.0400968,6.3076925
1747679589.2285933,4.5113373,-0.2885977,0.55577934,-3.208441,-1.0400968,6.3076925
1747679589.2291207,4.5113373,-0.2885977,0.55577934,-3.208441,-1.0400968,6.3076925
1747679589.2296484,4.5113373,-0.2885977,0.55577934,-3.208441,-1.0400968,6.3076925
1747679589.2301755,4.5113373,-0.2885977,0.55577934,-3.208441,-1.0400968,6.3076925
1747679589.2307029,4.5113373,-0.2885977,0.55577934,-3.208441,-1.0400968,6.3076925
1747679589.2312279,4.5113373,-0.2885977,0.55577934,-3.208441,-1.0400968,6.3076925
1747679589.231755,4.5113373,-0.2885977,0.55577934,-3.208441,-1.0400968,6.3076925
1747679589.2322824,4.5113373,-0.2885977,0.55577934,-3.208441,-1.0400968,6.3076925
1747679589.2328095,4.5113373,-0.2885977,0.55577934,-3.208441,-1.0400968,6.3076925
1747679589.2333362,4.5113373,-0.2885977,0.55577934,-3.208441,-1.0400968,6.3076925
1747679589.2338717,4.5113373,-0.2885977,0.55577934,-3.208441,-1.0400968,6.3076925
1747679589.2344117,4.5113373,-0.2885977,0.55577934,-3.208441,-1.0400968,6.3076925
1747679589.2349405,4.5113373,-0.2885977,0.55577934,-3.208441,-1.0400968,6.3076925
1747679589.235472,4.5113373,-0.2885977,0.55577934,-3.208441,-1.0400968,6.3076925
1747679589.2360318,4.5113373,-0.2885977,0.55577934,-3.208441,-1.0400968,6.3076925
1747679589.2365837,4.5113373,-0.2885977,0.55577934,-3.208441,-1.0400968,6.3076925
1747679589.2371223,4.5113373,-0.2885977,0.55577934,-3.208441,-1.0400968,6.3076925
1747679589.2377636,4.5113373,-0.2885977,0.55577934,-3.208441,-1.0400968,6.3076925
1747679589.2383592,4.5113373,-0.2885977,0.55577934,-3.208441,-1.0400968,6.3076925
1747679589.2389078,4.5113373,-0.2885977,0.55577934,-3.208441,-1.0400968,6.3076925
1747679589.2394514,4.5113373,-0.2885977,0.55577934,-3.208441,-1.0400968,6.3076925
1747679589.2399917,4.4454417,-0.18511742,0.92137706,-3.0039103,-0.78336823,5.8794565
1747679589.2405167,4.4454417,-0.18511742,0.92137706,-3.0039103,-0.78336823,5.8794565
1747679589.241039,4.4454417,-0.18511742,0.92137706,-3.0039103,-0.78336823,5.8794565
1747679589.241562,4.4454417,-0.18511742,0.92137706,-3.0039103,-0.78336823,5.8794565
1747679589.2427783,4.4454417,-0.18511742,0.92137706,-3.0039103,-0.78336823,5.8794565
1747679589.2433507,4.4454417,-0.18511742,0.92137706,-3.0039103,-0.78336823,5.8794565
1747679589.2438986,4.4454417,-0.18511742,0.92137706,-3.0039103,-0.78336823,5.8794565
1747679589.2444503,4.4454417,-0.18511742,0.92137706,-3.0039103,-0.78336823,5.8794565
1747679589.2450094,4.4454417,-0.18511742,0.92137706,-3.0039103,-0.78336823,5.8794565
1747679589.2455533,4.4454417,-0.18511742,0.92137706,-3.0039103,-0.78336823,5.8794565
1747679589.2460895,4.4454417,-0.18511742,0.92137706,-3.0039103,-0.78336823,5.8794565
1747679589.2466292,4.4454417,-0.18511742,0.92137706,-3.0039103,-0.78336823,5.8794565
1747679589.2471678,4.4454417,-0.18511742,0.92137706,-3.0039103,-0.78336823,5.8794565
1747679589.2477064,4.4454417,-0.18511742,0.92137706,-3.0039103,-0.78336823,5.8794565
1747679589.248245,4.4454417,-0.18511742,0.92137706,-3.0039103,-0.78336823,5.8794565
1747679589.2487838,4.4454417,-0.18511742,0.92137706,-3.0039103,-0.78336823,5.8794565
1747679589.249322,4.4454417,-0.18511742,0.92137706,-3.0039103,-0.78336823,5.8794565
1747679589.2499244,4.4454417,-0.18511742,0.92137706,-3.0039103,-0.78336823,5.8794565
1747679589.250476,4.3151155,-0.06699371,1.2376753,-2.606567,-0.6800377,5.5598774
1747679589.2510421,4.3151155,-0.06699371,1.2376753,-2.606567,-0.6800377,5.5598774
1747679589.2516048,4.3151155,-0.06699371,1.2376753,-2.606567,-0.6800377,5.5598774
1747679589.2521565,4.3151155,-0.06699371,1.2376753,-2.606567,-0.6800377,5.5598774
1747679589.252699,4.3151155,-0.06699371,1.2376753,-2.606567,-0.6800377,5.5598774
1747679589.253238,4.3151155,-0.06699371,1.2376753,-2.606567,-0.6800377,5.5598774
1747679589.2538202,4.3151155,-0.06699371,1.2376753,-2.606567,-0.6800377,5.5598774
1747679589.2543795,4.3151155,-0.06699371,1.2376753,-2.606567,-0.6800377,5.5598774
1747679589.2549195,4.3151155,-0.06699371,1.2376753,-2.606567,-0.6800377,5.5598774
1747679589.2554579,4.3151155,-0.06699371,1.2376753,-2.606567,-0.6800377,5.5598774
1747679589.255994,4.3151155,-0.06699371,1.2376753,-2.606567,-0.6800377,5.5598774
1747679589.256517,4.3151155,-0.06699371,1.2376753,-2.606567,-0.6800377,5.5598774
1747679589.2570384,4.3151155,-0.06699371,1.2376753,-2.606567,-0.6800377,5.5598774
1747679589.2575595,4.3151155,-0.06699371,1.2376753,-2.606567,-0.6800377,5.5598774
1747679589.2580807,4.3151155,-0.06699371,1.2376753,-2.606567,-0.6800377,5.5598774
1747679589.2586017,4.3151155,-0.06699371,1.2376753,-2.606567,-0.6800377,5.5598774
1747679589.2591226,4.3151155,-0.06699371,1.2376753,-2.606567,-0.6800377,5.5598774
1747679589.2596438,4.3151155,-0.06699371,1.2376753,-2.606567,-0.6800377,5.5598774
1747679589.260165,4.3151155,-0.06699371,1.2376753,-2.606567,-0.6800377,5.5598774
1747679589.2606862,4.3151155,-0.06699371,1.2376753,-2.606567,-0.6800377,5.5598774
1747679589.2612126,4.3151155,-0.06699371,1.2376753,-2.606567,-0.6800377,5.5598774
1747679589.261737,4.3151155,-0.06699371,1.2376753,-2.606567,-0.6800377,5.5598774
1747679589.2622712,4.3151155,-0.06699371,1.2376753,-2.606567,-0.6800377,5.5598774
1747679589.2628186,4.3151155,-0.06699371,1.2376753,-2.606567,-0.6800377,5.5598774
1747679589.263339,4.3151155,-0.06699371,1.2376753,-2.606567,-0.6800377,5.5598774
1747679589.263866,4.1227984,0.132157,1.5539736,-1.7852488,-0.8057388,5.2786474
1747679589.2643938,4.1227984,0.132157,1.5539736,-1.7852488,-0.8057388,5.2786474
1747679589.264915,4.1227984,0.132157,1.5539736,-1.7852488,-0.8057388,5.2786474
1747679589.2654335,4.1227984,0.132157,1.5539736,-1.7852488,-0.8057388,5.2786474
1747679589.265953,4.1227984,0.132157,1.5539736,-1.7852488,-0.8057388,5.2786474
1747679589.2664714,4.1227984,0.132157,1.5539736,-1.7852488,-0.8057388,5.2786474
1747679589.2669923,4.1227984,0.132157,1.5539736,-1.7852488,-0.8057388,5.2786474
1747679589.267547,4.1227984,0.132157,1.5539736,-1.7852488,-0.8057388,5.2786474
1747679589.2680857,4.1227984,0.132157,1.5539736,-1.7852488,-0.8057388,5.2786474
1747679589.268655,4.1227984,0.132157,1.5539736,-1.7852488,-0.8057388,5.2786474
1747679589.2692347,4.1227984,0.132157,1.5539736,-1.7852488,-0.8057388,5.2786474
1747679589.2697802,4.1227984,0.132157,1.5539736,-1.7852488,-0.8057388,5.2786474
1747679589.270317,4.1227984,0.132157,1.5539736,-1.7852488,-0.8057388,5.2786474
1747679589.2708397,4.1227984,0.132157,1.5539736,-1.7852488,-0.8057388,5.2786474
1747679589.2713926,4.1227984,0.132157,1.5539736,-1.7852488,-0.8057388,5.2786474
1747679589.2719827,4.1227984,0.132157,1.5539736,-1.7852488,-0.8057388,5.2786474
1747679589.272535,4.1227984,0.132157,1.5539736,-1.7852488,-0.8057388,5.2786474
1747679589.2730737,4.1227984,0.132157,1.5539736,-1.7852488,-0.8057388,5.2786474
1747679589.2736087,4.1227984,0.132157,1.5539736,-1.7852488,-0.8057388,5.2786474
1747679589.2741408,3.9670894,0.41379908,1.5954633,-0.5154545,-1.081642,5.1231194
1747679589.27467,3.9670894,0.41379908,1.5954633,-0.5154545,-1.081642,5.1231194
1747679589.2751904,3.9670894,0.41379908,1.5954633,-0.5154545,-1.081642,5.1231194
1747679589.2757087,3.9670894,0.41379908,1.5954633,-0.5154545,-1.081642,5.1231194
1747679589.276227,3.9670894,0.41379908,1.5954633,-0.5154545,-1.081642,5.1231194
1747679589.2767456,3.9934478,0.62515265,1.2801412,-0.5154545,-1.081642,5.1231194
1747679589.2772644,3.9934478,0.62515265,1.2801412,0.43049967,-1.287238,4.9878306
1747679589.2777827,3.9934478,0.62515265,1.2801412,0.43049967,-1.287238,4.9878306
1747679589.2783012,3.9934478,0.62515265,1.2801412,0.43049967,-1.287238,4.9878306
1747679589.2788196,3.9934478,0.62515265,1.2801412,0.43049967,-1.287238,4.9878306
1747679589.2793376,3.9934478,0.62515265,1.2801412,0.43049967,-1.287238,4.9878306
1747679589.279856,3.9934478,0.62515265,1.2801412,0.43049967,-1.287238,4.9878306
1747679589.2803738,3.9934478,0.62515265,1.2801412,0.43049967,-1.287238,4.9878306
1747679589.280892,3.9934478,0.62515265,1.2801412,0.43049967,-1.287238,4.9878306
1747679589.28141,3.9934478,0.62515265,1.2801412,0.43049967,-1.287238,4.9878306
1747679589.281931,3.9934478,0.62515265,1.2801412,0.43049967,-1.287238,4.9878306
1747679589.2824855,3.9934478,0.62515265,1.2801412,0.43049967,-1.287238,4.9878306
1747679589.2830381,3.9934478,0.62515265,1.2801412,0.43049967,-1.287238,4.9878306
1747679589.283606,3.9934478,0.62515265,1.2801412,0.43049967,-1.287238,4.9878306
1747679589.2841613,3.9934478,0.62515265,1.2801412,0.43049967,-1.287238,4.9878306
1747679589.2846975,3.9934478,0.62515265,1.2801412,0.43049967,-1.287238,4.9878306
1747679589.285221,3.9934478,0.62515265,1.2801412,0.43049967,-1.287238,4.9878306
1747679589.2857428,3.9934478,0.62515265,1.2801412,0.43049967,-1.287238,4.9878306
1747679589.2862654,3.9934478,0.62515265,1.2801412,0.43049967,-1.287238,4.9878306
1747679589.286787,3.9934478,0.62515265,1.2801412,0.43049967,-1.287238,4.9878306
1747679589.2873094,3.9934478,0.62515265,1.2801412,0.43049967,-1.287238,4.9878306
1747679589.2878294,4.0778913,0.84529227,0.7939792,1.0078726,-1.3895032,4.645881
1747679589.2883482,4.0778913,0.84529227,0.7939792,1.0078726,-1.3895032,4.645881
1747679589.2888668,4.0778913,0.84529227,0.7939792,1.0078726,-1.3895032,4.645881
1747679589.289386,4.0778913,0.84529227,0.7939792,1.0078726,-1.3895032,4.645881
1747679589.2899044,4.0778913,0.84529227,0.7939792,1.0078726,-1.3895032,4.645881
1747679589.2904227,4.0778913,0.84529227,0.7939792,1.0078726,-1.3895032,4.645881
1747679589.2909412,4.0778913,0.84529227,0.7939792,1.0078726,-1.3895032,4.645881
1747679589.2914593,4.0778913,0.84529227,0.7939792,1.0078726,-1.3895032,4.645881
1747679589.2919774,4.0778913,0.84529227,0.7939792,1.0078726,-1.3895032,4.645881
1747679589.2924964,4.0778913,0.84529227,0.7939792,1.0078726,-1.3895032,4.645881
1747679589.2930143,4.0778913,0.84529227,0.7939792,1.0078726,-1.3895032,4.645881
1747679589.2935326,4.0778913,0.84529227,0.7939792,1.0078726,-1.3895032,4.645881
1747679589.294062,4.0778913,0.84529227,0.7939792,1.0078726,-1.3895032,4.645881
1747679589.294603,4.0778913,0.84529227,0.7939792,1.0078726,-1.3895032,4.645881
1747679589.2951283,4.0778913,0.84529227,0.7939792,1.0078726,-1.3895032,4.645881
1747679589.2956471,4.0778913,0.84529227,0.7939792,1.0078726,-1.3895032,4.645881
1747679589.2961657,4.0778913,0.84529227,0.7939792,1.0078726,-1.3895032,4.645881
1747679589.2966838,4.0778913,0.84529227,0.7939792,1.0078726,-1.3895032,4.645881
1747679589.2972057,4.046652,1.061527,0.26974428,1.122921,-1.2073432,4.123902
1747679589.2977493,4.046652,1.061527,0.26974428,1.122921,-1.2073432,4.123902
1747679589.2982924,4.046652,1.061527,0.26974428,1.122921,-1.2073432,4.123902
1747679589.2992156,4.046652,1.061527,0.26974428,1.122921,-1.2073432,4.123902
1747679589.2997704,4.046652,1.061527,0.26974428,1.122921,-1.2073432,4.123902
1747679589.3003073,4.046652,1.061527,0.26974428,1.122921,-1.2073432,4.123902
1747679589.3009098,4.046652,1.061527,0.26974428,1.122921,-1.2073432,4.123902
1747679589.3014586,4.046652,1.061527,0.26974428,1.122921,-1.2073432,4.123902
1747679589.3019915,4.046652,1.061527,0.26974428,1.122921,-1.2073432,4.123902
1747679589.3025112,4.046652,1.061527,0.26974428,1.122921,-1.2073432,4.123902
1747679589.3030298,4.046652,1.061527,0.26974428,1.122921,-1.2073432,4.123902
1747679589.3035483,4.046652,1.061527,0.26974428,1.122921,-1.2073432,4.123902
1747679589.304067,4.046652,1.061527,0.26974428,1.122921,-1.2073432,4.123902
1747679589.3046005,4.046652,1.061527,0.26974428,1.122921,-1.2073432,4.123902
1747679589.3051422,4.046652,1.061527,0.26974428,1.122921,-1.2073432,4.123902
1747679589.305668,4.046652,1.061527,0.26974428,1.122921,-1.2073432,4.123902
1747679589.306187,4.046652,1.061527,0.26974428,1.122921,-1.2073432,4.123902
1747679589.3067064,4.046652,1.061527,0.26974428,1.122921,-1.2073432,4.123902
1747679589.3072248,4.046652,1.061527,0.26974428,1.122921,-1.2073432,4.123902
1747679589.3077464,3.7713559,1.240665,-0.20128621,0.7894935,-0.843023,3.5326805
1747679589.308265,3.7713559,1.240665,-0.20128621,0.7894935,-0.843023,3.5326805
1747679589.3087833,3.7713559,1.240665,-0.20128621,0.7894935,-0.843023,3.5326805
1747679589.3093019,3.7713559,1.240665,-0.20128621,0.7894935,-0.843023,3.5326805
1747679589.30982,3.7713559,1.240665,-0.20128621,0.7894935,-0.843023,3.5326805
1747679589.3103387,3.7713559,1.240665,-0.20128621,0.7894935,-0.843023,3.5326805
1747679589.3108573,3.7713559,1.240665,-0.20128621,0.7894935,-0.843023,3.5326805
1747679589.3113756,3.7713559,1.240665,-0.20128621,0.7894935,-0.843023,3.5326805
1747679589.3118937,3.7713559,1.240665,-0.20128621,0.7894935,-0.843023,3.5326805
1747679589.3124123,3.7713559,1.240665,-0.20128621,0.7894935,-0.843023,3.5326805
1747679589.312934,3.7713559,1.240665,-0.20128621,0.7894935,-0.843023,3.5326805
1747679589.3134875,3.7713559,1.240665,-0.20128621,0.7894935,-0.843023,3.5326805
1747679589.3140612,3.7713559,1.240665,-0.20128621,0.7894935,-0.843023,3.5326805
1747679589.3146117,3.7713559,1.240665,-0.20128621,0.7894935,-0.843023,3.5326805
1747679589.3151374,3.7713559,1.240665,-0.20128621,0.7894935,-0.843023,3.5326805
1747679589.3156562,3.7713559,1.240665,-0.20128621,0.7894935,-0.843023,3.5326805
1747679589.3161745,3.7713559,1.240665,-0.20128621,0.7894935,-0.843023,3.5326805
1747679589.3166997,3.7713559,1.240665,-0.20128621,0.7894935,-0.843023,3.5326805
1747679589.3172212,3.7713559,1.240665,-0.20128621,0.7894935,-0.843023,3.5326805
1747679589.317741,3.3183856,1.3495145,-0.51807255,0.098137416,-0.49681234,3.0746171
1747679589.3182597,3.3183856,1.3495145,-0.51807255,0.098137416,-0.49681234,3.0746171
1747679589.318778,3.3183856,1.3495145,-0.51807255,0.098137416,-0.49681234,3.0746171
1747679589.319296,3.3183856,1.3495145,-0.51807255,0.098137416,-0.49681234,3.0746171
1747679589.3198144,3.3183856,1.3495145,-0.51807255,0.098137416,-0.49681234,3.0746171
1747679589.3203325,3.3183856,1.3495145,-0.51807255,0.098137416,-0.49681234,3.0746171
1747679589.3208508,3.3183856,1.3495145,-0.51807255,0.098137416,-0.49681234,3.0746171
1747679589.3213694,3.3183856,1.3495145,-0.51807255,0.098137416,-0.49681234,3.0746171
1747679589.3218875,3.3183856,1.3495145,-0.51807255,0.098137416,-0.49681234,3.0746171
1747679589.3224058,3.3183856,1.3495145,-0.51807255,0.098137416,-0.49681234,3.0746171
1747679589.3229241,3.3183856,1.3495145,-0.51807255,0.098137416,-0.49681234,3.0746171
1747679589.3234422,3.3183856,1.3495145,-0.51807255,0.098137416,-0.49681234,3.0746171
1747679589.3239877,3.3183856,1.3495145,-0.51807255,0.098137416,-0.49681234,3.0746171
1747679589.324516,3.3183856,1.3495145,-0.51807255,0.098137416,-0.49681234,3.0746171
1747679589.3250535,3.3183856,1.3495145,-0.51807255,0.098137416,-0.49681234,3.0746171
1747679589.3255749,3.3183856,1.3495145,-0.51807255,0.098137416,-0.49681234,3.0746171
1747679589.326094,3.3183856,1.3495145,-0.51807255,0.098137416,-0.49681234,3.0746171
1747679589.3266122,3.3183856,1.3495145,-0.51807255,0.098137416,-0.49681234,3.0746171
1747679589.3271308,3.3183856,1.3495145,-0.51807255,0.098137416,-0.49681234,3.0746171
1747679589.327649,3.3183856,1.3495145,-0.51807255,0.098137416,-0.49681234,3.0746171
1747679589.3281674,3.3183856,1.3495145,-0.51807255,0.098137416,-0.49681234,3.0746171
