timestamp,acc_x,acc_y,acc_z,gyro_x,gyro_y,gyro_z
1747679553.724292,-0.35906923,0.9517012,-0.22227512,0.2451438,-0.30932593,-0.07962846
1747679553.7249334,-0.35906923,0.9517012,-0.22227512,0.2451438,-0.30932593,-0.07962846
1747679553.725498,-0.35906923,0.9517012,-0.22227512,0.2451438,-0.30932593,-0.07962846
1747679553.7260575,-0.35906923,0.9517012,-0.22227512,0.2451438,-0.30932593,-0.07962846
1747679553.7266507,-0.35906923,0.9517012,-0.22227512,0.2451438,-0.30932593,-0.07962846
1747679553.7272043,-0.35906923,0.9517012,-0.22227512,0.2451438,-0.30932593,-0.07962846
1747679553.7277606,-0.35906923,0.9517012,-0.22227512,0.2451438,-0.30932593,-0.07962846
1747679553.728321,-0.45913267,0.9238787,-0.2510739,0.2451438,-0.30932593,-0.07962846
1747679553.728882,-0.45913267,0.9238787,-0.2510739,0.2451438,-0.30932593,-0.07962846
1747679553.7294457,-0.45913267,0.9238787,-0.2510739,0.2451438,-0.30932593,-0.07962846
1747679553.729998,-0.42057166,0.93120044,-0.19005957,-0.07443529,-0.27630275,0.19947061
1747679553.7305436,-0.42057166,0.93120044,-0.19005957,-0.07443529,-0.27630275,0.19947061
1747679553.7310808,-0.42057166,0.93120044,-0.19005957,-0.07443529,-0.27630275,0.19947061
1747679553.7316055,-0.42057166,0.93120044,-0.19005957,-0.07443529,-0.27630275,0.19947061
1747679553.7321274,-0.42057166,0.93120044,-0.19005957,-0.07443529,-0.27630275,0.19947061
1747679553.7326493,-0.42057166,0.93120044,-0.19005957,-0.07443529,-0.27630275,0.19947061
1747679553.7331712,-0.42057166,0.93120044,-0.19005957,-0.07443529,-0.27630275,0.19947061
1747679553.7337065,-0.42057166,0.93120044,-0.19005957,-0.07443529,-0.27630275,0.19947061
1747679553.734244,-0.42057166,0.93120044,-0.19005957,-0.07443529,-0.27630275,0.19947061
1747679553.734774,-0.42057166,0.93120044,-0.19005957,-0.07443529,-0.27630275,0.19947061
1747679553.7360306,-0.42057166,0.93120044,-0.19005957,-0.07443529,-0.27630275,0.19947061
1747679553.7365978,-0.42057166,0.93120044,-0.19005957,-0.07443529,-0.27630275,0.19947061
1747679553.7371607,-0.42057166,0.93120044,-0.19005957,-0.07443529,-0.27630275,0.19947061
1747679553.7377255,-0.42057166,0.93120044,-0.19005957,-0.07443529,-0.27630275,0.19947061
1747679553.7382848,-0.42057166,0.93120044,-0.19005957,-0.07443529,-0.27630275,0.19947061
1747679553.738844,-0.42057166,0.93120044,-0.19005957,-0.15006901,-0.19853851,0.269778
1747679553.7394125,-0.42057166,0.93120044,-0.19005957,-0.15006901,-0.19853851,0.269778
1747679553.7400165,-0.24192174,0.9473082,-0.12904526,-0.15006901,-0.19853851,0.269778
1747679553.740588,-0.24192174,0.9473082,-0.12904526,-0.15006901,-0.19853851,0.269778
1747679553.7412016,-0.24192174,0.9473082,-0.12904526,-0.15006901,-0.19853851,0.269778
1747679553.7418296,-0.24192174,0.9473082,-0.12904526,-0.15006901,-0.19853851,0.269778
1747679553.743696,-0.24192174,0.9473082,-0.12904526,-0.15006901,-0.19853851,0.269778
1747679553.7443974,-0.24192174,0.9473082,-0.12904526,-0.15006901,-0.19853851,0.269778
1747679553.745739,-0.24192174,0.9473082,-0.12904526,-0.15006901,-0.19853851,0.269778
1747679553.7464786,-0.24192174,0.9473082,-0.12904526,-0.15006901,-0.19853851,0.269778
1747679553.747093,-0.24192174,0.9473082,-0.12904526,-0.15006901,-0.19853851,0.269778
1747679553.7476475,-0.24192174,0.9473082,-0.12904526,-0.15006901,-0.19853851,0.269778
1747679553.7482836,0.041672774,0.94974875,-0.0358154,-0.15006901,-0.19853851,0.269778
1747679553.7488382,0.041672774,0.94974875,-0.0358154,-0.15006901,-0.19853851,0.269778
1747679553.749386,0.041672774,0.94974875,-0.0358154,-0.15006901,-0.19853851,0.269778
1747679553.7500436,0.041672774,0.94974875,-0.0358154,-0.1798964,0.07097319,0.112119
1747679553.7506158,0.041672774,0.94974875,-0.0358154,-0.1798964,0.07097319,0.112119
1747679553.7513928,0.041672774,0.94974875,-0.0358154,-0.1798964,0.07097319,0.112119
1747679553.751999,0.041672774,0.94974875,-0.0358154,-0.1798964,0.07097319,0.112119
1747679553.7525563,0.041672774,0.94974875,-0.0358154,-0.1798964,0.07097319,0.112119
1747679553.753219,0.041672774,0.94974875,-0.0358154,-0.1798964,0.07097319,0.112119
1747679553.7546742,0.041672774,0.94974875,-0.0358154,-0.1798964,0.07097319,0.112119
1747679553.755614,0.041672774,0.94974875,-0.0358154,-0.1798964,0.07097319,0.112119
1747679553.756291,0.041672774,0.94974875,-0.0358154,-0.1798964,0.07097319,0.112119
1747679553.7584128,0.041672774,0.94974875,-0.0358154,-0.1798964,0.07097319,0.112119
1747679553.7727563,0.012385906,1.0097868,0.08572511,0.054461602,-0.014247901,-0.23302642
1747679553.7733634,0.012385906,1.0097868,0.08572511,0.054461602,-0.014247901,-0.23302642
1747679553.7742252,0.012385906,1.0097868,0.08572511,0.054461602,-0.014247901,-0.23302642
1747679553.7748544,0.012385906,1.0097868,0.08572511,0.054461602,-0.014247901,-0.23302642
1747679553.7755277,0.012385906,1.0097868,0.08572511,0.054461602,-0.014247901,-0.23302642
1747679553.7760913,0.012385906,1.0097868,0.08572511,0.054461602,-0.014247901,-0.23302642
1747679553.776652,0.012385906,1.0097868,0.08572511,0.054461602,-0.014247901,-0.23302642
1747679553.7772202,0.012385906,1.0097868,0.08572511,0.054461602,-0.014247901,-0.23302642
1747679553.7777717,0.012385906,1.0097868,0.08572511,0.054461602,-0.014247901,-0.23302642
1747679553.7783237,0.012385906,1.0097868,0.08572511,0.054461602,-0.014247901,-0.23302642
1747679553.779941,-0.08084396,0.9619516,0.16382343,0.2515354,-0.053662658,-0.3619233
1747679553.780673,-0.08084396,0.9619516,0.16382343,0.2515354,-0.053662658,-0.3619233
1747679553.7818477,-0.08084396,0.9619516,0.16382343,0.2515354,-0.053662658,-0.3619233
1747679553.786391,-0.08084396,0.9619516,0.16382343,0.2515354,-0.053662658,-0.3619233
1747679553.7873325,-0.08084396,0.9619516,0.16382343,0.2515354,-0.053662658,-0.3619233
1747679553.7918284,-0.22288527,0.96780896,0.18139556,0.2515354,-0.053662658,-0.3619233
1747679553.7924013,-0.22288527,0.96780896,0.18139556,0.2515354,-0.053662658,-0.3619233
1747679553.792949,-0.22288527,0.96780896,0.18139556,0.2515354,-0.053662658,-0.3619233
1747679553.7939963,-0.22288527,0.96780896,0.18139556,0.44647864,-0.14953639,-0.3448791
1747679553.796273,-0.22288527,0.96780896,0.18139556,0.44647864,-0.14953639,-0.3448791
1747679553.796934,-0.22288527,0.96780896,0.18139556,0.44647864,-0.14953639,-0.3448791
1747679553.7974956,-0.22288527,0.96780896,0.18139556,0.44647864,-0.14953639,-0.3448791
1747679553.8013995,-0.22288527,0.96780896,0.18139556,0.44647864,-0.14953639,-0.3448791
1747679553.8021102,-0.22288527,0.96780896,0.18139556,0.44647864,-0.14953639,-0.3448791
1747679553.8026736,-0.22288527,0.96780896,0.18139556,0.6787061,-0.45846283,-0.17550218
1747679553.8032327,-0.43082207,0.9541418,0.13063164,0.6787061,-0.45846283,-0.17550218
1747679553.8037915,-0.43082207,0.9541418,0.13063164,0.6787061,-0.45846283,-0.17550218
1747679553.8044667,-0.43082207,0.9541418,0.13063164,0.6787061,-0.45846283,-0.17550218
1747679553.805046,-0.43082207,0.9541418,0.13063164,0.6787061,-0.45846283,-0.17550218
1747679553.8056345,-0.43082207,0.9541418,0.13063164,0.6787061,-0.45846283,-0.17550218
1747679553.8061938,-0.43082207,0.9541418,0.13063164,0.6787061,-0.45846283,-0.17550218
1747679553.8067439,-0.43082207,0.9541418,0.13063164,0.6787061,-0.45846283,-0.17550218
1747679553.8072896,-0.43082207,0.9541418,0.13063164,0.6787061,-0.45846283,-0.17550218
1747679553.8078349,-0.43082207,0.9541418,0.13063164,0.6787061,-0.45846283,-0.17550218
1747679553.8083925,-0.43082207,0.9541418,0.13063164,0.6787061,-0.45846283,-0.17550218
1747679553.8089545,-0.43082207,0.9541418,0.13063164,0.6787061,-0.45846283,-0.17550218
1747679553.8095133,-0.43082207,0.9541418,0.13063164,0.6787061,-0.45846283,-0.17550218
1747679553.810072,-0.43082207,0.9541418,0.13063164,0.6787061,-0.45846283,-0.17550218
1747679553.8106346,-0.43082207,0.9541418,0.13063164,0.6787061,-0.45846283,-0.17550218
1747679553.8111966,-0.43082207,0.9541418,0.13063164,0.6787061,-0.45846283,-0.17550218
1747679553.8117561,-0.43082207,0.9541418,0.13063164,0.6787061,-0.45846283,-0.17550218
1747679553.8123868,-0.43082207,0.9541418,0.13063164,0.6787061,-0.45846283,-0.17550218
1747679553.812972,-0.43082207,0.9541418,0.13063164,0.6787061,-0.45846283,-0.17550218
1747679553.8142326,-0.43082207,0.9541418,0.13063164,0.6787061,-0.45846283,-0.17550218
1747679553.8149648,-0.43082207,0.9541418,0.13063164,0.6787061,-0.45846283,-0.17550218
1747679553.8155205,-0.43082207,0.9541418,0.13063164,0.6787061,-0.45846283,-0.17550218
1747679553.8160646,-0.43082207,0.9541418,0.13063164,0.6787061,-0.45846283,-0.17550218
1747679553.8166156,-0.43082207,0.9541418,0.13063164,0.6787061,-0.45846283,-0.17550218
1747679553.8171692,-0.43082207,0.9541418,0.13063164,0.6787061,-0.45846283,-0.17550218
1747679553.8177419,-0.43082207,0.9541418,0.13063164,0.6787061,-0.45846283,-0.17550218
1747679553.8182945,-0.43082207,0.9541418,0.13063164,0.6787061,-0.45846283,-0.17550218
1747679553.8188503,-0.43082207,0.9541418,0.13063164,0.6787061,-0.45846283,-0.17550218
1747679553.8196287,-0.43082207,0.9541418,0.13063164,0.6787061,-0.45846283,-0.17550218
1747679553.820195,-0.43082207,0.9541418,0.13063164,0.6787061,-0.45846283,-0.17550218
1747679553.820755,-0.43082207,0.9541418,0.13063164,0.6787061,-0.45846283,-0.17550218
1747679553.8213418,-0.43082207,0.9541418,0.13063164,0.6787061,-0.45846283,-0.17550218
1747679553.821986,-0.43082207,0.9541418,0.13063164,0.6787061,-0.45846283,-0.17550218
1747679553.8232708,-0.43082207,0.9541418,0.13063164,0.6787061,-0.45846283,-0.17550218
1747679553.8238459,-0.43082207,0.9541418,0.13063164,0.6787061,-0.45846283,-0.17550218
1747679553.8244462,-0.43082207,0.9541418,0.13063164,0.6787061,-0.45846283,-0.17550218
1747679553.8250127,-0.43082207,0.9541418,0.13063164,0.6787061,-0.45846283,-0.17550218
1747679553.8256154,-0.43082207,0.9541418,0.13063164,0.6787061,-0.45846283,-0.17550218
1747679553.8261752,-0.43082207,0.9541418,0.13063164,0.6787061,-0.45846283,-0.17550218
1747679553.8267374,-0.43082207,0.9541418,0.13063164,0.6787061,-0.45846283,-0.17550218
1747679553.827299,-0.43082207,0.9541418,0.13063164,0.6787061,-0.45846283,-0.17550218
1747679553.8278675,-0.43082207,0.9541418,0.13063164,0.6787061,-0.45846283,-0.17550218
1747679553.828427,-0.43082207,0.9541418,0.13063164,0.6787061,-0.45846283,-0.17550218
1747679553.828989,-0.43082207,0.9541418,0.13063164,0.6787061,-0.45846283,-0.17550218
1747679553.8295434,-0.43082207,0.9541418,0.13063164,0.6787061,-0.45846283,-0.17550218
1747679553.8300982,-0.43082207,0.9541418,0.13063164,0.6787061,-0.45846283,-0.17550218
1747679553.8306346,-0.43082207,0.9541418,0.13063164,0.6787061,-0.45846283,-0.17550218
1747679553.8311777,-0.43082207,0.9541418,0.13063164,0.6787061,-0.45846283,-0.17550218
1747679553.831711,-0.43082207,0.9541418,0.13063164,0.6787061,-0.45846283,-0.17550218
1747679553.832239,-0.43082207,0.9541418,0.13063164,0.6787061,-0.45846283,-0.17550218
1747679553.8327723,-0.40592822,1.0010009,-0.087555535,0.75114405,-0.6406229,0.05779055
1747679553.8333027,-0.40592822,1.0010009,-0.087555535,0.75114405,-0.6406229,0.05779055
1747679553.833857,-0.40592822,1.0010009,-0.087555535,0.29308066,-0.32317436,0.20692746
1747679553.8344462,-0.40592822,1.0010009,-0.087555535,0.29308066,-0.32317436,0.20692746
1747679553.8350306,-0.40592822,1.0010009,-0.087555535,0.29308066,-0.32317436,0.20692746
1747679553.8356018,-0.40592822,1.0010009,-0.087555535,0.29308066,-0.32317436,0.20692746
1747679553.8361623,-0.40592822,1.0010009,-0.087555535,0.29308066,-0.32317436,0.20692746
1747679553.8367043,-0.40592822,1.0010009,-0.087555535,0.29308066,-0.32317436,0.20692746
1747679553.8372395,-0.40592822,1.0010009,-0.087555535,0.29308066,-0.32317436,0.20692746
1747679553.837776,-0.40592822,1.0010009,-0.087555535,0.29308066,-0.32317436,0.20692746
1747679553.8383102,-0.40592822,1.0010009,-0.087555535,0.29308066,-0.32317436,0.20692746
1747679553.8388448,-0.40592822,1.0010009,-0.087555535,0.29308066,-0.32317436,0.20692746
1747679553.839378,-0.40592822,1.0010009,-0.087555535,0.29308066,-0.32317436,0.20692746
1747679553.8399115,-0.40592822,1.0010009,-0.087555535,0.29308066,-0.32317436,0.20692746
1747679553.840445,-0.40592822,1.0010009,-0.087555535,0.29308066,-0.32317436,0.20692746
1747679553.840978,-0.40592822,1.0010009,-0.087555535,0.29308066,-0.32317436,0.20692746
1747679553.8415115,-0.40592822,1.0010009,-0.087555535,0.29308066,-0.32317436,0.20692746
1747679553.8420446,-0.40592822,1.0010009,-0.087555535,0.29308066,-0.32317436,0.20692746
1747679553.8425777,-0.40592822,1.0010009,-0.087555535,0.29308066,-0.32317436,0.20692746
1747679553.843114,-0.18188366,0.97757137,-0.36773324,-0.07976162,-0.22197431,0.2026664
1747679553.8436472,-0.18188366,0.97757137,-0.36773324,-0.07976162,-0.22197431,0.2026664
1747679553.8441846,-0.18188366,0.97757137,-0.36773324,-0.07976162,-0.22197431,0.2026664
1747679553.8447216,-0.18188366,0.97757137,-0.36773324,-0.07976162,-0.22197431,0.2026664
1747679553.8452787,-0.18188366,0.97757137,-0.36773324,-0.07976162,-0.22197431,0.2026664
1747679553.8458374,-0.18188366,0.97757137,-0.36773324,-0.07976162,-0.22197431,0.2026664
1747679553.8464017,-0.18188366,0.97757137,-0.36773324,-0.07976162,-0.22197431,0.2026664
1747679553.8469453,-0.18188366,0.97757137,-0.36773324,-0.07976162,-0.22197431,0.2026664
1747679553.8474789,-0.18188366,0.97757137,-0.36773324,-0.07976162,-0.22197431,0.2026664
1747679553.8480117,-0.18188366,0.97757137,-0.36773324,-0.07976162,-0.22197431,0.2026664
1747679553.8485448,-0.18188366,0.97757137,-0.36773324,-0.07976162,-0.22197431,0.2026664
1747679553.8490775,-0.18188366,0.97757137,-0.36773324,-0.07976162,-0.22197431,0.2026664
1747679553.8496103,-0.18188366,0.97757137,-0.36773324,-0.07976162,-0.22197431,0.2026664
1747679553.8501847,-0.18188366,0.97757137,-0.36773324,-0.07976162,-0.22197431,0.2026664
1747679553.8507414,-0.16138285,0.94926065,-0.21007228,-0.07976162,-0.22197431,0.2026664
1747679553.851301,-0.16138285,0.94926065,-0.21007228,-0.07976162,-0.22197431,0.2026664
1747679553.8518543,-0.16138285,0.94926065,-0.21007228,-0.27257434,-0.18469009,0.18881798
1747679553.8524039,-0.16138285,0.94926065,-0.21007228,-0.27257434,-0.18469009,0.18881798
1747679553.852955,-0.16138285,0.94926065,-0.21007228,-0.27257434,-0.18469009,0.18881798
1747679553.8535144,-0.16138285,0.94926065,-0.21007228,-0.27257434,-0.18469009,0.18881798
1747679553.8540695,-0.16138285,0.94926065,-0.21007228,-0.27257434,-0.18469009,0.18881798
1747679553.8546145,-0.16138285,0.94926065,-0.21007228,-0.27257434,-0.18469009,0.18881798
1747679553.8551497,-0.16138285,0.94926065,-0.21007228,-0.27257434,-0.18469009,0.18881798
1747679553.855691,-0.16138285,0.94926065,-0.21007228,-0.27257434,-0.18469009,0.18881798
1747679553.8562331,-0.16138285,0.94926065,-0.21007228,-0.27257434,-0.18469009,0.18881798
1747679553.8567674,-0.16138285,0.94926065,-0.21007228,-0.27257434,-0.18469009,0.18881798
1747679553.8573008,-0.16138285,0.94926065,-0.21007228,-0.27257434,-0.18469009,0.18881798
1747679553.8578348,-0.16138285,0.94926065,-0.21007228,-0.27257434,-0.18469009,0.18881798
1747679553.858397,-0.16138285,0.94926065,-0.21007228,-0.30985856,-0.056858446,0.15366428
1747679553.8589215,-0.16138285,0.94926065,-0.21007228,-0.30985856,-0.056858446,0.15366428
1747679553.859464,-0.16138285,0.94926065,-0.21007228,-0.30985856,-0.056858446,0.15366428
1747679553.859986,-0.16138285,0.94926065,-0.21007228,-0.30985856,-0.056858446,0.15366428
1747679553.8605406,-0.16138285,0.94926065,-0.21007228,-0.30985856,-0.056858446,0.15366428
1747679553.8610866,-0.12916729,0.9126521,-0.06803096,-0.30985856,-0.056858446,0.15366428
1747679553.8616197,-0.12916729,0.9126521,-0.06803096,-0.30985856,-0.056858446,0.15366428
1747679553.8621395,-0.12916729,0.9126521,-0.06803096,-0.30985856,-0.056858446,0.15366428
1747679553.8626583,-0.12916729,0.9126521,-0.06803096,-0.30985856,-0.056858446,0.15366428
1747679553.863177,-0.12916729,0.9126521,-0.06803096,-0.30985856,-0.056858446,0.15366428
1747679553.8637016,-0.12916729,0.9126521,-0.06803096,-0.30985856,-0.056858446,0.15366428
1747679553.864238,-0.12916729,0.9126521,-0.06803096,-0.30985856,-0.056858446,0.15366428
1747679553.8647652,-0.12916729,0.9126521,-0.06803096,-0.30985856,-0.056858446,0.15366428
1747679553.8653245,-0.12916729,0.9126521,-0.06803096,-0.30985856,-0.056858446,0.15366428
1747679553.8658795,-0.12916729,0.9126521,-0.06803096,-0.30985856,-0.056858446,0.15366428
1747679553.866415,-0.12916729,0.9126521,-0.06803096,-0.30985856,-0.056858446,0.15366428
1747679553.8669376,-0.12916729,0.9126521,-0.06803096,-0.30985856,-0.056858446,0.15366428
1747679553.8674588,-0.12916729,0.9126521,-0.06803096,-0.30985856,-0.056858446,0.15366428
1747679553.8679798,-0.12916729,0.9126521,-0.06803096,-0.30985856,-0.056858446,0.15366428
1747679553.8685007,-0.12916729,0.9126521,-0.06803096,-0.30985856,-0.056858446,0.15366428
1747679553.8690217,-0.12916729,0.9126521,-0.06803096,-0.30985856,-0.056858446,0.15366428
1747679553.8695428,-0.12916729,0.9126521,-0.06803096,-0.30985856,-0.056858446,0.15366428
1747679553.8700635,-0.12916729,0.9126521,-0.06803096,-0.30985856,-0.056858446,0.15366428
1747679553.8705904,-0.12916729,0.9126521,-0.06803096,-0.30985856,-0.056858446,0.15366428
1747679553.8711145,-0.16235909,0.8911751,0.011531705,-0.30985856,-0.056858446,0.15366428
1747679553.8716388,-0.16235909,0.8911751,0.011531705,-0.24807326,0.0017310535,0.11318426
1747679553.8721623,-0.16235909,0.8911751,0.011531705,-0.24807326,0.0017310535,0.11318426
1747679553.8726833,-0.16235909,0.8911751,0.011531705,-0.24807326,0.0017310535,0.11318426
1747679553.8732045,-0.16235909,0.8911751,0.011531705,-0.24807326,0.0017310535,0.11318426
1747679553.8737276,-0.16235909,0.8911751,0.011531705,-0.24807326,0.0017310535,0.11318426
1747679553.8742595,-0.16235909,0.8911751,0.011531705,-0.24807326,0.0017310535,0.11318426
1747679553.8747814,-0.16235909,0.8911751,0.011531705,-0.24807326,0.0017310535,0.11318426
1747679553.8753023,-0.16235909,0.8911751,0.011531705,-0.24807326,0.0017310535,0.11318426
1747679553.875826,-0.16235909,0.8911751,0.011531705,-0.24807326,0.0017310535,0.11318426
1747679553.8763776,-0.16235909,0.8911751,0.011531705,-0.24807326,0.0017310535,0.11318426
1747679553.8769205,-0.16235909,0.8911751,0.011531705,-0.24807326,0.0017310535,0.11318426
1747679553.8774564,-0.16235909,0.8911751,0.011531705,-0.24807326,0.0017310535,0.11318426
1747679553.8779783,-0.16235909,0.8911751,0.011531705,-0.24807326,0.0017310535,0.11318426
1747679553.8784997,-0.16235909,0.8911751,0.011531705,-0.24807326,0.0017310535,0.11318426
1747679553.8790236,-0.16235909,0.8911751,0.011531705,-0.24807326,0.0017310535,0.11318426
1747679553.879532,-0.16235909,0.8911751,0.011531705,-0.24807326,0.0017310535,0.11318426
1747679553.8800516,-0.16235909,0.8911751,0.011531705,-0.24807326,0.0017310535,0.11318426
1747679553.8805966,-0.16235909,0.8911751,0.011531705,-0.24807326,0.0017310535,0.11318426
1747679553.8811522,-0.16235909,0.8911751,0.011531705,-0.02223738,-0.094142675,0.13235901
1747679553.8816886,-0.16235909,0.8911751,0.011531705,-0.02223738,-0.094142675,0.13235901
1747679553.8822114,-0.16235909,0.8911751,0.011531705,-0.02223738,-0.094142675,0.13235901
1747679553.8833563,-0.16235909,0.8911751,0.011531705,-0.02223738,-0.094142675,0.13235901
1747679553.8839126,-0.16235909,0.8911751,0.011531705,-0.02223738,-0.094142675,0.13235901
1747679553.8844526,-0.16235909,0.8911751,0.011531705,-0.02223738,-0.094142675,0.13235901
1747679553.8849785,-0.16235909,0.8911751,0.011531705,-0.02223738,-0.094142675,0.13235901
1747679553.885497,-0.16235909,0.8911751,0.011531705,-0.02223738,-0.094142675,0.13235901
1747679553.8860154,-0.16235909,0.8911751,0.011531705,-0.02223738,-0.094142675,0.13235901
1747679553.8865333,-0.16235909,0.8911751,0.011531705,-0.02223738,-0.094142675,0.13235901
1747679553.8870516,-0.16235909,0.8911751,0.011531705,-0.02223738,-0.094142675,0.13235901
1747679553.8875694,-0.16235909,0.8911751,0.011531705,-0.02223738,-0.094142675,0.13235901
1747679553.8880877,-0.16235909,0.8911751,0.011531705,-0.02223738,-0.094142675,0.13235901
1747679553.8886054,-0.16235909,0.8911751,0.011531705,-0.02223738,-0.094142675,0.13235901
1747679553.8891237,-0.16235909,0.8911751,0.011531705,-0.02223738,-0.094142675,0.13235901
1747679553.8896418,-0.16235909,0.8911751,0.011531705,-0.02223738,-0.094142675,0.13235901
1747679553.8901598,-0.30976966,0.82723206,0.05887881,0.22277325,-0.26458487,0.22077589
1747679553.8906782,-0.30976966,0.82723206,0.05887881,0.22277325,-0.26458487,0.22077589
1747679553.8911963,-0.30976966,0.82723206,0.05887881,0.22277325,-0.26458487,0.22077589
1747679553.8917282,-0.30976966,0.82723206,0.05887881,0.22277325,-0.26458487,0.22077589
1747679553.8922634,-0.30976966,0.82723206,0.05887881,0.22277325,-0.26458487,0.22077589
1747679553.8928003,-0.30976966,0.82723206,0.05887881,0.22277325,-0.26458487,0.22077589
1747679553.8933237,-0.30976966,0.82723206,0.05887881,0.22277325,-0.26458487,0.22077589
1747679553.8938527,-0.30976966,0.82723206,0.05887881,0.22277325,-0.26458487,0.22077589
1747679553.8943925,-0.30976966,0.82723206,0.05887881,0.22277325,-0.26458487,0.22077589
1747679553.89493,-0.30976966,0.82723206,0.05887881,0.22277325,-0.26458487,0.22077589
1747679553.895471,-0.30976966,0.82723206,0.05887881,0.22277325,-0.26458487,0.22077589
1747679553.8960252,-0.30976966,0.82723206,0.05887881,0.22277325,-0.26458487,0.22077589
1747679553.8965833,-0.30976966,0.82723206,0.05887881,0.22277325,-0.26458487,0.22077589
1747679553.8971386,-0.30976966,0.82723206,0.05887881,0.22277325,-0.26458487,0.22077589
1747679553.8976803,-0.30976966,0.82723206,0.05887881,0.22277325,-0.26458487,0.22077589
1747679553.8982134,-0.30976966,0.82723206,0.05887881,0.22277325,-0.26458487,0.22077589
1747679553.8987334,-0.30976966,0.82723206,0.05887881,0.22277325,-0.26458487,0.22077589
1747679553.899252,-0.30976966,0.82723206,0.05887881,0.22277325,-0.26458487,0.22077589
1747679553.8997707,-0.30976966,0.82723206,0.05887881,0.22277325,-0.26458487,0.22077589
1747679553.900289,-0.30976966,0.82723206,0.05887881,0.22277325,-0.26458487,0.22077589
1747679553.9008071,-0.30976966,0.82723206,0.05887881,0.22277325,-0.26458487,0.22077589
1747679553.901326,-0.30976966,0.82723206,0.05887881,0.22277325,-0.26458487,0.22077589
1747679553.9018438,-0.30976966,0.82723206,0.05887881,0.22277325,-0.26458487,0.22077589
1747679553.902362,-0.30976966,0.82723206,0.05887881,0.22277325,-0.26458487,0.22077589
1747679553.9028802,-0.30976966,0.82723206,0.05887881,0.22277325,-0.26458487,0.22077589
1747679553.9033985,-0.30976966,0.82723206,0.05887881,0.22277325,-0.26458487,0.22077589
1747679553.9039547,-0.30976966,0.82723206,0.05887881,0.3420828,-0.34661016,0.27723485
1747679553.9044783,-0.29561433,0.8091718,0.0012813006,0.3420828,-0.34661016,0.27723485
1747679553.9049976,-0.29561433,0.8091718,0.0012813006,0.3420828,-0.34661016,0.27723485
1747679553.9055164,-0.29561433,0.8091718,0.0012813006,0.3420828,-0.34661016,0.27723485
1747679553.9060352,-0.29561433,0.8091718,0.0012813006,0.3420828,-0.34661016,0.27723485
1747679553.9065535,-0.29561433,0.8091718,0.0012813006,0.3420828,-0.34661016,0.27723485
1747679553.9070718,-0.29561433,0.8091718,0.0012813006,0.3420828,-0.34661016,0.27723485
1747679553.9075928,-0.29561433,0.8091718,0.0012813006,0.3420828,-0.34661016,0.27723485
1747679553.908142,-0.29561433,0.8091718,0.0012813006,0.3420828,-0.34661016,0.27723485
1747679553.9086792,-0.29561433,0.8091718,0.0012813006,0.3420828,-0.34661016,0.27723485
1747679553.9092083,-0.29561433,0.8091718,0.0012813006,0.3420828,-0.34661016,0.27723485
1747679553.9097414,-0.29561433,0.8091718,0.0012813006,0.3420828,-0.34661016,0.27723485
1747679553.910261,-0.29561433,0.8091718,0.0012813006,0.3420828,-0.34661016,0.27723485
1747679553.9108243,-0.29561433,0.8091718,0.0012813006,0.3420828,-0.34661016,0.27723485
1747679553.9113781,-0.29561433,0.8091718,0.0012813006,0.3420828,-0.34661016,0.27723485
1747679553.9119222,-0.29561433,0.8091718,0.0012813006,0.3420828,-0.34661016,0.27723485
1747679553.9124541,-0.29561433,0.8091718,0.0012813006,0.3420828,-0.34661016,0.27723485
1747679553.9129813,-0.23899306,0.7642653,-0.15833214,0.3420828,-0.34661016,0.27723485
1747679553.9135077,-0.23899306,0.7642653,-0.15833214,0.3420828,-0.34661016,0.27723485
1747679553.9140494,-0.23899306,0.7642653,-0.15833214,0.3420828,-0.34661016,0.27723485
1747679553.9145932,-0.23899306,0.7642653,-0.15833214,0.3420828,-0.34661016,0.27723485
1747679553.9151213,-0.23899306,0.7642653,-0.15833214,0.3420828,-0.34661016,0.27723485
1747679553.9156442,-0.23899306,0.7642653,-0.15833214,0.3420828,-0.34661016,0.27723485
1747679553.9161646,-0.23899306,0.7642653,-0.15833214,0.3420828,-0.34661016,0.27723485
1747679553.9166834,-0.23899306,0.7642653,-0.15833214,0.3420828,-0.34661016,0.27723485
1747679553.9172018,-0.23899306,0.7642653,-0.15833214,0.3420828,-0.34661016,0.27723485
1747679553.9177203,-0.23899306,0.7642653,-0.15833214,0.3420828,-0.34661016,0.27723485
1747679553.9182386,-0.23899306,0.7642653,-0.15833214,0.3420828,-0.34661016,0.27723485
1747679553.9187572,-0.23899306,0.7642653,-0.15833214,0.3420828,-0.34661016,0.27723485
1747679553.9192755,-0.23899306,0.7642653,-0.15833214,0.3420828,-0.34661016,0.27723485
1747679553.9197936,-0.23899306,0.7642653,-0.15833214,0.3420828,-0.34661016,0.27723485
1747679553.9203117,-0.23899306,0.7642653,-0.15833214,0.3420828,-0.34661016,0.27723485
1747679553.9208302,-0.23899306,0.7642653,-0.15833214,0.3420828,-0.34661016,0.27723485
1747679553.9213486,-0.23899306,0.7642653,-0.15833214,0.3420828,-0.34661016,0.27723485
1747679553.921867,-0.23899306,0.7642653,-0.15833214,0.3420828,-0.34661016,0.27723485
1747679553.9223852,-0.23899306,0.7642653,-0.15833214,0.3420828,-0.34661016,0.27723485
1747679553.9229062,-0.23899306,0.7642653,-0.15833214,0.3420828,-0.34661016,0.27723485
1747679553.923462,-0.23899306,0.7642653,-0.15833214,0.3420828,-0.34661016,0.27723485
1747679553.9240098,-0.23899306,0.7642653,-0.15833214,0.3420828,-0.34661016,0.27723485
1747679553.9245458,-0.23899306,0.7642653,-0.15833214,0.3420828,-0.34661016,0.27723485
1747679553.9250813,-0.23899306,0.7642653,-0.15833214,0.3420828,-0.34661016,0.27723485
1747679553.9256144,-0.23899306,0.7642653,-0.15833214,0.3420828,-0.34661016,0.27723485
1747679553.9261713,-0.23899306,0.7642653,-0.15833214,0.3420828,-0.34661016,0.27723485
1747679553.9267187,-0.23899306,0.7642653,-0.15833214,0.3420828,-0.34661016,0.27723485
1747679553.927247,-0.23899306,0.7642653,-0.15833214,0.3420828,-0.34661016,0.27723485
1747679553.9277847,-0.23899306,0.7642653,-0.15833214,0.3420828,-0.34661016,0.27723485
1747679553.9283135,-0.23899306,0.7642653,-0.15833214,0.3420828,-0.34661016,0.27723485
1747679553.9288394,-0.23899306,0.7642653,-0.15833214,0.3420828,-0.34661016,0.27723485
1747679553.9293756,-0.23899306,0.7642653,-0.15833214,0.3420828,-0.34661016,0.27723485
1747679553.9299083,-0.23899306,0.7642653,-0.15833214,0.3420828,-0.34661016,0.27723485
1747679553.9304278,-0.23899306,0.7642653,-0.15833214,0.3420828,-0.34661016,0.27723485
1747679553.9309466,-0.23899306,0.7642653,-0.15833214,0.3420828,-0.34661016,0.27723485
1747679553.9314651,-0.23899306,0.7642653,-0.15833214,0.3420828,-0.34661016,0.27723485
1747679553.9319944,-0.23899306,0.7642653,-0.15833214,0.3420828,-0.34661016,0.27723485
1747679553.9325132,-0.23899306,0.7642653,-0.15833214,0.3420828,-0.34661016,0.27723485
1747679553.9330318,-0.23899306,0.7642653,-0.15833214,0.3420828,-0.34661016,0.27723485
1747679553.9335501,-0.23899306,0.7642653,-0.15833214,0.3420828,-0.34661016,0.27723485
1747679553.9340713,-0.23899306,0.7642653,-0.15833214,0.3420828,-0.34661016,0.27723485
1747679553.9345958,-0.23899306,0.7642653,-0.15833214,0.3420828,-0.34661016,0.27723485
1747679553.9351168,-0.23899306,0.7642653,-0.15833214,0.3420828,-0.34661016,0.27723485
1747679553.9356358,-0.23899306,0.7642653,-0.15833214,0.3420828,-0.34661016,0.27723485
1747679553.9361544,-0.23899306,0.7642653,-0.15833214,0.3420828,-0.34661016,0.27723485
1747679553.9366727,-0.23899306,0.7642653,-0.15833214,0.3420828,-0.34661016,0.27723485
1747679553.9371915,-0.23899306,0.7642653,-0.15833214,0.3420828,-0.34661016,0.27723485
1747679553.9377124,-0.23899306,0.7642653,-0.15833214,0.3420828,-0.34661016,0.27723485
1747679553.938269,-0.23899306,0.7642653,-0.15833214,0.3420828,-0.34661016,0.27723485
1747679553.9388301,-0.23899306,0.7642653,-0.15833214,0.3420828,-0.34661016,0.27723485
1747679553.9393668,-0.23899306,0.7642653,-0.15833214,0.3420828,-0.34661016,0.27723485
1747679553.9398901,-0.23899306,0.7642653,-0.15833214,0.3420828,-0.34661016,0.27723485
1747679553.940411,-0.23899306,0.7642653,-0.15833214,0.3420828,-0.34661016,0.27723485
1747679553.9409301,-0.23899306,0.7642653,-0.15833214,0.3420828,-0.34661016,0.27723485
1747679553.9414883,-0.23899306,0.7642653,-0.15833214,0.3420828,-0.34661016,0.27723485
1747679553.9420516,-0.23899306,0.7642653,-0.15833214,0.3420828,-0.34661016,0.27723485
1747679553.9425883,-0.23899306,0.7642653,-0.15833214,0.3420828,-0.34661016,0.27723485
1747679553.9431112,-0.23899306,0.7642653,-0.15833214,0.3420828,-0.34661016,0.27723485
1747679553.943646,-0.23899306,0.7642653,-0.15833214,0.3420828,-0.34661016,0.27723485
1747679553.9441903,-0.23899306,0.7642653,-0.15833214,0.3420828,-0.34661016,0.27723485
1747679553.9447303,-0.23899306,0.7642653,-0.15833214,0.3420828,-0.34661016,0.27723485
1747679553.9452565,-0.23899306,0.7642653,-0.15833214,0.3420828,-0.34661016,0.27723485
1747679553.945775,-0.23899306,0.7642653,-0.15833214,0.3420828,-0.34661016,0.27723485
1747679553.9462974,-0.23899306,0.7642653,-0.15833214,0.3420828,-0.34661016,0.27723485
1747679553.9468162,-0.23899306,0.7642653,-0.15833214,0.3420828,-0.34661016,0.27723485
1747679553.9473348,-0.23899306,0.7642653,-0.15833214,0.3420828,-0.34661016,0.27723485
1747679553.9478528,-0.23899306,0.7642653,-0.15833214,0.3420828,-0.34661016,0.27723485
1747679553.948371,-0.23899306,0.7642653,-0.15833214,0.3420828,-0.34661016,0.27723485
1747679553.948889,-0.23899306,0.7642653,-0.15833214,0.3420828,-0.34661016,0.27723485
1747679553.9494073,-0.23899306,0.7642653,-0.15833214,0.3420828,-0.34661016,0.27723485
1747679553.9499254,-0.23899306,0.7642653,-0.15833214,0.3420828,-0.34661016,0.27723485
1747679553.9504435,-0.23899306,0.7642653,-0.15833214,0.3420828,-0.34661016,0.27723485
1747679553.9509618,-0.23899306,0.7642653,-0.15833214,0.3420828,-0.34661016,0.27723485
1747679553.9514802,-0.23899306,0.7642653,-0.15833214,0.3420828,-0.34661016,0.27723485
1747679553.9519982,-0.23899306,0.7642653,-0.15833214,0.3420828,-0.34661016,0.27723485
1747679553.952517,-0.23899306,0.7642653,-0.15833214,-0.047803707,-0.37324175,0.5275718
1747679553.9530358,-0.23899306,0.7642653,-0.15833214,-0.047803707,-0.37324175,0.5275718
1747679553.9535666,-0.23899306,0.7642653,-0.15833214,-0.047803707,-0.37324175,0.5275718
1747679553.9541237,-0.23899306,0.7642653,-0.15833214,-0.047803707,-0.37324175,0.5275718
1747679553.9546745,-0.18725292,0.52460104,-0.3189218,-0.23209432,-0.3977428,0.6234456
1747679553.9552445,-0.18725292,0.52460104,-0.3189218,-0.23209432,-0.3977428,0.6234456
1747679553.9557848,-0.18725292,0.52460104,-0.3189218,-0.23209432,-0.3977428,0.6234456
1747679553.9563262,-0.18725292,0.52460104,-0.3189218,-0.23209432,-0.3977428,0.6234456
1747679553.9568856,-0.18725292,0.52460104,-0.3189218,-0.23209432,-0.3977428,0.6234456
1747679553.9574552,-0.18725292,0.52460104,-0.3189218,-0.23209432,-0.3977428,0.6234456
1747679553.958015,-0.18725292,0.52460104,-0.3189218,-0.23209432,-0.3977428,0.6234456
1747679553.958575,-0.18725292,0.52460104,-0.3189218,-0.23209432,-0.3977428,0.6234456
1747679553.959137,-0.18725292,0.52460104,-0.3189218,-0.23209432,-0.3977428,0.6234456
1747679553.9596856,-0.18725292,0.52460104,-0.3189218,-0.36631754,-0.43715757,0.7352982
1747679553.9602275,-0.18725292,0.52460104,-0.3189218,-0.36631754,-0.43715757,0.7352982
1747679553.960771,-0.15698983,0.44699082,-0.24570462,-0.36631754,-0.43715757,0.7352982
1747679553.961316,-0.15698983,0.44699082,-0.24570462,-0.36631754,-0.43715757,0.7352982
1747679553.961874,-0.15698983,0.44699082,-0.24570462,-0.36631754,-0.43715757,0.7352982
1747679553.9624305,-0.15698983,0.44699082,-0.24570462,-0.36631754,-0.43715757,0.7352982
1747679553.962972,-0.15698983,0.44699082,-0.24570462,-0.36631754,-0.43715757,0.7352982
1747679553.9635172,-0.15698983,0.44699082,-0.24570462,-0.36631754,-0.43715757,0.7352982
1747679553.9640656,-0.15698983,0.44699082,-0.24570462,-0.36631754,-0.43715757,0.7352982
1747679553.9646044,-0.15698983,0.44699082,-0.24570462,-0.36631754,-0.43715757,0.7352982
1747679553.9651392,-0.15698983,0.44699082,-0.24570462,-0.36631754,-0.43715757,0.7352982
1747679553.9656668,-0.15698983,0.44699082,-0.24570462,-0.36631754,-0.43715757,0.7352982
1747679553.9661944,-0.15698983,0.44699082,-0.24570462,-0.36631754,-0.43715757,0.7352982
1747679553.9667215,-0.15698983,0.44699082,-0.24570462,-0.36631754,-0.43715757,0.7352982
1747679553.967249,-0.15698983,0.44699082,-0.24570462,-0.36631754,-0.43715757,0.7352982
1747679553.9677742,-0.15698983,0.44699082,-0.24570462,-0.36631754,-0.43715757,0.7352982
1747679553.9682996,-0.15698983,0.44699082,-0.24570462,-0.36631754,-0.43715757,0.7352982
1747679553.9688332,-0.15698983,0.44699082,-0.24570462,-0.36631754,-0.43715757,0.7352982
1747679553.9693701,-0.15698983,0.44699082,-0.24570462,-0.36631754,-0.43715757,0.7352982
1747679553.9698956,-0.15698983,0.44699082,-0.24570462,-0.36631754,-0.43715757,0.7352982
1747679553.970438,-0.15698983,0.44699082,-0.24570462,-0.36631754,-0.43715757,0.7352982
1747679553.97105,-0.15698983,0.44699082,-0.24570462,-0.43236387,-0.45739758,0.83436775
1747679553.971585,-0.12526238,0.37914294,-0.18664278,-0.43236387,-0.45739758,0.83436775
1747679553.9721415,-0.12526238,0.37914294,-0.18664278,-0.43236387,-0.45739758,0.83436775
1747679553.9727035,-0.12526238,0.37914294,-0.18664278,-0.43236387,-0.45739758,0.83436775
1747679553.973241,-0.12526238,0.37914294,-0.18664278,-0.43236387,-0.45739758,0.83436775
1747679553.9737725,-0.12526238,0.37914294,-0.18664278,-0.43236387,-0.45739758,0.83436775
1747679553.9743176,-0.12526238,0.37914294,-0.18664278,-0.43236387,-0.45739758,0.83436775
1747679553.9748545,-0.12526238,0.37914294,-0.18664278,-0.43236387,-0.45739758,0.83436775
1747679553.975377,-0.12526238,0.37914294,-0.18664278,-0.43236387,-0.45739758,0.83436775
1747679553.9758983,-0.12526238,0.37914294,-0.18664278,-0.43236387,-0.45739758,0.83436775
1747679553.9764192,-0.12526238,0.37914294,-0.18664278,-0.43236387,-0.45739758,0.83436775
1747679553.9769397,-0.12526238,0.37914294,-0.18664278,-0.43236387,-0.45739758,0.83436775
1747679553.9774606,-0.12526238,0.37914294,-0.18664278,-0.43236387,-0.45739758,0.83436775
1747679553.977981,-0.12526238,0.37914294,-0.18664278,-0.43236387,-0.45739758,0.83436775
1747679553.9785018,-0.12526238,0.37914294,-0.18664278,-0.43236387,-0.45739758,0.83436775
1747679553.9790256,-0.12526238,0.37914294,-0.18664278,-0.43236387,-0.45739758,0.83436775
1747679553.979534,-0.12526238,0.37914294,-0.18664278,-0.43236387,-0.45739758,0.83436775
1747679553.9800549,-0.0920706,0.2634598,-0.11293749,-0.43236387,-0.45739758,0.83436775
1747679553.9805732,-0.0920706,0.2634598,-0.11293749,-0.43236387,-0.45739758,0.83436775
1747679553.981121,-0.0920706,0.2634598,-0.11293749,-0.48030075,-0.45526704,0.9877657
1747679553.9816394,-0.0920706,0.2634598,-0.11293749,-0.48030075,-0.45526704,0.9877657
1747679553.9821572,-0.0920706,0.2634598,-0.11293749,-0.48030075,-0.45526704,0.9877657
1747679553.9826753,-0.0920706,0.2634598,-0.11293749,-0.48030075,-0.45526704,0.9877657
1747679553.9831932,-0.0920706,0.2634598,-0.11293749,-0.48030075,-0.45526704,0.9877657
1747679553.9837139,-0.0920706,0.2634598,-0.11293749,-0.48030075,-0.45526704,0.9877657
1747679553.9842353,-0.0920706,0.2634598,-0.11293749,-0.48030075,-0.45526704,0.9877657
1747679553.9847562,-0.0920706,0.2634598,-0.11293749,-0.48030075,-0.45526704,0.9877657
1747679553.985312,-0.0920706,0.2634598,-0.11293749,-0.48030075,-0.45526704,0.9877657
1747679553.9858599,-0.0920706,0.2634598,-0.11293749,-0.48030075,-0.45526704,0.9877657
1747679553.9863927,-0.0920706,0.2634598,-0.11293749,-0.48030075,-0.45526704,0.9877657
1747679553.9869125,-0.0920706,0.2634598,-0.11293749,-0.48030075,-0.45526704,0.9877657
1747679553.9874597,-0.0920706,0.2634598,-0.11293749,-0.48030075,-0.45526704,0.9877657
1747679553.988012,-0.0920706,0.2634598,-0.11293749,-0.48030075,-0.45526704,0.9877657
1747679553.9885373,-0.0920706,0.2634598,-0.11293749,-0.48030075,-0.45526704,0.9877657
1747679553.989057,-0.0920706,0.2634598,-0.11293749,-0.48030075,-0.45526704,0.9877657
1747679553.9895778,-0.0920706,0.2634598,-0.11293749,-0.48030075,-0.45526704,0.9877657
1747679553.9900987,-0.08035585,0.18682583,-0.058268666,-0.48030075,-0.45526704,0.9877657
1747679553.9906178,-0.08035585,0.18682583,-0.058268666,-0.47071338,-0.47976813,1.1113364
1747679553.9911368,-0.08035585,0.18682583,-0.058268666,-0.47071338,-0.47976813,1.1113364
1747679553.9916553,-0.08035585,0.18682583,-0.058268666,-0.47071338,-0.47976813,1.1113364
1747679553.9921737,-0.08035585,0.18682583,-0.058268666,-0.47071338,-0.47976813,1.1113364
1747679553.9926918,-0.08035585,0.18682583,-0.058268666,-0.47071338,-0.47976813,1.1113364
1747679553.9932098,-0.08035585,0.18682583,-0.058268666,-0.47071338,-0.47976813,1.1113364
1747679553.9937308,-0.08035585,0.18682583,-0.058268666,-0.47071338,-0.47976813,1.1113364
1747679553.994262,-0.08035585,0.18682583,-0.058268666,-0.47071338,-0.47976813,1.1113364
1747679553.994788,-0.08035585,0.18682583,-0.058268666,-0.47071338,-0.47976813,1.1113364
1747679553.9953065,-0.08035585,0.18682583,-0.058268666,-0.47071338,-0.47976813,1.1113364
1747679553.9958248,-0.08035585,0.18682583,-0.058268666,-0.47071338,-0.47976813,1.1113364
1747679553.9963434,-0.08035585,0.18682583,-0.058268666,-0.47071338,-0.47976813,1.1113364
1747679553.9968612,-0.08035585,0.18682583,-0.058268666,-0.47071338,-0.47976813,1.1113364
1747679553.9973795,-0.08035585,0.18682583,-0.058268666,-0.47071338,-0.47976813,1.1113364
1747679553.9978976,-0.08035585,0.18682583,-0.058268666,-0.47071338,-0.47976813,1.1113364
1747679553.9984155,-0.08035585,0.18682583,-0.058268666,-0.47071338,-0.47976813,1.1113364
1747679553.9989336,-0.08035585,0.18682583,-0.058268666,-0.47071338,-0.47976813,1.1113364
1747679553.9994514,-0.08035585,0.18682583,-0.058268666,-0.47071338,-0.47976813,1.1113364
1747679553.9999695,-0.08035585,0.18682583,-0.058268666,-0.47071338,-0.47976813,1.1113364
1747679554.0004907,-0.08035585,0.18682583,-0.058268666,-0.47071338,-0.47976813,1.1113364
1747679554.00104,-0.08035585,0.18682583,-0.058268666,-0.47071338,-0.47976813,1.1113364
1747679554.0015833,-0.08035585,0.18682583,-0.058268666,-0.47071338,-0.47976813,1.1113364
1747679554.0021186,-0.051068977,0.06235663,0.015924735,-0.38655755,-0.568185,1.2892354
1747679554.0026653,-0.051068977,0.06235663,0.015924735,-0.38655755,-0.568185,1.2892354
1747679554.0032246,-0.051068977,0.06235663,0.015924735,-0.38655755,-0.568185,1.2892354
1747679554.0037768,-0.051068977,0.06235663,0.015924735,-0.38655755,-0.568185,1.2892354
1747679554.0043237,-0.051068977,0.06235663,0.015924735,-0.38655755,-0.568185,1.2892354
1747679554.00486,-0.051068977,0.06235663,0.015924735,-0.38655755,-0.568185,1.2892354
1747679554.0053797,-0.051068977,0.06235663,0.015924735,-0.38655755,-0.568185,1.2892354
1747679554.0058985,-0.051068977,0.06235663,0.015924735,-0.38655755,-0.568185,1.2892354
1747679554.0064168,-0.051068977,0.06235663,0.015924735,-0.38655755,-0.568185,1.2892354
1747679554.0069354,-0.051068977,0.06235663,0.015924735,-0.38655755,-0.568185,1.2892354
1747679554.0074532,-0.051068977,0.06235663,0.015924735,-0.38655755,-0.568185,1.2892354
1747679554.0079718,-0.051068977,0.06235663,0.015924735,-0.38655755,-0.568185,1.2892354
1747679554.00849,-0.051068977,0.06235663,0.015924735,-0.38655755,-0.568185,1.2892354
1747679554.0090082,-0.051068977,0.06235663,0.015924735,-0.38655755,-0.568185,1.2892354
1747679554.0095265,-0.051068977,0.06235663,0.015924735,-0.38655755,-0.568185,1.2892354
1747679554.0100448,-0.051068977,0.06235663,0.015924735,-0.38655755,-0.568185,1.2892354
1747679554.0106053,-0.051068977,0.06235663,0.015924735,-0.38655755,-0.568185,1.2892354
1747679554.0111237,-0.051068977,0.06235663,0.015924735,-0.38655755,-0.568185,1.2892354
1747679554.0116422,-0.051068977,0.06235663,0.015924735,-0.38655755,-0.568185,1.2892354
1747679554.0121603,-0.051068977,0.06235663,0.015924735,-0.38655755,-0.568185,1.2892354
1747679554.0126781,-0.051068977,0.06235663,0.015924735,-0.38655755,-0.568185,1.2892354
1747679554.0131962,-0.051068977,0.06235663,0.015924735,-0.38655755,-0.568185,1.2892354
1747679554.0137153,-0.021293996,-0.0059794025,0.032032512,-0.38655755,-0.568185,1.2892354
1747679554.0142376,-0.021293996,-0.0059794025,0.032032512,-0.38655755,-0.568185,1.2892354
1747679554.0147727,-0.021293996,-0.0059794025,0.032032512,-0.38655755,-0.568185,1.2892354
1747679554.0152981,-0.021293996,-0.0059794025,0.032032512,-0.2885533,-0.624644,1.4586122
1747679554.0158172,-0.021293996,-0.0059794025,0.032032512,-0.2885533,-0.624644,1.4586122
1747679554.016338,-0.021293996,-0.0059794025,0.032032512,-0.2885533,-0.624644,1.4586122
1747679554.0168908,-0.021293996,-0.0059794025,0.032032512,-0.2885533,-0.624644,1.4586122
1747679554.0174403,-0.021293996,-0.0059794025,0.032032512,-0.2885533,-0.624644,1.4586122
1747679554.018009,-0.021293996,-0.0059794025,0.032032512,-0.2885533,-0.624644,1.4586122
1747679554.0185611,-0.021293996,-0.0059794025,0.032032512,-0.2885533,-0.624644,1.4586122
1747679554.0190856,-0.021293996,-0.0059794025,0.032032512,-0.2885533,-0.624644,1.4586122
1747679554.0196044,-0.021293996,-0.0059794025,0.032032512,-0.2885533,-0.624644,1.4586122
1747679554.0201228,-0.021293996,-0.0059794025,0.032032512,-0.2885533,-0.624644,1.4586122
1747679554.0206418,-0.021293996,-0.0059794025,0.032032512,-0.2885533,-0.624644,1.4586122
1747679554.0211601,-0.021293996,-0.0059794025,0.032032512,-0.2885533,-0.624644,1.4586122
1747679554.0216787,-0.021293996,-0.0059794025,0.032032512,-0.2885533,-0.624644,1.4586122
1747679554.0221968,-0.021293996,-0.0059794025,0.032032512,-0.2885533,-0.624644,1.4586122
1747679554.0227146,-0.021293996,-0.0059794025,0.032032512,-0.2885533,-0.624644,1.4586122
1747679554.0232327,-0.021293996,-0.0059794025,0.032032512,-0.2885533,-0.624644,1.4586122
1747679554.0237544,-0.021293996,-0.0059794025,0.032032512,-0.16604798,-0.6821682,1.7100145
1747679554.0242863,-0.021293996,-0.0059794025,0.032032512,-0.16604798,-0.6821682,1.7100145
1747679554.024812,-0.021293996,-0.0059794025,0.032032512,-0.16604798,-0.6821682,1.7100145
1747679554.025333,-0.021293996,-0.0059794025,0.032032512,-0.16604798,-0.6821682,1.7100145
1747679554.0258539,0.014826477,-0.12507933,0.018365309,-0.16604798,-0.6821682,1.7100145
1747679554.026373,0.014826477,-0.12507933,0.018365309,-0.16604798,-0.6821682,1.7100145
1747679554.0268912,0.014826477,-0.12507933,0.018365309,-0.16604798,-0.6821682,1.7100145
1747679554.0274093,0.014826477,-0.12507933,0.018365309,-0.16604798,-0.6821682,1.7100145
1747679554.0279276,0.014826477,-0.12507933,0.018365309,-0.16604798,-0.6821682,1.7100145
1747679554.0284457,0.014826477,-0.12507933,0.018365309,-0.16604798,-0.6821682,1.7100145
1747679554.0289638,0.014826477,-0.12507933,0.018365309,-0.16604798,-0.6821682,1.7100145
1747679554.0294816,0.014826477,-0.12507933,0.018365309,-0.16604798,-0.6821682,1.7100145
1747679554.03,0.014826477,-0.12507933,0.018365309,-0.16604798,-0.6821682,1.7100145
1747679554.0305178,0.014826477,-0.12507933,0.018365309,-0.16604798,-0.6821682,1.7100145
1747679554.031036,0.014826477,-0.12507933,0.018365309,-0.16604798,-0.6821682,1.7100145
1747679554.0315537,0.014826477,-0.12507933,0.018365309,-0.16604798,-0.6821682,1.7100145
1747679554.0320878,0.014826477,-0.12507933,0.018365309,-0.16604798,-0.6821682,1.7100145
1747679554.0326748,0.014826477,-0.12507933,0.018365309,-0.16604798,-0.6821682,1.7100145
1747679554.0332534,0.014826477,-0.12507933,0.018365309,-0.16604798,-0.6821682,1.7100145
1747679554.0338254,0.014826477,-0.12507933,0.018365309,-0.07230477,-0.8323704,2.0583556
1747679554.034387,0.014826477,-0.12507933,0.018365309,-0.07230477,-0.8323704,2.0583556
1747679554.034958,0.045089576,-0.2280715,-0.045577694,-0.07230477,-0.8323704,2.0583556
1747679554.0355244,0.045089576,-0.2280715,-0.045577694,-0.07230477,-0.8323704,2.0583556
1747679554.036084,0.045089576,-0.2280715,-0.045577694,-0.07230477,-0.8323704,2.0583556
1747679554.036634,0.045089576,-0.2280715,-0.045577694,-0.07230477,-0.8323704,2.0583556
1747679554.0371816,0.045089576,-0.2280715,-0.045577694,-0.07230477,-0.8323704,2.0583556
1747679554.0377226,0.045089576,-0.2280715,-0.045577694,-0.07230477,-0.8323704,2.0583556
1747679554.0382683,0.045089576,-0.2280715,-0.045577694,-0.07230477,-0.8323704,2.0583556
1747679554.0388136,0.045089576,-0.2280715,-0.045577694,-0.07230477,-0.8323704,2.0583556
1747679554.0393586,0.045089576,-0.2280715,-0.045577694,-0.07230477,-0.8323704,2.0583556
1747679554.039915,0.045089576,-0.2280715,-0.045577694,-0.07230477,-0.8323704,2.0583556
1747679554.0404725,0.045089576,-0.2280715,-0.045577694,-0.07230477,-0.8323704,2.0583556
1747679554.0410295,0.045089576,-0.2280715,-0.045577694,-0.07230477,-0.8323704,2.0583556
1747679554.0415838,0.045089576,-0.2280715,-0.045577694,-0.07230477,-0.8323704,2.0583556
1747679554.042125,0.045089576,-0.2280715,-0.045577694,-0.07230477,-0.8323704,2.0583556
1747679554.042653,0.0997584,-0.29591942,-0.09731783,-0.07017424,-0.9751157,2.3896527
1747679554.0431767,0.0997584,-0.29591942,-0.09731783,-0.07017424,-0.9751157,2.3896527
1747679554.0436993,0.0997584,-0.29591942,-0.09731783,-0.07017424,-0.9751157,2.3896527
1747679554.0442297,0.0997584,-0.29591942,-0.09731783,-0.07017424,-0.9751157,2.3896527
1747679554.0448074,0.0997584,-0.29591942,-0.09731783,-0.07017424,-0.9751157,2.3896527
1747679554.0453312,0.0997584,-0.29591942,-0.09731783,-0.07017424,-0.9751157,2.3896527
1747679554.0458534,0.0997584,-0.29591942,-0.09731783,-0.07017424,-0.9751157,2.3896527
1747679554.0463746,0.0997584,-0.29591942,-0.09731783,-0.07017424,-0.9751157,2.3896527
1747679554.0468936,0.0997584,-0.29591942,-0.09731783,-0.07017424,-0.9751157,2.3896527
1747679554.0474122,0.0997584,-0.29591942,-0.09731783,-0.07017424,-0.9751157,2.3896527
1747679554.0479698,0.0997584,-0.29591942,-0.09731783,-0.07017424,-0.9751157,2.3896527
1747679554.0485322,0.0997584,-0.29591942,-0.09731783,-0.07017424,-0.9751157,2.3896527
1747679554.049082,0.0997584,-0.29591942,-0.09731783,-0.07017424,-0.9751157,2.3896527
1747679554.0496273,0.0997584,-0.29591942,-0.09731783,-0.07017424,-0.9751157,2.3896527
1747679554.050174,0.19640507,-0.37108904,-0.15784402,-0.07017424,-0.9751157,2.3896527
1747679554.0507154,0.19640507,-0.37108904,-0.15784402,-0.19054903,-1.0145304,2.798714
1747679554.0512574,0.19640507,-0.37108904,-0.15784402,-0.19054903,-1.0145304,2.798714
1747679554.0517938,0.19640507,-0.37108904,-0.15784402,-0.19054903,-1.0145304,2.798714
1747679554.0523317,0.19640507,-0.37108904,-0.15784402,-0.19054903,-1.0145304,2.798714
1747679554.0528767,0.19640507,-0.37108904,-0.15784402,-0.19054903,-1.0145304,2.798714
1747679554.0534248,0.19640507,-0.37108904,-0.15784402,-0.19054903,-1.0145304,2.798714
1747679554.0539823,0.19640507,-0.37108904,-0.15784402,-0.19054903,-1.0145304,2.798714
1747679554.054534,0.19640507,-0.37108904,-0.15784402,-0.19054903,-1.0145304,2.798714
1747679554.0550811,0.19640507,-0.37108904,-0.15784402,-0.19054903,-1.0145304,2.798714
1747679554.0556204,0.19640507,-0.37108904,-0.15784402,-0.19054903,-1.0145304,2.798714
1747679554.056158,0.19640507,-0.37108904,-0.15784402,-0.19054903,-1.0145304,2.798714
1747679554.0566947,0.19640507,-0.37108904,-0.15784402,-0.19054903,-1.0145304,2.798714
1747679554.057229,0.19640507,-0.37108904,-0.15784402,-0.19054903,-1.0145304,2.798714
1747679554.0577815,0.19640507,-0.37108904,-0.15784402,-0.19054903,-1.0145304,2.798714
1747679554.058343,0.19640507,-0.37108904,-0.15784402,-0.19054903,-1.0145304,2.798714
1747679554.0588927,0.19640507,-0.37108904,-0.15784402,-0.19054903,-1.0145304,2.798714
1747679554.0594323,0.19640507,-0.37108904,-0.15784402,-0.19054903,-1.0145304,2.798714
1747679554.0599797,0.19640507,-0.37108904,-0.15784402,-0.19054903,-1.0145304,2.798714
1747679554.0605242,0.27645585,-0.40672138,-0.17590426,-0.19054903,-1.0145304,2.798714
1747679554.0610814,0.27645585,-0.40672138,-0.17590426,-0.19054903,-1.0145304,2.798714
1747679554.0616329,0.27645585,-0.40672138,-0.17590426,-0.3386207,-0.92930937,3.0565076
1747679554.0621736,0.27645585,-0.40672138,-0.17590426,-0.3386207,-0.92930937,3.0565076
1747679554.0627236,0.27645585,-0.40672138,-0.17590426,-0.3386207,-0.92930937,3.0565076
1747679554.0633223,0.27645585,-0.40672138,-0.17590426,-0.3386207,-0.92930937,3.0565076
1747679554.0639124,0.27645585,-0.40672138,-0.17590426,-0.3386207,-0.92930937,3.0565076
1747679554.0644755,0.27645585,-0.40672138,-0.17590426,-0.3386207,-0.92930937,3.0565076
1747679554.0650399,0.27645585,-0.40672138,-0.17590426,-0.3386207,-0.92930937,3.0565076
1747679554.065606,0.27645585,-0.40672138,-0.17590426,-0.3386207,-0.92930937,3.0565076
1747679554.0661683,0.27645585,-0.40672138,-0.17590426,-0.3386207,-0.92930937,3.0565076
1747679554.0667176,0.27645585,-0.40672138,-0.17590426,-0.3386207,-0.92930937,3.0565076
1747679554.067274,0.27645585,-0.40672138,-0.17590426,-0.3386207,-0.92930937,3.0565076
1747679554.0678442,0.27645585,-0.40672138,-0.17590426,-0.3386207,-0.92930937,3.0565076
1747679554.0684114,0.27645585,-0.40672138,-0.17590426,-0.3386207,-0.92930937,3.0565076
1747679554.0689723,0.27645585,-0.40672138,-0.17590426,-0.3386207,-0.92930937,3.0565076
1747679554.0695138,0.27645585,-0.40672138,-0.17590426,-0.3386207,-0.92930937,3.0565076
1747679554.0700421,0.27645585,-0.40672138,-0.17590426,-0.3386207,-0.92930937,3.0565076
1747679554.070583,0.27645585,-0.40672138,-0.17590426,-0.3386207,-0.92930937,3.0565076
1747679554.0711505,0.44339103,-0.44284186,-0.1700469,-0.6091976,-0.72797453,3.3878047
1747679554.07172,0.44339103,-0.44284186,-0.1700469,-0.6091976,-0.72797453,3.3878047
1747679554.0722845,0.44339103,-0.44284186,-0.1700469,-0.6091976,-0.72797453,3.3878047
1747679554.0728495,0.44339103,-0.44284186,-0.1700469,-0.6091976,-0.72797453,3.3878047
1747679554.0734074,0.44339103,-0.44284186,-0.1700469,-0.6091976,-0.72797453,3.3878047
1747679554.0739694,0.44339103,-0.44284186,-0.1700469,-0.6091976,-0.72797453,3.3878047
1747679554.074535,0.44339103,-0.44284186,-0.1700469,-0.6091976,-0.72797453,3.3878047
1747679554.0750916,0.44339103,-0.44284186,-0.1700469,-0.6091976,-0.72797453,3.3878047
1747679554.075638,0.44339103,-0.44284186,-0.1700469,-0.6091976,-0.72797453,3.3878047
1747679554.0761704,0.44339103,-0.44284186,-0.1700469,-0.6091976,-0.72797453,3.3878047
1747679554.0766978,0.44339103,-0.44284186,-0.1700469,-0.6091976,-0.72797453,3.3878047
1747679554.0772245,0.44339103,-0.44284186,-0.1700469,-0.6091976,-0.72797453,3.3878047
1747679554.077751,0.44339103,-0.44284186,-0.1700469,-0.6091976,-0.72797453,3.3878047
1747679554.0782776,0.44339103,-0.44284186,-0.1700469,-0.6091976,-0.72797453,3.3878047
1747679554.0788443,0.44339103,-0.44284186,-0.1700469,-0.6091976,-0.72797453,3.3878047
1747679554.0795946,0.44339103,-0.44284186,-0.1700469,-0.6091976,-0.72797453,3.3878047
1747679554.0801508,0.44339103,-0.44284186,-0.1700469,-0.7775093,-0.5777724,3.5337458
1747679554.0806878,0.44339103,-0.44284186,-0.1700469,-0.7775093,-0.5777724,3.5337458
1747679554.0812154,0.44339103,-0.44284186,-0.1700469,-0.7775093,-0.5777724,3.5337458
1747679554.0817394,0.44339103,-0.44284186,-0.1700469,-0.7775093,-0.5777724,3.5337458
1747679554.082264,0.51807255,-0.4804267,-0.13539076,-0.7775093,-0.5777724,3.5337458
1747679554.0827875,0.51807255,-0.4804267,-0.13539076,-0.7775093,-0.5777724,3.5337458
1747679554.083313,0.51807255,-0.4804267,-0.13539076,-0.7775093,-0.5777724,3.5337458
1747679554.0838375,0.51807255,-0.4804267,-0.13539076,-0.7775093,-0.5777724,3.5337458
1747679554.0844142,0.51807255,-0.4804267,-0.13539076,-0.7775093,-0.5777724,3.5337458
1747679554.0849628,0.51807255,-0.4804267,-0.13539076,-0.7775093,-0.5777724,3.5337458
1747679554.085509,0.51807255,-0.4804267,-0.13539076,-0.7775093,-0.5777724,3.5337458
1747679554.0860622,0.51807255,-0.4804267,-0.13539076,-0.7775093,-0.5777724,3.5337458
1747679554.0865908,0.51807255,-0.4804267,-0.13539076,-0.7775093,-0.5777724,3.5337458
1747679554.0871131,0.51807255,-0.4804267,-0.13539076,-0.7775093,-0.5777724,3.5337458
1747679554.0876577,0.51807255,-0.4804267,-0.13539076,-0.7775093,-0.5777724,3.5337458
1747679554.0882037,0.51807255,-0.4804267,-0.13539076,-0.7775093,-0.5777724,3.5337458
1747679554.0887468,0.51807255,-0.4804267,-0.13539076,-0.7775093,-0.5777724,3.5337458
1747679554.0892806,0.51807255,-0.4804267,-0.13539076,-0.7775093,-0.5777724,3.5337458
1747679554.089816,0.51807255,-0.4804267,-0.13539076,-0.7775093,-0.5777724,3.5337458
1747679554.0903482,0.5483356,-0.54681027,-0.040208433,-0.7775093,-0.5777724,3.5337458
1747679554.0908775,0.5483356,-0.54681027,-0.040208433,-0.7775093,-0.5777724,3.5337458
1747679554.0914164,0.5483356,-0.54681027,-0.040208433,-0.9447557,-0.47870284,3.7222974
1747679554.0919547,0.5483356,-0.54681027,-0.040208433,-0.9447557,-0.47870284,3.7222974
1747679554.0924997,0.5483356,-0.54681027,-0.040208433,-0.9447557,-0.47870284,3.7222974
1747679554.0930247,0.5483356,-0.54681027,-0.040208433,-0.9447557,-0.47870284,3.7222974
1747679554.0935843,0.5483356,-0.54681027,-0.040208433,-0.9447557,-0.47870284,3.7222974
1747679554.094144,0.5483356,-0.54681027,-0.040208433,-0.9447557,-0.47870284,3.7222974
1747679554.0946834,0.5483356,-0.54681027,-0.040208433,-0.9447557,-0.47870284,3.7222974
1747679554.0952492,0.5483356,-0.54681027,-0.040208433,-0.9447557,-0.47870284,3.7222974
1747679554.0957901,0.5483356,-0.54681027,-0.040208433,-0.9447557,-0.47870284,3.7222974
1747679554.0963387,0.5483356,-0.54681027,-0.040208433,-0.9447557,-0.47870284,3.7222974
1747679554.096865,0.5483356,-0.54681027,-0.040208433,-0.9447557,-0.47870284,3.7222974
1747679554.097388,0.5483356,-0.54681027,-0.040208433,-0.9447557,-0.47870284,3.7222974
1747679554.097931,0.5483356,-0.54681027,-0.040208433,-0.9447557,-0.47870284,3.7222974
1747679554.0984402,0.5483356,-0.54681027,-0.040208433,-0.9447557,-0.47870284,3.7222974
1747679554.0989642,0.5483356,-0.54681027,-0.040208433,-0.9447557,-0.47870284,3.7222974
1747679554.0994868,0.5483356,-0.54681027,-0.040208433,-0.9447557,-0.47870284,3.7222974
1747679554.1000323,0.5483356,-0.54681027,-0.040208433,-0.9447557,-0.47870284,3.7222974
1747679554.1005504,0.5673721,-0.5956217,0.033496857,-0.9831052,-0.41478702,3.9129796
1747679554.1010756,0.5673721,-0.5956217,0.033496857,-0.9831052,-0.41478702,3.9129796
1747679554.1016142,0.5673721,-0.5956217,0.033496857,-0.9831052,-0.41478702,3.9129796
1747679554.1021414,0.5673721,-0.5956217,0.033496857,-0.9831052,-0.41478702,3.9129796
1747679554.1026638,0.5673721,-0.5956217,0.033496857,-0.9831052,-0.41478702,3.9129796
1747679554.1031883,0.5673721,-0.5956217,0.033496857,-0.9831052,-0.41478702,3.9129796
1747679554.1037512,0.5673721,-0.5956217,0.033496857,-0.9831052,-0.41478702,3.9129796
1747679554.10431,0.5673721,-0.5956217,0.033496857,-0.9831052,-0.41478702,3.9129796
1747679554.1048608,0.5673721,-0.5956217,0.033496857,-0.9831052,-0.41478702,3.9129796
1747679554.1053877,0.5673721,-0.5956217,0.033496857,-0.9831052,-0.41478702,3.9129796
1747679554.1059282,0.5673721,-0.5956217,0.033496857,-0.9831052,-0.41478702,3.9129796
1747679554.1064572,0.5673721,-0.5956217,0.033496857,-0.9831052,-0.41478702,3.9129796
1747679554.1069872,0.5673721,-0.5956217,0.033496857,-0.9831052,-0.41478702,3.9129796
1747679554.1075141,0.5673721,-0.5956217,0.033496857,-0.9831052,-0.41478702,3.9129796
1747679554.1080518,0.5673721,-0.5956217,0.033496857,-0.9831052,-0.41478702,3.9129796
1747679554.1085758,0.5673721,-0.5956217,0.033496857,-0.9831052,-0.41478702,3.9129796
1747679554.1092107,0.5673721,-0.5956217,0.033496857,-0.9831052,-0.41478702,3.9129796
1747679554.109664,0.5673721,-0.5956217,0.033496857,-0.9831052,-0.41478702,3.9129796
1747679554.1102154,0.5673721,-0.5956217,0.033496857,-0.9831052,-0.41478702,3.9129796
1747679554.1107793,0.6332675,-0.67518437,0.13307221,-0.9436904,-0.34980595,4.0866175
1747679554.1112971,0.6332675,-0.67518437,0.13307221,-0.9436904,-0.34980595,4.0866175
1747679554.11182,0.6332675,-0.67518437,0.13307221,-0.9436904,-0.34980595,4.0866175
1747679554.112343,0.6332675,-0.67518437,0.13307221,-0.9436904,-0.34980595,4.0866175
1747679554.1128688,0.6332675,-0.67518437,0.13307221,-0.9436904,-0.34980595,4.0866175
1747679554.1133916,0.6332675,-0.67518437,0.13307221,-0.9436904,-0.34980595,4.0866175
1747679554.1139357,0.6332675,-0.67518437,0.13307221,-0.9436904,-0.34980595,4.0866175
1747679554.1144507,0.6332675,-0.67518437,0.13307221,-0.9436904,-0.34980595,4.0866175
1747679554.1149745,0.6332675,-0.67518437,0.13307221,-0.9436904,-0.34980595,4.0866175
1747679554.1154997,0.6332675,-0.67518437,0.13307221,-0.9436904,-0.34980595,4.0866175
1747679554.1160226,0.6332675,-0.67518437,0.13307221,-0.9436904,-0.34980595,4.0866175
1747679554.1165457,0.6332675,-0.67518437,0.13307221,-0.9436904,-0.34980595,4.0866175
1747679554.1170685,0.6332675,-0.67518437,0.13307221,-0.9436904,-0.34980595,4.0866175
1747679554.1175916,0.6332675,-0.67518437,0.13307221,-0.9436904,-0.34980595,4.0866175
1747679554.1181142,0.6332675,-0.67518437,0.13307221,-0.9436904,-0.34980595,4.0866175
1747679554.1186378,0.6332675,-0.67518437,0.13307221,-0.9436904,-0.34980595,4.0866175
1747679554.1191607,0.6332675,-0.67518437,0.13307221,-0.9436904,-0.34980595,4.0866175
1747679554.1196861,0.6332675,-0.67518437,0.13307221,-0.9436904,-0.34980595,4.0866175
1747679554.1202364,0.6332675,-0.67518437,0.13307221,-0.9436904,-0.34980595,4.0866175
1747679554.1207857,0.6332675,-0.67518437,0.13307221,-0.9436904,-0.34980595,4.0866175
1747679554.1213083,0.6332675,-0.67518437,0.13307221,-0.9436904,-0.34980595,4.0866175
1747679554.1218657,0.7269855,-0.7259483,0.22581398,-0.9436904,-0.34980595,4.0866175
1747679554.1223907,0.7269855,-0.7259483,0.22581398,-0.9436904,-0.34980595,4.0866175
1747679554.1229463,0.7269855,-0.7259483,0.22581398,-0.8243809,-0.30826068,4.234689
1747679554.123483,0.7269855,-0.7259483,0.22581398,-0.8243809,-0.30826068,4.234689
1747679554.1241508,0.7269855,-0.7259483,0.22581398,-0.8243809,-0.30826068,4.234689
1747679554.1247048,0.7269855,-0.7259483,0.22581398,-0.8243809,-0.30826068,4.234689
1747679554.1252584,0.7269855,-0.7259483,0.22581398,-0.8243809,-0.30826068,4.234689
1747679554.1258037,0.7269855,-0.7259483,0.22581398,-0.8243809,-0.30826068,4.234689
1747679554.1263542,0.7269855,-0.7259483,0.22581398,-0.8243809,-0.30826068,4.234689
1747679554.126869,0.7269855,-0.7259483,0.22581398,-0.8243809,-0.30826068,4.234689
1747679554.1274502,0.7269855,-0.7259483,0.22581398,-0.8243809,-0.30826068,4.234689
1747679554.1279776,0.7269855,-0.7259483,0.22581398,-0.8243809,-0.30826068,4.234689
1747679554.1285043,0.7269855,-0.7259483,0.22581398,-0.8243809,-0.30826068,4.234689
1747679554.1290307,0.7269855,-0.7259483,0.22581398,-0.8243809,-0.30826068,4.234689
1747679554.129557,0.7269855,-0.7259483,0.22581398,-0.8243809,-0.30826068,4.234689
1747679554.1300836,0.7269855,-0.7259483,0.22581398,-0.8243809,-0.30826068,4.234689
1747679554.1306102,0.7269855,-0.7259483,0.22581398,-0.8243809,-0.30826068,4.234689
1747679554.131141,0.7269855,-0.7259483,0.22581398,-0.8243809,-0.30826068,4.234689
1747679554.131674,0.7269855,-0.7259483,0.22581398,-0.49521443,-0.41265652,4.4807653
1747679554.1321828,0.7269855,-0.7259483,0.22581398,-0.49521443,-0.41265652,4.4807653
1747679554.1327145,0.7621298,-0.7562114,0.29659057,-0.49521443,-0.41265652,4.4807653
1747679554.1332521,0.7621298,-0.7562114,0.29659057,-0.49521443,-0.41265652,4.4807653
1747679554.1337934,0.7621298,-0.7562114,0.29659057,-0.49521443,-0.41265652,4.4807653
1747679554.1343315,0.7621298,-0.7562114,0.29659057,-0.49521443,-0.41265652,4.4807653
1747679554.13486,0.7621298,-0.7562114,0.29659057,-0.49521443,-0.41265652,4.4807653
1747679554.1353867,0.7621298,-0.7562114,0.29659057,-0.49521443,-0.41265652,4.4807653
1747679554.1359134,0.7621298,-0.7562114,0.29659057,-0.49521443,-0.41265652,4.4807653
1747679554.1364398,0.7621298,-0.7562114,0.29659057,-0.49521443,-0.41265652,4.4807653
1747679554.136966,0.7621298,-0.7562114,0.29659057,-0.49521443,-0.41265652,4.4807653
1747679554.1374917,0.7621298,-0.7562114,0.29659057,-0.49521443,-0.41265652,4.4807653
1747679554.1380181,0.7621298,-0.7562114,0.29659057,-0.49521443,-0.41265652,4.4807653
1747679554.1385438,0.7621298,-0.7562114,0.29659057,-0.49521443,-0.41265652,4.4807653
1747679554.1390696,0.7621298,-0.7562114,0.29659057,-0.49521443,-0.41265652,4.4807653
1747679554.1396632,0.7621298,-0.7562114,0.29659057,-0.49521443,-0.41265652,4.4807653
1747679554.1402242,0.7621298,-0.7562114,0.29659057,-0.49521443,-0.41265652,4.4807653
1747679554.1407802,0.7621298,-0.7562114,0.29659057,-0.49521443,-0.41265652,4.4807653
1747679554.1413345,0.7621298,-0.7562114,0.29659057,-0.49521443,-0.41265652,4.4807653
1747679554.1418893,0.7621298,-0.7562114,0.29659057,-0.21931115,-0.5777724,4.8418894
1747679554.142428,0.7621298,-0.7562114,0.29659057,-0.21931115,-0.5777724,4.8418894
1747679554.1429534,0.7621298,-0.7562114,0.29659057,-0.21931115,-0.5777724,4.8418894
1747679554.1435425,0.7787256,-0.68787533,0.21361111,-0.21931115,-0.5777724,4.8418894
1747679554.1440706,0.7787256,-0.68787533,0.21361111,-0.21931115,-0.5777724,4.8418894
1747679554.1446083,0.7787256,-0.68787533,0.21361111,-0.21931115,-0.5777724,4.8418894
1747679554.145149,0.7787256,-0.68787533,0.21361111,-0.21931115,-0.5777724,4.8418894
1747679554.1456892,0.7787256,-0.68787533,0.21361111,-0.21931115,-0.5777724,4.8418894
1747679554.1462464,0.7787256,-0.68787533,0.21361111,-0.21931115,-0.5777724,4.8418894
1747679554.1467843,0.7787256,-0.68787533,0.21361111,-0.21931115,-0.5777724,4.8418894
1747679554.1473255,0.7787256,-0.68787533,0.21361111,-0.21931115,-0.5777724,4.8418894
1747679554.1478844,0.7787256,-0.68787533,0.21361111,-0.21931115,-0.5777724,4.8418894
1747679554.1484349,0.7787256,-0.68787533,0.21361111,-0.21931115,-0.5777724,4.8418894
1747679554.1489983,0.7787256,-0.68787533,0.21361111,-0.21931115,-0.5777724,4.8418894
1747679554.1495297,0.7787256,-0.68787533,0.21361111,-0.21931115,-0.5777724,4.8418894
1747679554.1500783,0.7787256,-0.68787533,0.21361111,-0.21931115,-0.5777724,4.8418894
1747679554.1506264,0.7787256,-0.68787533,0.21361111,-0.21931115,-0.5777724,4.8418894
1747679554.1511765,0.7787256,-0.68787533,0.21361111,-0.21931115,-0.5777724,4.8418894
1747679554.1517289,0.7787256,-0.68787533,0.21361111,-0.21931115,-0.5777724,4.8418894
1747679554.152315,0.7787256,-0.68787533,0.21361111,-0.12876374,-0.5862945,5.369195
1747679554.1529064,0.7787256,-0.68787533,0.21361111,-0.12876374,-0.5862945,5.369195
1747679554.1534429,0.8768367,-0.61319387,-0.00067115744,-0.12876374,-0.5862945,5.369195
1747679554.1540015,0.8768367,-0.61319387,-0.00067115744,-0.12876374,-0.5862945,5.369195
1747679554.1546965,0.8768367,-0.61319387,-0.00067115744,-0.12876374,-0.5862945,5.369195
1747679554.1552327,0.8768367,-0.61319387,-0.00067115744,-0.12876374,-0.5862945,5.369195
1747679554.1557868,0.8768367,-0.61319387,-0.00067115744,-0.12876374,-0.5862945,5.369195
1747679554.1563377,0.8768367,-0.61319387,-0.00067115744,-0.12876374,-0.5862945,5.369195
1747679554.1568942,0.8768367,-0.61319387,-0.00067115744,-0.12876374,-0.5862945,5.369195
1747679554.1576087,0.8768367,-0.61319387,-0.00067115744,-0.12876374,-0.5862945,5.369195
1747679554.1581745,0.8768367,-0.61319387,-0.00067115744,-0.12876374,-0.5862945,5.369195
1747679554.1587172,0.8768367,-0.61319387,-0.00067115744,-0.12876374,-0.5862945,5.369195
1747679554.159271,0.8768367,-0.61319387,-0.00067115744,-0.12876374,-0.5862945,5.369195
1747679554.1598392,0.8768367,-0.61319387,-0.00067115744,-0.12876374,-0.5862945,5.369195
1747679554.16042,0.8768367,-0.61319387,-0.00067115744,-0.12876374,-0.5862945,5.369195
1747679554.1609795,0.8768367,-0.61319387,-0.00067115744,-0.12876374,-0.5862945,5.369195
1747679554.1615458,0.8768367,-0.61319387,-0.00067115744,-0.12876374,-0.5862945,5.369195
1747679554.1623755,0.8768367,-0.61319387,-0.00067115744,-0.12876374,-0.5862945,5.369195
1747679554.16303,1.1438353,-0.5419291,-0.20470302,-0.32903332,-0.24114905,6.1052923
1747679554.163634,1.1438353,-0.5419291,-0.20470302,-0.32903332,-0.24114905,6.1052923
1747679554.1642332,1.1438353,-0.5419291,-0.20470302,-0.32903332,-0.24114905,6.1052923
1747679554.164778,1.1438353,-0.5419291,-0.20470302,-0.32903332,-0.24114905,6.1052923
1747679554.1653044,1.1438353,-0.5419291,-0.20470302,-0.32903332,-0.24114905,6.1052923
1747679554.165849,1.1438353,-0.5419291,-0.20470302,-0.32903332,-0.24114905,6.1052923
1747679554.1663995,1.1438353,-0.5419291,-0.20470302,-0.32903332,-0.24114905,6.1052923
1747679554.1669402,1.1438353,-0.5419291,-0.20470302,-0.32903332,-0.24114905,6.1052923
1747679554.1675067,1.1438353,-0.5419291,-0.20470302,-0.32903332,-0.24114905,6.1052923
1747679554.1680577,1.1438353,-0.5419291,-0.20470302,-0.32903332,-0.24114905,6.1052923
1747679554.1686094,1.1438353,-0.5419291,-0.20470302,-0.32903332,-0.24114905,6.1052923
1747679554.169164,1.1438353,-0.5419291,-0.20470302,-0.32903332,-0.24114905,6.1052923
1747679554.1697295,1.1438353,-0.5419291,-0.20470302,-0.32903332,-0.24114905,6.1052923
1747679554.1702974,1.6617248,-0.48774838,-0.30915952,-0.32903332,-0.24114905,6.1052923
1747679554.1708393,1.6617248,-0.48774838,-0.30915952,-0.32903332,-0.24114905,6.1052923
1747679554.171379,1.6617248,-0.48774838,-0.30915952,-0.5452818,0.05392897,6.53992
1747679554.1719143,1.6617248,-0.48774838,-0.30915952,-0.5452818,0.05392897,6.53992
1747679554.1724436,1.6617248,-0.48774838,-0.30915952,-0.5452818,0.05392897,6.53992
1747679554.1729875,1.6617248,-0.48774838,-0.30915952,-0.5452818,0.05392897,6.53992
1747679554.173533,1.6617248,-0.48774838,-0.30915952,-0.5452818,0.05392897,6.53992
1747679554.17408,1.6617248,-0.48774838,-0.30915952,-0.5452818,0.05392897,6.53992
1747679554.1746264,1.6617248,-0.48774838,-0.30915952,-0.5452818,0.05392897,6.53992
1747679554.1751904,1.6617248,-0.48774838,-0.30915952,-0.5452818,0.05392897,6.53992
1747679554.1757307,1.6617248,-0.48774838,-0.30915952,-0.5452818,0.05392897,6.53992
1747679554.176274,1.6617248,-0.48774838,-0.30915952,-0.5452818,0.05392897,6.53992
1747679554.176828,1.6617248,-0.48774838,-0.30915952,-0.5452818,0.05392897,6.53992
1747679554.1773734,1.6617248,-0.48774838,-0.30915952,-0.5452818,0.05392897,6.53992
1747679554.177924,1.6617248,-0.48774838,-0.30915952,-0.5452818,0.05392897,6.53992
1747679554.1784801,1.6617248,-0.48774838,-0.30915952,-0.5452818,0.05392897,6.53992
1747679554.1790295,1.6617248,-0.48774838,-0.30915952,-0.796684,0.2467417,6.7998443
1747679554.1795564,1.6617248,-0.48774838,-0.30915952,-0.796684,0.2467417,6.7998443
1747679554.1801097,1.6617248,-0.48774838,-0.30915952,-0.796684,0.2467417,6.7998443
1747679554.1806865,2.5017698,-0.45602098,-0.33649394,-0.796684,0.2467417,6.7998443
1747679554.1812296,2.5017698,-0.45602098,-0.33649394,-0.796684,0.2467417,6.7998443
1747679554.1817808,2.5017698,-0.45602098,-0.33649394,-0.796684,0.2467417,6.7998443
1747679554.1823647,2.5017698,-0.45602098,-0.33649394,-0.796684,0.2467417,6.7998443
1747679554.182894,2.5017698,-0.45602098,-0.33649394,-0.796684,0.2467417,6.7998443
1747679554.1834433,2.5017698,-0.45602098,-0.33649394,-0.796684,0.2467417,6.7998443
1747679554.1840038,2.5017698,-0.45602098,-0.33649394,-0.796684,0.2467417,6.7998443
1747679554.1845908,2.5017698,-0.45602098,-0.33649394,-0.796684,0.2467417,6.7998443
1747679554.185148,2.5017698,-0.45602098,-0.33649394,-0.796684,0.2467417,6.7998443
1747679554.1856947,2.5017698,-0.45602098,-0.33649394,-0.796684,0.2467417,6.7998443
1747679554.1862326,2.5017698,-0.45602098,-0.33649394,-0.796684,0.2467417,6.7998443
1747679554.1875155,2.5017698,-0.45602098,-0.33649394,-0.796684,0.2467417,6.7998443
1747679554.1880977,2.5017698,-0.45602098,-0.33649394,-0.796684,0.2467417,6.7998443
1747679554.188662,2.5017698,-0.45602098,-0.33649394,-0.796684,0.2467417,6.7998443
1747679554.189222,2.5017698,-0.45602098,-0.33649394,-0.796684,0.2467417,6.7998443
1747679554.1897635,2.5017698,-0.45602098,-0.33649394,-0.796684,0.2467417,6.7998443
1747679554.1902971,2.5017698,-0.45602098,-0.33649394,-0.796684,0.2467417,6.7998443
1747679554.1908524,2.5017698,-0.45602098,-0.33649394,-0.796684,0.2467417,6.7998443
1747679554.1913984,2.9708478,-0.42526975,-0.34674433,-0.796684,0.2467417,6.7998443
1747679554.1919405,2.9708478,-0.42526975,-0.34674433,-0.796684,0.2467417,6.7998443
1747679554.1925006,2.9708478,-0.42526975,-0.34674433,-0.8701872,0.07310372,6.657099
1747679554.193026,2.9708478,-0.42526975,-0.34674433,-0.8701872,0.07310372,6.657099
1747679554.1935587,2.9708478,-0.42526975,-0.34674433,-0.8701872,0.07310372,6.657099
1747679554.1940987,2.9708478,-0.42526975,-0.34674433,-0.8701872,0.07310372,6.657099
1747679554.1946228,2.9708478,-0.42526975,-0.34674433,-0.8701872,0.07310372,6.657099
1747679554.1951835,2.9708478,-0.42526975,-0.34674433,-0.8701872,0.07310372,6.657099
1747679554.1957302,2.9708478,-0.42526975,-0.34674433,-0.8701872,0.07310372,6.657099
1747679554.1962652,2.9708478,-0.42526975,-0.34674433,-0.8701872,0.07310372,6.657099
1747679554.196775,2.9708478,-0.42526975,-0.34674433,-0.8701872,0.07310372,6.657099
1747679554.1972976,2.9708478,-0.42526975,-0.34674433,-0.8701872,0.07310372,6.657099
1747679554.197821,2.9708478,-0.42526975,-0.34674433,-0.8701872,0.07310372,6.657099
1747679554.1983438,2.9708478,-0.42526975,-0.34674433,-0.8701872,0.07310372,6.657099
1747679554.1988666,2.9708478,-0.42526975,-0.34674433,-0.8701872,0.07310372,6.657099
1747679554.1994033,2.9708478,-0.42526975,-0.34674433,-0.8701872,0.07310372,6.657099
1747679554.1999333,2.9708478,-0.42526975,-0.34674433,-0.8701872,0.07310372,6.657099
1747679554.2004743,2.9708478,-0.42526975,-0.34674433,-0.8701872,0.07310372,6.657099
1747679554.201014,2.9708478,-0.42526975,-0.34674433,-0.8701872,0.07310372,6.657099
1747679554.2015502,2.9708478,-0.42526975,-0.34674433,-0.8701872,0.07310372,6.657099
1747679554.2020953,2.9708478,-0.42526975,-0.34674433,-0.8701872,0.07310372,6.657099
1747679554.2026465,2.9708478,-0.42526975,-0.34674433,-0.8701872,0.07310372,6.657099
1747679554.2032197,2.9708478,-0.42526975,-0.34674433,-0.8701872,0.07310372,6.657099
1747679554.2037504,3.2642047,-0.4125788,-0.3423513,-0.8701872,0.07310372,6.657099
1747679554.2042909,3.2642047,-0.4125788,-0.3423513,-0.8723178,-0.6470145,6.252299
1747679554.204839,3.2642047,-0.4125788,-0.3423513,-0.8723178,-0.6470145,6.252299
1747679554.2053895,3.2642047,-0.4125788,-0.3423513,-0.8723178,-0.6470145,6.252299
1747679554.2059546,3.2642047,-0.4125788,-0.3423513,-0.8723178,-0.6470145,6.252299
1747679554.2064922,3.2642047,-0.4125788,-0.3423513,-0.8723178,-0.6470145,6.252299
1747679554.207025,3.2642047,-0.4125788,-0.3423513,-0.8723178,-0.6470145,6.252299
1747679554.2075481,3.2642047,-0.4125788,-0.3423513,-0.8723178,-0.6470145,6.252299
1747679554.2080727,3.2642047,-0.4125788,-0.3423513,-0.8723178,-0.6470145,6.252299
1747679554.208596,3.2642047,-0.4125788,-0.3423513,-0.8723178,-0.6470145,6.252299
1747679554.2091193,3.2642047,-0.4125788,-0.3423513,-0.8723178,-0.6470145,6.252299
1747679554.2096417,3.2642047,-0.4125788,-0.3423513,-0.8723178,-0.6470145,6.252299
1747679554.2101743,3.252978,-0.4042808,-0.27987266,-0.8744483,-1.1402316,6.1148796
1747679554.210699,3.252978,-0.4042808,-0.27987266,-0.8744483,-1.1402316,6.1148796
1747679554.2112267,3.252978,-0.4042808,-0.27987266,-0.8744483,-1.1402316,6.1148796
1747679554.2117522,3.252978,-0.4042808,-0.27987266,-0.8744483,-1.1402316,6.1148796
1747679554.2122753,3.252978,-0.4042808,-0.27987266,-0.8744483,-1.1402316,6.1148796
1747679554.2128,3.252978,-0.4042808,-0.27987266,-0.8744483,-1.1402316,6.1148796
1747679554.2133446,3.252978,-0.4042808,-0.27987266,-0.8744483,-1.1402316,6.1148796
1747679554.21386,3.252978,-0.4042808,-0.27987266,-0.8744483,-1.1402316,6.1148796
1747679554.2143834,3.252978,-0.4042808,-0.27987266,-0.8744483,-1.1402316,6.1148796
1747679554.214957,3.252978,-0.4042808,-0.27987266,-0.8744483,-1.1402316,6.1148796
1747679554.2155073,3.252978,-0.4042808,-0.27987266,-0.8744483,-1.1402316,6.1148796
1747679554.2160497,3.252978,-0.4042808,-0.27987266,-0.8744483,-1.1402316,6.1148796
1747679554.2165892,3.252978,-0.4042808,-0.27987266,-0.8744483,-1.1402316,6.1148796
1747679554.2171168,3.252978,-0.4042808,-0.27987266,-0.8744483,-1.1402316,6.1148796
1747679554.2176516,3.252978,-0.4042808,-0.27987266,-0.8744483,-1.1402316,6.1148796
1747679554.2181897,3.252978,-0.4042808,-0.27987266,-0.8744483,-1.1402316,6.1148796
1747679554.2187274,3.252978,-0.4042808,-0.27987266,-0.8744483,-1.1402316,6.1148796
1747679554.2192917,3.252978,-0.4042808,-0.27987266,-0.8744483,-1.1402316,6.1148796
1747679554.219831,3.252978,-0.4042808,-0.27987266,-0.8744483,-1.1402316,6.1148796
1747679554.22039,3.252978,-0.4042808,-0.27987266,-0.8744483,-1.1402316,6.1148796
1747679554.2209303,3.252978,-0.4042808,-0.27987266,-0.8744483,-1.1402316,6.1148796
1747679554.2214887,3.252978,-0.4042808,-0.27987266,-0.8744483,-1.1402316,6.1148796
1747679554.2219996,3.252978,-0.4042808,-0.27987266,-0.8744483,-1.1402316,6.1148796
1747679554.222541,3.252978,-0.4042808,-0.27987266,-0.8744483,-1.1402316,6.1148796
1747679554.2230778,3.252978,-0.4042808,-0.27987266,-0.8744483,-1.1402316,6.1148796
1747679554.2236104,3.252978,-0.4042808,-0.27987266,-0.8744483,-1.1402316,6.1148796
1747679554.2241628,3.252978,-0.4042808,-0.27987266,-0.8744483,-1.1402316,6.1148796
1747679554.224705,3.252978,-0.4042808,-0.27987266,-0.8744483,-1.1402316,6.1148796
1747679554.225243,3.252978,-0.4042808,-0.27987266,-0.8744483,-1.1402316,6.1148796
1747679554.2257779,3.252978,-0.4042808,-0.27987266,-0.8744483,-1.1402316,6.1148796
1747679554.2262988,3.252978,-0.4042808,-0.27987266,-0.8744483,-1.1402316,6.1148796
1747679554.226843,3.252978,-0.4042808,-0.27987266,-0.8744483,-1.1402316,6.1148796
1747679554.2273774,3.252978,-0.4042808,-0.27987266,-0.8744483,-1.1402316,6.1148796
1747679554.2279115,3.252978,-0.4042808,-0.27987266,-0.8744483,-1.1402316,6.1148796
1747679554.2284458,3.252978,-0.4042808,-0.27987266,-0.8744483,-1.1402316,6.1148796
1747679554.22898,3.252978,-0.4042808,-0.27987266,-0.8744483,-1.1402316,6.1148796
1747679554.2295146,3.252978,-0.4042808,-0.27987266,-0.8744483,-1.1402316,6.1148796
1747679554.23009,3.252978,-0.4042808,-0.27987266,-0.8744483,-1.1402316,6.1148796
1747679554.2306402,3.252978,-0.4042808,-0.27987266,-0.8744483,-1.1402316,6.1148796
1747679554.231222,3.2602997,-0.19976085,-0.31013575,-1.087501,-1.2669979,6.5420504
1747679554.23174,3.2602997,-0.19976085,-0.31013575,-1.087501,-1.2669979,6.5420504
1747679554.232283,3.2602997,-0.19976085,-0.31013575,-1.087501,-1.2669979,6.5420504
1747679554.2328181,3.2602997,-0.19976085,-0.31013575,-1.087501,-1.2669979,6.5420504
1747679554.233355,3.2602997,-0.19976085,-0.31013575,-1.087501,-1.2669979,6.5420504
1747679554.2338996,3.2602997,-0.19976085,-0.31013575,-1.087501,-1.2669979,6.5420504
1747679554.2344449,3.2602997,-0.19976085,-0.31013575,-1.087501,-1.2669979,6.5420504
1747679554.234987,3.2602997,-0.19976085,-0.31013575,-1.087501,-1.2669979,6.5420504
1747679554.2355337,3.2602997,-0.19976085,-0.31013575,-1.087501,-1.2669979,6.5420504
1747679554.2360873,3.2602997,-0.19976085,-0.31013575,-1.087501,-1.2669979,6.5420504
1747679554.23663,3.2602997,-0.19976085,-0.31013575,-1.087501,-1.2669979,6.5420504
1747679554.237166,3.2602997,-0.19976085,-0.31013575,-1.087501,-1.2669979,6.5420504
1747679554.2377014,3.2602997,-0.19976085,-0.31013575,-1.087501,-1.2669979,6.5420504
1747679554.2382364,3.2602997,-0.19976085,-0.31013575,-1.087501,-1.2669979,6.5420504
1747679554.238771,3.2602997,-0.19976085,-0.31013575,-1.087501,-1.2669979,6.5420504
1747679554.239306,3.2602997,-0.19976085,-0.31013575,-1.087501,-1.2669979,6.5420504
1747679554.239844,3.6117425,-0.0030507157,-0.3286841,-1.261139,-0.46165863,7.131141
1747679554.2403834,3.6117425,-0.0030507157,-0.3286841,-1.261139,-0.46165863,7.131141
1747679554.2409186,3.6117425,-0.0030507157,-0.3286841,-1.261139,-0.46165863,7.131141
1747679554.2414527,3.6117425,-0.0030507157,-0.3286841,-1.261139,-0.46165863,7.131141
1747679554.241973,3.6117425,-0.0030507157,-0.3286841,-1.261139,-0.46165863,7.131141
1747679554.242512,3.6117425,-0.0030507157,-0.3286841,-1.261139,-0.46165863,7.131141
1747679554.243051,3.6117425,-0.0030507157,-0.3286841,-1.261139,-0.46165863,7.131141
1747679554.2435853,3.6117425,-0.0030507157,-0.3286841,-1.261139,-0.46165863,7.131141
1747679554.24413,3.6117425,-0.0030507157,-0.3286841,-1.261139,-0.46165863,7.131141
1747679554.2446797,3.6117425,-0.0030507157,-0.3286841,-1.261139,-0.46165863,7.131141
1747679554.2452605,3.6117425,-0.0030507157,-0.3286841,-1.261139,-0.46165863,7.131141
1747679554.2458217,3.6117425,-0.0030507157,-0.3286841,-1.261139,-0.46165863,7.131141
1747679554.2463782,3.6117425,-0.0030507157,-0.3286841,-1.261139,-0.46165863,7.131141
1747679554.24694,3.6117425,-0.0030507157,-0.3286841,-1.261139,-0.46165863,7.131141
1747679554.247492,3.6117425,-0.0030507157,-0.3286841,-1.261139,-0.46165863,7.131141
1747679554.2480447,3.6117425,-0.0030507157,-0.3286841,-1.261139,-0.46165863,7.131141
1747679554.2486112,3.6117425,-0.0030507157,-0.3286841,-1.261139,-0.46165863,7.131141
1747679554.2491827,3.6117425,-0.0030507157,-0.3286841,-1.261139,-0.46165863,7.131141
1747679554.2497423,3.6117425,-0.0030507157,-0.3286841,-1.261139,-0.46165863,7.131141
1747679554.2502859,3.6117425,-0.0030507157,-0.3286841,-1.261139,-0.46165863,7.131141
1747679554.2508214,3.6117425,-0.0030507157,-0.3286841,-1.261139,-0.46165863,7.131141
1747679554.2513628,3.6117425,-0.0030507157,-0.3286841,-1.261139,-0.46165863,7.131141
1747679554.2519135,3.6117425,-0.0030507157,-0.3286841,-1.261139,-0.46165863,7.131141
1747679554.252425,3.6117425,-0.0030507157,-0.3286841,-1.261139,-0.46165863,7.131141
1747679554.252981,4.5987096,0.20439795,-0.5678602,-1.3900359,0.44807652,7.321823
1747679554.2535417,4.5987096,0.20439795,-0.5678602,-1.3900359,0.44807652,7.321823
1747679554.2540958,4.5987096,0.20439795,-0.5678602,-1.3900359,0.44807652,7.321823
1747679554.2546685,4.5987096,0.20439795,-0.5678602,-1.3900359,0.44807652,7.321823
1747679554.2552328,4.5987096,0.20439795,-0.5678602,-1.3900359,0.44807652,7.321823
1747679554.2557874,4.5987096,0.20439795,-0.5678602,-1.3900359,0.44807652,7.321823
1747679554.2563486,4.5987096,0.20439795,-0.5678602,-1.3900359,0.44807652,7.321823
1747679554.2569115,4.5987096,0.20439795,-0.5678602,-1.3900359,0.44807652,7.321823
1747679554.2574651,4.5987096,0.20439795,-0.5678602,-1.3900359,0.44807652,7.321823
1747679554.2580166,4.5987096,0.20439795,-0.5678602,-1.3900359,0.44807652,7.321823
1747679554.2585683,4.5987096,0.20439795,-0.5678602,-1.3900359,0.44807652,7.321823
1747679554.2591193,4.5987096,0.20439795,-0.5678602,-1.3900359,0.44807652,7.321823
1747679554.259672,4.5987096,0.20439795,-0.5678602,-1.3900359,0.44807652,7.321823
1747679554.2602234,4.5987096,0.20439795,-0.5678602,-1.3900359,0.44807652,7.321823
1747679554.2607996,4.5987096,0.20439795,-0.5678602,-1.3900359,0.44807652,7.321823
1747679554.2613719,4.5987096,0.20439795,-0.5678602,-1.3900359,0.44807652,7.321823
1747679554.261928,4.5987096,0.20439795,-0.5678602,-1.3900359,0.44807652,7.321823
1747679554.2629528,5.4660892,0.30885443,-1.2116833,-1.8417077,0.15939008,6.3939786
1747679554.2635036,5.4660892,0.30885443,-1.2116833,-1.8417077,0.15939008,6.3939786
1747679554.2640676,5.4660892,0.30885443,-1.2116833,-1.8417077,0.15939008,6.3939786
1747679554.2646136,5.4660892,0.30885443,-1.2116833,-1.8417077,0.15939008,6.3939786
1747679554.2651637,5.4660892,0.30885443,-1.2116833,-1.8417077,0.15939008,6.3939786
1747679554.2657135,5.4660892,0.30885443,-1.2116833,-1.8417077,0.15939008,6.3939786
1747679554.266261,5.4660892,0.30885443,-1.2116833,-1.8417077,0.15939008,6.3939786
1747679554.2668142,5.4660892,0.30885443,-1.2116833,-1.8417077,0.15939008,6.3939786
1747679554.2673812,5.4660892,0.30885443,-1.2116833,-1.8417077,0.15939008,6.3939786
1747679554.267937,5.4660892,0.30885443,-1.2116833,-1.8417077,0.15939008,6.3939786
1747679554.2684937,5.4660892,0.30885443,-1.2116833,-1.8417077,0.15939008,6.3939786
1747679554.2690396,5.4660892,0.30885443,-1.2116833,-1.8417077,0.15939008,6.3939786
1747679554.2695925,5.4660892,0.30885443,-1.2116833,-1.8417077,0.15939008,6.3939786
1747679554.2701473,5.4660892,0.30885443,-1.2116833,-1.8417077,0.15939008,6.3939786
1747679554.2706997,5.4660892,0.30885443,-1.2116833,-1.8417077,0.15939008,6.3939786
1747679554.2712512,5.4660892,0.30885443,-1.2116833,-1.8417077,0.15939008,6.3939786
1747679554.2718003,5.4660892,0.30885443,-1.2116833,-1.8417077,0.15939008,6.3939786
1747679554.272353,5.4660892,0.30885443,-1.2116833,-1.8417077,0.15939008,6.3939786
1747679554.2729108,5.4338737,0.35034418,-1.7325015,-2.610828,-0.6427534,5.365999
1747679554.2734616,5.4338737,0.35034418,-1.7325015,-2.610828,-0.6427534,5.365999
1747679554.274031,5.4338737,0.35034418,-1.7325015,-2.610828,-0.6427534,5.365999
1747679554.2745948,5.4338737,0.35034418,-1.7325015,-2.610828,-0.6427534,5.365999
1747679554.2751474,5.4338737,0.35034418,-1.7325015,-2.610828,-0.6427534,5.365999
1747679554.2759068,5.4338737,0.35034418,-1.7325015,-2.610828,-0.6427534,5.365999
1747679554.2764804,5.4338737,0.35034418,-1.7325015,-2.610828,-0.6427534,5.365999
1747679554.277042,5.4338737,0.35034418,-1.7325015,-2.610828,-0.6427534,5.365999
1747679554.2775927,5.4338737,0.35034418,-1.7325015,-2.610828,-0.6427534,5.365999
1747679554.2781522,5.4338737,0.35034418,-1.7325015,-2.610828,-0.6427534,5.365999
1747679554.278688,4.579185,0.32886714,-1.9570341,-2.610828,-0.6427534,5.365999
1747679554.279214,4.579185,0.32886714,-1.9570341,-2.610828,-0.6427534,5.365999
1747679554.2797213,4.579185,0.32886714,-1.9570341,-4.582631,-1.7389097,4.4381547
1747679554.280241,4.579185,0.32886714,-1.9570341,-4.582631,-1.7389097,4.4381547
1747679554.2807593,4.579185,0.32886714,-1.9570341,-4.582631,-1.7389097,4.4381547
1747679554.2812784,4.579185,0.32886714,-1.9570341,-4.582631,-1.7389097,4.4381547
1747679554.2817993,4.579185,0.32886714,-1.9570341,-4.582631,-1.7389097,4.4381547
1747679554.2823534,4.579185,0.32886714,-1.9570341,-4.582631,-1.7389097,4.4381547
1747679554.2828996,4.579185,0.32886714,-1.9570341,-4.582631,-1.7389097,4.4381547
1747679554.2834327,4.579185,0.32886714,-1.9570341,-4.582631,-1.7389097,4.4381547
1747679554.2839558,4.579185,0.32886714,-1.9570341,-4.582631,-1.7389097,4.4381547
1747679554.2844875,4.579185,0.32886714,-1.9570341,-4.582631,-1.7389097,4.4381547
1747679554.2850132,4.579185,0.32886714,-1.9570341,-4.582631,-1.7389097,4.4381547
1747679554.2855322,4.579185,0.32886714,-1.9570341,-4.582631,-1.7389097,4.4381547
1747679554.2860508,4.579185,0.32886714,-1.9570341,-4.582631,-1.7389097,4.4381547
1747679554.2865689,4.579185,0.32886714,-1.9570341,-4.582631,-1.7389097,4.4381547
1747679554.2870872,4.579185,0.32886714,-1.9570341,-4.582631,-1.7389097,4.4381547
1747679554.2876055,4.579185,0.32886714,-1.9570341,-4.582631,-1.7389097,4.4381547
1747679554.2881234,4.579185,0.32886714,-1.9570341,-4.582631,-1.7389097,4.4381547
1747679554.2886415,4.579185,0.32886714,-1.9570341,-4.582631,-1.7389097,4.4381547
1747679554.2891603,4.579185,0.32886714,-1.9570341,-4.582631,-1.7389097,4.4381547
1747679554.2896793,3.6659226,0.18829016,-1.206314,-6.3946443,-2.176733,4.6916876
1747679554.290198,3.6659226,0.18829016,-1.206314,-6.3946443,-2.176733,4.6916876
1747679554.2907164,3.6659226,0.18829016,-1.206314,-6.3946443,-2.176733,4.6916876
1747679554.2912707,3.6659226,0.18829016,-1.206314,-6.3946443,-2.176733,4.6916876
1747679554.2918055,3.6659226,0.18829016,-1.206314,-6.3946443,-2.176733,4.6916876
1747679554.2923257,3.6659226,0.18829016,-1.206314,-6.3946443,-2.176733,4.6916876
1747679554.2928722,3.6659226,0.18829016,-1.206314,-6.3946443,-2.176733,4.6916876
1747679554.2933908,3.6659226,0.18829016,-1.206314,-6.3946443,-2.176733,4.6916876
1747679554.293909,3.6659226,0.18829016,-1.206314,-6.3946443,-2.176733,4.6916876
1747679554.2944295,3.6659226,0.18829016,-1.206314,-6.3946443,-2.176733,4.6916876
1747679554.294954,3.6659226,0.18829016,-1.206314,-6.3946443,-2.176733,4.6916876
1747679554.2954745,3.6659226,0.18829016,-1.206314,-6.3946443,-2.176733,4.6916876
1747679554.2959929,3.6659226,0.18829016,-1.206314,-6.3946443,-2.176733,4.6916876
1747679554.296511,3.6659226,0.18829016,-1.206314,-6.3946443,-2.176733,4.6916876
1747679554.2970293,3.6659226,0.18829016,-1.206314,-6.3946443,-2.176733,4.6916876
1747679554.29755,3.6659226,0.18829016,-1.206314,-6.3946443,-2.176733,4.6916876
1747679554.2981007,3.6659226,0.18829016,-1.206314,-6.3946443,-2.176733,4.6916876
1747679554.2986426,3.6659226,0.18829016,-1.206314,-7.459908,-2.0606194,5.215797
1747679554.2991745,3.435045,0.132157,-0.33844638,-7.459908,-2.0606194,5.215797
1747679554.2996945,3.435045,0.132157,-0.33844638,-7.459908,-2.0606194,5.215797
1747679554.3002133,3.435045,0.132157,-0.33844638,-7.459908,-2.0606194,5.215797
1747679554.300732,3.435045,0.132157,-0.33844638,-7.459908,-2.0606194,5.215797
1747679554.3012502,3.435045,0.132157,-0.33844638,-7.459908,-2.0606194,5.215797
1747679554.3017693,3.435045,0.132157,-0.33844638,-7.459908,-2.0606194,5.215797
1747679554.3022873,3.435045,0.132157,-0.33844638,-7.459908,-2.0606194,5.215797
1747679554.302806,3.435045,0.132157,-0.33844638,-7.459908,-2.0606194,5.215797
1747679554.3033242,3.435045,0.132157,-0.33844638,-7.459908,-2.0606194,5.215797
1747679554.3038454,3.435045,0.132157,-0.33844638,-7.459908,-2.0606194,5.215797
1747679554.3043773,3.435045,0.132157,-0.33844638,-7.459908,-2.0606194,5.215797
1747679554.3049037,3.435045,0.132157,-0.33844638,-7.459908,-2.0606194,5.215797
1747679554.3054223,3.435045,0.132157,-0.33844638,-7.459908,-2.0606194,5.215797
1747679554.3059406,3.435045,0.132157,-0.33844638,-7.459908,-2.0606194,5.215797
1747679554.3064976,3.435045,0.132157,-0.33844638,-7.459908,-2.0606194,5.215797
1747679554.3070574,3.435045,0.132157,-0.33844638,-7.459908,-2.0606194,5.215797
1747679554.3075943,3.435045,0.132157,-0.33844638,-7.459908,-2.0606194,5.215797
1747679554.3081145,3.435045,0.132157,-0.33844638,-7.459908,-2.0606194,5.215797
1747679554.308633,3.435045,0.132157,-0.33844638,-7.459908,-2.0606194,5.215797
1747679554.309152,3.782094,0.1253234,1.0682997,-7.459908,-2.0606194,5.215797
1747679554.309671,3.782094,0.1253234,1.0682997,-7.459908,-2.0606194,5.215797
1747679554.3101914,3.782094,0.1253234,1.0682997,-8.124633,-1.8986993,5.8826523
1747679554.3107104,3.782094,0.1253234,1.0682997,-8.124633,-1.8986993,5.8826523
1747679554.3112292,3.782094,0.1253234,1.0682997,-8.124633,-1.8986993,5.8826523
1747679554.3117478,3.782094,0.1253234,1.0682997,-8.124633,-1.8986993,5.8826523
1747679554.3122663,3.782094,0.1253234,1.0682997,-8.124633,-1.8986993,5.8826523
1747679554.3127847,3.782094,0.1253234,1.0682997,-8.124633,-1.8986993,5.8826523
1747679554.313306,3.782094,0.1253234,1.0682997,-8.124633,-1.8986993,5.8826523
1747679554.3138502,3.782094,0.1253234,1.0682997,-8.124633,-1.8986993,5.8826523
1747679554.3143997,3.782094,0.1253234,1.0682997,-8.124633,-1.8986993,5.8826523
1747679554.314934,3.782094,0.1253234,1.0682997,-8.124633,-1.8986993,5.8826523
1747679554.3154538,3.782094,0.1253234,1.0682997,-8.124633,-1.8986993,5.8826523
1747679554.315972,3.782094,0.1253234,1.0682997,-8.124633,-1.8986993,5.8826523
1747679554.3164904,3.782094,0.1253234,1.0682997,-8.124633,-1.8986993,5.8826523
1747679554.317009,3.782094,0.1253234,1.0682997,-8.124633,-1.8986993,5.8826523
1747679554.3175273,3.782094,0.1253234,1.0682997,-8.124633,-1.8986993,5.8826523
1747679554.3180454,3.782094,0.1253234,1.0682997,-8.124633,-1.8986993,5.8826523
1747679554.3185632,3.782094,0.1253234,1.0682997,-8.124633,-1.8986993,5.8826523
1747679554.3190813,3.782094,0.1253234,1.0682997,-8.124633,-1.8986993,5.8826523
1747679554.3195994,3.782094,0.1253234,1.0682997,-8.124633,-1.8986993,5.8826523
1747679554.3201182,4.2306714,0.3649876,2.050386,-7.876426,-2.116013,5.911414
1747679554.320637,4.2306714,0.3649876,2.050386,-7.876426,-2.116013,5.911414
1747679554.3211555,4.2306714,0.3649876,2.050386,-7.876426,-2.116013,5.911414
1747679554.321712,4.2306714,0.3649876,2.050386,-7.876426,-2.116013,5.911414
1747679554.3222454,4.2306714,0.3649876,2.050386,-7.876426,-2.116013,5.911414
1747679554.3227654,4.2306714,0.3649876,2.050386,-7.876426,-2.116013,5.911414
1747679554.3232841,4.2306714,0.3649876,2.050386,-7.876426,-2.116013,5.911414
1747679554.3238049,4.2306714,0.3649876,2.050386,-7.876426,-2.116013,5.911414
1747679554.3243294,4.2306714,0.3649876,2.050386,-7.876426,-2.116013,5.911414
1747679554.32485,4.2306714,0.3649876,2.050386,-7.876426,-2.116013,5.911414
1747679554.325369,4.2306714,0.3649876,2.050386,-7.876426,-2.116013,5.911414
1747679554.3258872,4.2306714,0.3649876,2.050386,-7.876426,-2.116013,5.911414
1747679554.3264053,4.2306714,0.3649876,2.050386,-7.876426,-2.116013,5.911414
1747679554.3269238,4.2306714,0.3649876,2.050386,-7.876426,-2.116013,5.911414
1747679554.327442,4.2306714,0.3649876,2.050386,-7.876426,-2.116013,5.911414
1747679554.32796,4.2306714,0.3649876,2.050386,-7.876426,-2.116013,5.911414
1747679554.3284779,4.2306714,0.3649876,2.050386,-7.876426,-2.116013,5.911414
1747679554.3289988,4.2306714,0.3649876,2.050386,-7.876426,-2.116013,5.911414
1747679554.32954,4.2306714,0.3649876,2.050386,-7.876426,-2.116013,5.911414
1747679554.330073,4.2306714,0.3649876,2.050386,-7.876426,-2.116013,5.911414
1747679554.3305924,4.2306714,0.3649876,2.050386,-7.876426,-2.116013,5.911414
1747679554.331111,4.2306714,0.3649876,2.050386,-7.876426,-2.116013,5.911414
1747679554.3316293,4.2306714,0.3649876,2.050386,-7.876426,-2.116013,5.911414
1747679554.332148,4.2306714,0.3649876,2.050386,-7.876426,-2.116013,5.911414
1747679554.3326662,4.2306714,0.3649876,2.050386,-7.876426,-2.116013,5.911414
1747679554.333185,4.2306714,0.3649876,2.050386,-7.876426,-2.116013,5.911414
1747679554.333704,4.2306714,0.3649876,2.050386,-7.2436595,-2.454767,5.636576
1747679554.3342261,4.2306714,0.3649876,2.050386,-7.2436595,-2.454767,5.636576
1747679554.3347578,4.2306714,0.3649876,2.050386,-7.2436595,-2.454767,5.636576
1747679554.3352869,4.403464,0.58171046,2.4501517,-7.2436595,-2.454767,5.636576
1747679554.3358064,4.403464,0.58171046,2.4501517,-7.2436595,-2.454767,5.636576
1747679554.3363252,4.403464,0.58171046,2.4501517,-7.2436595,-2.454767,5.636576
1747679554.3368745,4.403464,0.58171046,2.4501517,-7.2436595,-2.454767,5.636576
1747679554.3374271,4.403464,0.58171046,2.4501517,-7.2436595,-2.454767,5.636576
1747679554.3379862,4.403464,0.58171046,2.4501517,-7.2436595,-2.454767,5.636576
1747679554.338545,4.403464,0.58171046,2.4501517,-7.2436595,-2.454767,5.636576
1747679554.3396897,4.403464,0.58171046,2.4501517,-7.2436595,-2.454767,5.636576
1747679554.3402653,4.403464,0.58171046,2.4501517,-7.2436595,-2.454767,5.636576
1747679554.3408031,4.403464,0.58171046,2.4501517,-7.2436595,-2.454767,5.636576
1747679554.3413455,4.403464,0.58171046,2.4501517,-7.2436595,-2.454767,5.636576
1747679554.3418984,4.403464,0.58171046,2.4501517,-7.2436595,-2.454767,5.636576
1747679554.3424373,4.403464,0.58171046,2.4501517,-7.2436595,-2.454767,5.636576
1747679554.342965,4.403464,0.58171046,2.4501517,-7.2436595,-2.454767,5.636576
1747679554.3434923,4.403464,0.58171046,2.4501517,-7.2436595,-2.454767,5.636576
1747679554.3440185,4.403464,0.58171046,2.4501517,-7.2436595,-2.454767,5.636576
1747679554.3445408,4.423965,0.9238787,2.8557749,-5.997301,-2.6646237,4.814193
1747679554.345063,4.423965,0.9238787,2.8557749,-5.997301,-2.6646237,4.814193
1747679554.3456128,4.423965,0.9238787,2.8557749,-5.997301,-2.6646237,4.814193
1747679554.346164,4.423965,0.9238787,2.8557749,-5.997301,-2.6646237,4.814193
1747679554.3466973,4.423965,0.9238787,2.8557749,-5.997301,-2.6646237,4.814193
1747679554.3472168,4.423965,0.9238787,2.8557749,-5.997301,-2.6646237,4.814193
1747679554.347736,4.423965,0.9238787,2.8557749,-5.997301,-2.6646237,4.814193
1747679554.3482542,4.423965,0.9238787,2.8557749,-5.997301,-2.6646237,4.814193
1747679554.348773,4.423965,0.9238787,2.8557749,-5.997301,-2.6646237,4.814193
1747679554.3492918,4.423965,0.9238787,2.8557749,-5.997301,-2.6646237,4.814193
1747679554.34981,4.423965,0.9238787,2.8557749,-5.997301,-2.6646237,4.814193
1747679554.3503282,4.423965,0.9238787,2.8557749,-5.997301,-2.6646237,4.814193
1747679554.3508465,4.423965,0.9238787,2.8557749,-5.997301,-2.6646237,4.814193
1747679554.3513646,4.423965,0.9238787,2.8557749,-5.997301,-2.6646237,4.814193
1747679554.3518827,4.423965,0.9238787,2.8557749,-5.997301,-2.6646237,4.814193
1747679554.3524344,4.423965,0.9238787,2.8557749,-5.997301,-2.6646237,4.814193
1747679554.3529844,3.9719708,1.1318154,2.967553,-5.997301,-2.6646237,4.814193
1747679554.3535216,3.9719708,1.1318154,2.967553,-4.889427,-2.725344,3.9481335
1747679554.3540578,3.9719708,1.1318154,2.967553,-4.889427,-2.725344,3.9481335
1747679554.3545787,3.9719708,1.1318154,2.967553,-4.889427,-2.725344,3.9481335
1747679554.3550975,3.9719708,1.1318154,2.967553,-4.889427,-2.725344,3.9481335
1747679554.3556163,3.9719708,1.1318154,2.967553,-4.889427,-2.725344,3.9481335
1747679554.356135,3.9719708,1.1318154,2.967553,-4.889427,-2.725344,3.9481335
1747679554.3566532,3.9719708,1.1318154,2.967553,-4.889427,-2.725344,3.9481335
1747679554.3571718,3.9719708,1.1318154,2.967553,-4.889427,-2.725344,3.9481335
1747679554.3576899,3.9719708,1.1318154,2.967553,-4.889427,-2.725344,3.9481335
1747679554.358208,3.9719708,1.1318154,2.967553,-4.889427,-2.725344,3.9481335
1747679554.3587263,3.9719708,1.1318154,2.967553,-4.889427,-2.725344,3.9481335
1747679554.3592443,3.9719708,1.1318154,2.967553,-4.889427,-2.725344,3.9481335
1747679554.3597624,3.9719708,1.1318154,2.967553,-4.889427,-2.725344,3.9481335
1747679554.3602831,3.9719708,1.1318154,2.967553,-4.889427,-2.725344,3.9481335
1747679554.3608449,3.9719708,1.1318154,2.967553,-4.889427,-2.725344,3.9481335
1747679554.3613787,3.9719708,1.1318154,2.967553,-4.889427,-2.725344,3.9481335
1747679554.3618982,3.9719708,1.1318154,2.967553,-4.889427,-2.725344,3.9481335
1747679554.3624177,3.9719708,1.1318154,2.967553,-4.889427,-2.725344,3.9481335
1747679554.362936,3.9719708,1.1318154,2.967553,-4.889427,-2.725344,3.9481335
1747679554.3634565,3.1748796,1.3241326,3.0285673,-4.889427,-2.725344,3.9481335
1747679554.3639812,3.1748796,1.3241326,3.0285673,-3.701658,-3.049184,3.2376025
1747679554.3645217,3.1748796,1.3241326,3.0285673,-3.701658,-3.049184,3.2376025
1747679554.3650491,3.1748796,1.3241326,3.0285673,-3.701658,-3.049184,3.2376025
1747679554.3655705,3.1748796,1.3241326,3.0285673,-3.701658,-3.049184,3.2376025
1747679554.3660917,3.1748796,1.3241326,3.0285673,-3.701658,-3.049184,3.2376025
1747679554.3666131,3.1748796,1.3241326,3.0285673,-3.701658,-3.049184,3.2376025
1747679554.3671618,3.1748796,1.3241326,3.0285673,-3.701658,-3.049184,3.2376025
1747679554.3677301,3.1748796,1.3241326,3.0285673,-3.701658,-3.049184,3.2376025
1747679554.3682644,3.1748796,1.3241326,3.0285673,-3.701658,-3.049184,3.2376025
1747679554.3688061,3.1748796,1.3241326,3.0285673,-2.4904532,-3.4060473,2.8445203
1747679554.3693466,3.1748796,1.3241326,3.0285673,-2.4904532,-3.4060473,2.8445203
1747679554.3698738,3.1748796,1.3241326,3.0285673,-2.4904532,-3.4060473,2.8445203
1747679554.3704226,2.3343465,1.4032072,2.8850617,-2.4904532,-3.4060473,2.8445203
1747679554.3709755,2.3343465,1.4032072,2.8850617,-2.4904532,-3.4060473,2.8445203
1747679554.371519,2.3343465,1.4032072,2.8850617,-2.4904532,-3.4060473,2.8445203
1747679554.3720615,2.3343465,1.4032072,2.8850617,-2.4904532,-3.4060473,2.8445203
1747679554.3725972,2.3343465,1.4032072,2.8850617,-2.4904532,-3.4060473,2.8445203
1747679554.3731196,2.3343465,1.4032072,2.8850617,-2.4904532,-3.4060473,2.8445203
1747679554.373641,2.3343465,1.4032072,2.8850617,-2.4904532,-3.4060473,2.8445203
1747679554.3741658,2.3343465,1.4032072,2.8850617,-2.4904532,-3.4060473,2.8445203
1747679554.3747017,2.3343465,1.4032072,2.8850617,-2.4904532,-3.4060473,2.8445203
1747679554.3752286,2.3343465,1.4032072,2.8850617,-2.4904532,-3.4060473,2.8445203
1747679554.3757498,2.3343465,1.4032072,2.8850617,-2.4904532,-3.4060473,2.8445203
1747679554.376274,2.3343465,1.4032072,2.8850617,-2.4904532,-3.4060473,2.8445203
1747679554.376824,2.3343465,1.4032072,2.8850617,-2.4904532,-3.4060473,2.8445203
1747679554.3773782,2.3343465,1.4032072,2.8850617,-2.4904532,-3.4060473,2.8445203
1747679554.377914,2.3343465,1.4032072,2.8850617,-2.4904532,-3.4060473,2.8445203
1747679554.378436,2.3343465,1.4032072,2.8850617,-2.4904532,-3.4060473,2.8445203
1747679554.3789573,2.3343465,1.4032072,2.8850617,-2.4904532,-3.4060473,2.8445203
1747679554.3800735,2.3343465,1.4032072,2.8850617,-2.4904532,-3.4060473,2.8445203
1747679554.3805945,2.3343465,1.4032072,2.8850617,-2.4904532,-3.4060473,2.8445203
1747679554.3811135,2.3343465,1.4032072,2.8850617,-1.2952274,-3.4582453,2.6996443
1747679554.381633,1.5440892,1.4149219,2.4950583,-1.2952274,-3.4582453,2.6996443
1747679554.3821833,1.5440892,1.4149219,2.4950583,-1.2952274,-3.4582453,2.6996443
1747679554.38273,1.5440892,1.4149219,2.4950583,-1.2952274,-3.4582453,2.6996443
1747679554.3832572,1.5440892,1.4149219,2.4950583,-1.2952274,-3.4582453,2.6996443
1747679554.3837812,1.5440892,1.4149219,2.4950583,-1.2952274,-3.4582453,2.6996443
1747679554.3843014,1.5440892,1.4149219,2.4950583,-1.2952274,-3.4582453,2.6996443
1747679554.3848202,1.5440892,1.4149219,2.4950583,-1.2952274,-3.4582453,2.6996443
1747679554.3853388,1.5440892,1.4149219,2.4950583,-1.2952274,-3.4582453,2.6996443
1747679554.385857,1.5440892,1.4149219,2.4950583,-1.2952274,-3.4582453,2.6996443
1747679554.3863754,1.5440892,1.4149219,2.4950583,-1.2952274,-3.4582453,2.6996443
1747679554.3868935,1.5440892,1.4149219,2.4950583,-1.2952274,-3.4582453,2.6996443
1747679554.387412,1.5440892,1.4149219,2.4950583,-1.2952274,-3.4582453,2.6996443
1747679554.3879302,1.5440892,1.4149219,2.4950583,-1.2952274,-3.4582453,2.6996443
1747679554.388449,1.5440892,1.4149219,2.4950583,-1.2952274,-3.4582453,2.6996443
1747679554.3889673,1.5440892,1.4149219,2.4950583,-1.2952274,-3.4582453,2.6996443
1747679554.3894858,1.5440892,1.4149219,2.4950583,-0.7103977,-3.3133695,2.690057
1747679554.3900046,1.1643362,1.4163862,2.221226,-0.7103977,-3.3133695,2.690057
1747679554.3905232,1.1643362,1.4163862,2.221226,-0.7103977,-3.3133695,2.690057
1747679554.3910415,1.1643362,1.4163862,2.221226,-0.7103977,-3.3133695,2.690057
1747679554.3915625,1.1643362,1.4163862,2.221226,-0.7103977,-3.3133695,2.690057
1747679554.3921022,1.1643362,1.4163862,2.221226,-0.7103977,-3.3133695,2.690057
1747679554.3926349,1.1643362,1.4163862,2.221226,-0.7103977,-3.3133695,2.690057
1747679554.3931546,1.1643362,1.4163862,2.221226,-0.7103977,-3.3133695,2.690057
1747679554.3936765,1.1643362,1.4163862,2.221226,-0.7103977,-3.3133695,2.690057
1747679554.394208,1.1643362,1.4163862,2.221226,-0.7103977,-3.3133695,2.690057
1747679554.3947341,1.1643362,1.4163862,2.221226,-0.7103977,-3.3133695,2.690057
1747679554.395253,1.1643362,1.4163862,2.221226,-0.7103977,-3.3133695,2.690057
1747679554.3957715,1.1643362,1.4163862,2.221226,-0.7103977,-3.3133695,2.690057
1747679554.3962898,1.1643362,1.4163862,2.221226,-0.7103977,-3.3133695,2.690057
1747679554.3968081,1.1643362,1.4163862,2.221226,-0.7103977,-3.3133695,2.690057
1747679554.3973567,1.1643362,1.4163862,2.221226,-0.7103977,-3.3133695,2.690057
1747679554.3979025,1.1643362,1.4163862,2.221226,-0.7103977,-3.3133695,2.690057
1747679554.3984394,1.1643362,1.4163862,2.221226,-0.7103977,-3.3133695,2.690057
1747679554.3989701,1.1643362,1.4163862,2.221226,-0.7103977,-3.3133695,2.690057
1747679554.3995059,1.1643362,1.4163862,2.221226,-0.7103977,-3.3133695,2.690057
1747679554.400037,0.8128937,1.3880756,1.9293336,-0.15219954,-3.057706,2.690057
1747679554.4005575,0.8128937,1.3880756,1.9293336,-0.15219954,-3.057706,2.690057
1747679554.4010768,0.8128937,1.3880756,1.9293336,-0.15219954,-3.057706,2.690057
1747679554.4015954,0.8128937,1.3880756,1.9293336,-0.15219954,-3.057706,2.690057
1747679554.4021142,0.8128937,1.3880756,1.9293336,-0.15219954,-3.057706,2.690057
1747679554.4026327,0.8128937,1.3880756,1.9293336,-0.15219954,-3.057706,2.690057
1747679554.403151,0.8128937,1.3880756,1.9293336,-0.15219954,-3.057706,2.690057
1747679554.4036696,0.8128937,1.3880756,1.9293336,-0.15219954,-3.057706,2.690057
1747679554.404191,0.8128937,1.3880756,1.9293336,-0.15219954,-3.057706,2.690057
1747679554.4047225,0.8128937,1.3880756,1.9293336,-0.15219954,-3.057706,2.690057
1747679554.4052484,0.8128937,1.3880756,1.9293336,-0.15219954,-3.057706,2.690057
1747679554.4057674,0.8128937,1.3880756,1.9293336,-0.15219954,-3.057706,2.690057
1747679554.4062858,0.8128937,1.3880756,1.9293336,-0.15219954,-3.057706,2.690057
1747679554.4068043,0.8128937,1.3880756,1.9293336,-0.15219954,-3.057706,2.690057
1747679554.4073255,0.8128937,1.3880756,1.9293336,-0.15219954,-3.057706,2.690057
1747679554.4078796,0.8128937,1.3880756,1.9293336,-0.15219954,-3.057706,2.690057
1747679554.408431,0.8128937,1.3880756,1.9293336,-0.15219954,-3.057706,2.690057
1747679554.4089642,0.8128937,1.3880756,1.9293336,-0.15219954,-3.057706,2.690057
1747679554.4094841,0.8128937,1.3880756,1.9293336,-0.15219954,-3.057706,2.690057
1747679554.410003,0.8128937,1.3880756,1.9293336,-0.15219954,-3.057706,2.690057
1747679554.4105215,0.8128937,1.3880756,1.9293336,-0.15219954,-3.057706,2.690057
1747679554.4110403,0.8128937,1.3880756,1.9293336,-0.15219954,-3.057706,2.690057
1747679554.411559,0.48195204,1.334871,1.6901575,0.28136277,-2.790325,2.7337327
1747679554.412078,0.48195204,1.334871,1.6901575,0.28136277,-2.790325,2.7337327
1747679554.4126072,0.48195204,1.334871,1.6901575,0.28136277,-2.790325,2.7337327
1747679554.4131286,0.48195204,1.334871,1.6901575,0.28136277,-2.790325,2.7337327
1747679554.4136503,0.48195204,1.334871,1.6901575,0.28136277,-2.790325,2.7337327
1747679554.414182,0.48195204,1.334871,1.6901575,0.28136277,-2.790325,2.7337327
1747679554.4147081,0.48195204,1.334871,1.6901575,0.28136277,-2.790325,2.7337327
1747679554.4152272,0.48195204,1.334871,1.6901575,0.28136277,-2.790325,2.7337327
1747679554.4157455,0.48195204,1.334871,1.6901575,0.28136277,-2.790325,2.7337327
1747679554.4162636,0.48195204,1.334871,1.6901575,0.28136277,-2.790325,2.7337327
1747679554.4167821,0.48195204,1.334871,1.6901575,0.28136277,-2.790325,2.7337327
1747679554.4173005,0.48195204,1.334871,1.6901575,0.28136277,-2.790325,2.7337327
1747679554.4178183,0.48195204,1.334871,1.6901575,0.28136277,-2.790325,2.7337327
1747679554.4183366,0.48195204,1.334871,1.6901575,0.28136277,-2.790325,2.7337327
1747679554.4188547,0.48195204,1.334871,1.6901575,0.28136277,-2.790325,2.7337327
1747679554.4193728,0.48195204,1.334871,1.6901575,0.28136277,-2.790325,2.7337327
1747679554.4198909,0.48195204,1.334871,1.6901575,0.28136277,-2.790325,2.7337327
1747679554.4204173,0.48195204,1.334871,1.6901575,0.6169208,-2.4622238,2.871152
1747679554.420936,0.48195204,1.334871,1.6901575,0.6169208,-2.4622238,2.871152
1747679554.4214551,0.19298826,1.3539076,1.4714822,0.6169208,-2.4622238,2.871152
1747679554.4219763,0.19298826,1.3539076,1.4714822,0.6169208,-2.4622238,2.871152
1747679554.422495,0.19298826,1.3539076,1.4714822,0.6169208,-2.4622238,2.871152
1747679554.4230154,0.19298826,1.3539076,1.4714822,0.6169208,-2.4622238,2.871152
1747679554.4235554,0.19298826,1.3539076,1.4714822,0.6169208,-2.4622238,2.871152
1747679554.4240913,0.19298826,1.3539076,1.4714822,0.6169208,-2.4622238,2.871152
1747679554.4246242,0.19298826,1.3539076,1.4714822,0.6169208,-2.4622238,2.871152
1747679554.4251502,0.19298826,1.3539076,1.4714822,0.6169208,-2.4622238,2.871152
1747679554.4256694,0.19298826,1.3539076,1.4714822,0.6169208,-2.4622238,2.871152
1747679554.4261878,0.19298826,1.3539076,1.4714822,0.6169208,-2.4622238,2.871152
1747679554.4267063,0.19298826,1.3539076,1.4714822,0.6169208,-2.4622238,2.871152
1747679554.4272246,0.19298826,1.3539076,1.4714822,0.6169208,-2.4622238,2.871152
1747679554.4277766,0.19298826,1.3539076,1.4714822,0.6169208,-2.4622238,2.871152
1747679554.4283483,0.19298826,1.3539076,1.4714822,0.6169208,-2.4622238,2.871152
1747679554.4289,0.19298826,1.3539076,1.4714822,0.6169208,-2.4622238,2.871152
1747679554.4294417,0.19298826,1.3539076,1.4714822,0.6169208,-2.4622238,2.871152
1747679554.4299748,0.19298826,1.3539076,1.4714822,0.6169208,-2.4622238,2.871152
1747679554.430497,0.19298826,1.3539076,1.4714822,0.6169208,-2.4622238,2.871152
1747679554.4310176,0.19298826,1.3539076,1.4714822,0.87364936,-2.0947077,2.993657
1747679554.431537,0.13246207,1.3958855,1.2801412,0.87364936,-2.0947077,2.993657
1747679554.4320555,0.13246207,1.3958855,1.2801412,0.87364936,-2.0947077,2.993657
1747679554.432575,0.13246207,1.3958855,1.2801412,0.87364936,-2.0947077,2.993657
1747679554.4330935,0.13246207,1.3958855,1.2801412,0.87364936,-2.0947077,2.993657
1747679554.433612,0.13246207,1.3958855,1.2801412,0.87364936,-2.0947077,2.993657
1747679554.4341335,0.13246207,1.3958855,1.2801412,0.87364936,-2.0947077,2.993657
1747679554.434665,0.13246207,1.3958855,1.2801412,0.87364936,-2.0947077,2.993657
1747679554.4351912,0.13246207,1.3958855,1.2801412,0.87364936,-2.0947077,2.993657
1747679554.43571,0.13246207,1.3958855,1.2801412,0.87364936,-2.0947077,2.993657
1747679554.4362285,0.13246207,1.3958855,1.2801412,0.87364936,-2.0947077,2.993657
1747679554.436747,0.13246207,1.3958855,1.2801412,0.87364936,-2.0947077,2.993657
1747679554.4373581,0.13246207,1.3958855,1.2801412,0.87364936,-2.0947077,2.993657
1747679554.4378827,0.13246207,1.3958855,1.2801412,0.87364936,-2.0947077,2.993657
1747679554.4384263,0.13246207,1.3958855,1.2801412,0.87364936,-2.0947077,2.993657
1747679554.4389706,0.13246207,1.3958855,1.2801412,0.87364936,-2.0947077,2.993657
1747679554.4395037,0.13246207,1.3958855,1.2801412,0.87364936,-2.0947077,2.993657
1747679554.4400237,0.13246207,1.3958855,1.2801412,0.87364936,-2.0947077,2.993657
1747679554.4405422,0.13246207,1.3958855,1.2801412,0.87364936,-2.0947077,2.993657
1747679554.4410603,0.13246207,1.3958855,1.2801412,0.87364936,-2.0947077,2.993657
1747679554.4415793,0.13246207,1.3958855,1.2801412,0.87364936,-2.0947077,2.993657
1747679554.442098,0.13246207,1.3958855,1.2801412,0.87364936,-2.0947077,2.993657
1747679554.442617,0.16711819,1.4144338,1.142005,1.0238515,-1.7069519,2.944655
1747679554.4431891,0.16711819,1.4144338,1.142005,1.0238515,-1.7069519,2.944655
1747679554.443737,0.16711819,1.4144338,1.142005,1.0238515,-1.7069519,2.944655
1747679554.4442737,0.16711819,1.4144338,1.142005,1.0238515,-1.7069519,2.944655
1747679554.4448125,0.16711819,1.4144338,1.142005,1.0238515,-1.7069519,2.944655
1747679554.4453344,0.16711819,1.4144338,1.142005,1.0238515,-1.7069519,2.944655
1747679554.4458532,0.16711819,1.4144338,1.142005,1.0238515,-1.7069519,2.944655
1747679554.4463718,0.16711819,1.4144338,1.142005,1.0238515,-1.7069519,2.944655
1747679554.4468899,0.16711819,1.4144338,1.142005,1.0238515,-1.7069519,2.944655
1747679554.4474084,0.16711819,1.4144338,1.142005,1.0238515,-1.7069519,2.944655
1747679554.4479265,0.16711819,1.4144338,1.142005,1.0238515,-1.7069519,2.944655
1747679554.4484484,0.16711819,1.4144338,1.142005,1.0238515,-1.7069519,2.944655
1747679554.448968,0.16711819,1.4144338,1.142005,1.0238515,-1.7069519,2.944655
1747679554.4494896,0.16711819,1.4144338,1.142005,1.0238515,-1.7069519,2.944655
1747679554.4500113,0.16711819,1.4144338,1.142005,1.0238515,-1.7069519,2.944655
1747679554.450535,0.16711819,1.4144338,1.142005,1.0238515,-1.7069519,2.944655
1747679554.4510574,0.16711819,1.4144338,1.142005,1.0238515,-1.7069519,2.944655
1747679554.451576,0.16711819,1.4144338,1.142005,1.0238515,-1.7069519,2.944655
1747679554.4520946,0.16711819,1.4144338,1.142005,1.0238515,-1.7069519,2.944655
1747679554.4526129,0.16711819,1.4144338,1.142005,1.0238515,-1.7069519,2.944655
1747679554.4531314,0.16711819,1.4144338,1.142005,1.0238515,-1.7069519,2.944655
1747679554.4536629,0.17053501,1.4993657,0.9989873,1.1570095,-1.1956253,2.6357286
1747679554.4542413,0.17053501,1.4993657,0.9989873,1.1570095,-1.1956253,2.6357286
1747679554.4547803,0.17053501,1.4993657,0.9989873,1.1570095,-1.1956253,2.6357286
1747679554.4553006,0.17053501,1.4993657,0.9989873,1.1570095,-1.1956253,2.6357286
1747679554.455819,0.17053501,1.4993657,0.9989873,1.1570095,-1.1956253,2.6357286
1747679554.4563372,0.17053501,1.4993657,0.9989873,1.1570095,-1.1956253,2.6357286
1747679554.4568555,0.17053501,1.4993657,0.9989873,1.1570095,-1.1956253,2.6357286
1747679554.4573736,0.17053501,1.4993657,0.9989873,1.1570095,-1.1956253,2.6357286
1747679554.4578927,0.17053501,1.4993657,0.9989873,1.1570095,-1.1956253,2.6357286
1747679554.4586024,0.17053501,1.4993657,0.9989873,1.1570095,-1.1956253,2.6357286
1747679554.459161,0.17053501,1.4993657,0.9989873,1.1570095,-1.1956253,2.6357286
1747679554.4596965,0.17053501,1.4993657,0.9989873,1.1570095,-1.1956253,2.6357286
1747679554.46032,0.17053501,1.4993657,0.9989873,1.1570095,-1.1956253,2.6357286
1747679554.4608676,0.17053501,1.4993657,0.9989873,1.1570095,-1.1956253,2.6357286
1747679554.4614003,0.17053501,1.4993657,0.9989873,1.1570095,-1.1956253,2.6357286
1747679554.4619203,0.17053501,1.4993657,0.9989873,1.1570095,-1.1956253,2.6357286
1747679554.4624395,0.17053501,1.4993657,0.9989873,1.1570095,-1.1956253,2.6357286
1747679554.462958,0.17053501,1.4993657,0.9989873,1.1570095,-1.1956253,2.6357286
1747679554.4634771,-0.119893126,1.5906432,0.79495543,1.1570095,-1.1956253,2.6357286
1747679554.4640062,-0.119893126,1.5906432,0.79495543,1.2326432,-0.62144816,2.0306587
1747679554.4645388,-0.119893126,1.5906432,0.79495543,1.2326432,-0.62144816,2.0306587
1747679554.4650617,-0.119893126,1.5906432,0.79495543,1.2326432,-0.62144816,2.0306587
1747679554.4655828,-0.119893126,1.5906432,0.79495543,1.2326432,-0.62144816,2.0306587
1747679554.4661038,-0.119893126,1.5906432,0.79495543,1.2326432,-0.62144816,2.0306587
1747679554.4666247,-0.119893126,1.5906432,0.79495543,1.2326432,-0.62144816,2.0306587
1747679554.4671457,-0.119893126,1.5906432,0.79495543,1.2326432,-0.62144816,2.0306587
1747679554.4676664,-0.119893126,1.5906432,0.79495543,1.2326432,-0.62144816,2.0306587
1747679554.4681873,-0.119893126,1.5906432,0.79495543,1.2326432,-0.62144816,2.0306587
1747679554.468708,-0.119893126,1.5906432,0.79495543,1.2326432,-0.62144816,2.0306587
1747679554.469246,-0.119893126,1.5906432,0.79495543,1.2326432,-0.62144816,2.0306587
1747679554.4697857,-0.119893126,1.5906432,0.79495543,1.2326432,-0.62144816,2.0306587
1747679554.4703333,-0.119893126,1.5906432,0.79495543,1.2326432,-0.62144816,2.0306587
1747679554.470888,-0.119893126,1.5906432,0.79495543,1.2326432,-0.62144816,2.0306587
1747679554.471424,-0.119893126,1.5906432,0.79495543,1.2326432,-0.62144816,2.0306587
1747679554.4719465,-0.119893126,1.5906432,0.79495543,1.2326432,-0.62144816,2.0306587
1747679554.4724674,-0.119893126,1.5906432,0.79495543,1.2326432,-0.62144816,2.0306587
1747679554.4729886,-0.119893126,1.5906432,0.79495543,1.2326432,-0.62144816,2.0306587
1747679554.4735742,-0.4625495,1.5823452,0.67195064,1.2326432,-0.62144816,2.0306587
1747679554.4741309,-0.4625495,1.5823452,0.67195064,1.2326432,-0.62144816,2.0306587
1747679554.4746861,-0.4625495,1.5823452,0.67195064,1.2326432,-0.62144816,2.0306587
1747679554.4752138,-0.4625495,1.5823452,0.67195064,1.2092074,-0.29441223,1.5907049
1747679554.4757357,-0.4625495,1.5823452,0.67195064,1.2092074,-0.29441223,1.5907049
1747679554.476257,-0.4625495,1.5823452,0.67195064,1.2092074,-0.29441223,1.5907049
1747679554.476778,-0.4625495,1.5823452,0.67195064,1.2092074,-0.29441223,1.5907049
1747679554.477299,-0.4625495,1.5823452,0.67195064,1.2092074,-0.29441223,1.5907049
1747679554.4778209,-0.4625495,1.5823452,0.67195064,1.2092074,-0.29441223,1.5907049
1747679554.4783418,-0.4625495,1.5823452,0.67195064,1.2092074,-0.29441223,1.5907049
1747679554.4788628,-0.4625495,1.5823452,0.67195064,1.2092074,-0.29441223,1.5907049
1747679554.4793985,-0.4625495,1.5823452,0.67195064,1.2092074,-0.29441223,1.5907049
1747679554.4799178,-0.4625495,1.5823452,0.67195064,1.2092074,-0.29441223,1.5907049
1747679554.4804504,-0.4625495,1.5823452,0.67195064,1.2092074,-0.29441223,1.5907049
1747679554.4809816,-0.4625495,1.5823452,0.67195064,1.2092074,-0.29441223,1.5907049
1747679554.4815023,-0.4625495,1.5823452,0.67195064,1.2092074,-0.29441223,1.5907049
1747679554.482021,-0.4625495,1.5823452,0.67195064,1.2092074,-0.29441223,1.5907049
1747679554.4825394,-0.4625495,1.5823452,0.67195064,1.2092074,-0.29441223,1.5907049
1747679554.483058,-0.4625495,1.5823452,0.67195064,1.2092074,-0.29441223,1.5907049
1747679554.4835763,-0.4625495,1.5823452,0.67195064,1.2092074,-0.29441223,1.5907049
1747679554.4840949,-0.843767,1.5618443,0.5987334,1.2092074,-0.29441223,1.5907049
1747679554.484622,-0.843767,1.5618443,0.5987334,1.2092074,-0.29441223,1.5907049
1747679554.4851544,-0.843767,1.5618443,0.5987334,1.1879021,-0.17190692,1.2626038
1747679554.485705,-0.843767,1.5618443,0.5987334,1.1879021,-0.17190692,1.2626038
1747679554.4862523,-0.843767,1.5618443,0.5987334,1.1879021,-0.17190692,1.2626038
1747679554.486786,-0.843767,1.5618443,0.5987334,1.1879021,-0.17190692,1.2626038
1747679554.4873056,-0.843767,1.5618443,0.5987334,1.1879021,-0.17190692,1.2626038
1747679554.4878244,-0.843767,1.5618443,0.5987334,1.1879021,-0.17190692,1.2626038
1747679554.4883432,-0.843767,1.5618443,0.5987334,1.1879021,-0.17190692,1.2626038
1747679554.4889696,-0.843767,1.5618443,0.5987334,1.1879021,-0.17190692,1.2626038
1747679554.4895282,-0.843767,1.5618443,0.5987334,1.1879021,-0.17190692,1.2626038
1747679554.4900663,-0.843767,1.5618443,0.5987334,1.1815106,-0.18362482,1.0761826
1747679554.490648,-1.0263216,1.5696541,0.57091093,1.1815106,-0.18362482,1.0761826
1747679554.4911995,-1.0263216,1.5696541,0.57091093,1.1815106,-0.18362482,1.0761826
1747679554.4917245,-1.0263216,1.5696541,0.57091093,1.1815106,-0.18362482,1.0761826
1747679554.4922438,-1.0263216,1.5696541,0.57091093,1.1815106,-0.18362482,1.0761826
1747679554.492762,-1.0263216,1.5696541,0.57091093,1.1815106,-0.18362482,1.0761826
1747679554.4932804,-1.0263216,1.5696541,0.57091093,1.1815106,-0.18362482,1.0761826
1747679554.493809,-1.0263216,1.5696541,0.57091093,1.1815106,-0.18362482,1.0761826
1747679554.4943337,-1.0263216,1.5696541,0.57091093,1.1815106,-0.18362482,1.0761826
1747679554.494854,-1.0263216,1.5696541,0.57091093,1.1815106,-0.18362482,1.0761826
1747679554.4953723,-1.0263216,1.5696541,0.57091093,1.1815106,-0.18362482,1.0761826
1747679554.4958904,-1.0263216,1.5696541,0.57091093,1.1815106,-0.18362482,1.0761826
1747679554.4964085,-1.0263216,1.5696541,0.57091093,1.1815106,-0.18362482,1.0761826
1747679554.4969268,-1.0263216,1.5696541,0.57091093,1.1815106,-0.18362482,1.0761826
1747679554.4974449,-1.0263216,1.5696541,0.57091093,1.1815106,-0.18362482,1.0761826
1747679554.497963,-1.0263216,1.5696541,0.57091093,1.1815106,-0.18362482,1.0761826
1747679554.4984825,-1.0263216,1.5696541,0.57091093,1.1761842,-0.20706062,1.0005488
1747679554.4990008,-1.0263216,1.5696541,0.57091093,1.1761842,-0.20706062,1.0005488
1747679554.4995189,-1.0263216,1.5696541,0.57091093,1.1761842,-0.20706062,1.0005488
1747679554.5000381,-1.1058844,1.5833215,0.5572437,1.1761842,-0.20706062,1.0005488
1747679554.5005565,-1.1058844,1.5833215,0.5572437,1.1761842,-0.20706062,1.0005488
1747679554.5010772,-1.1058844,1.5833215,0.5572437,1.1761842,-0.20706062,1.0005488
1747679554.5016208,-1.1058844,1.5833215,0.5572437,1.1761842,-0.20706062,1.0005488
1747679554.5021656,-1.1058844,1.5833215,0.5572437,1.1761842,-0.20706062,1.0005488
1747679554.5026982,-1.1058844,1.5833215,0.5572437,1.1761842,-0.20706062,1.0005488
1747679554.5032182,-1.1058844,1.5833215,0.5572437,1.1761842,-0.20706062,1.0005488
1747679554.5037365,-1.1058844,1.5833215,0.5572437,1.1761842,-0.20706062,1.0005488
1747679554.5043025,-1.1058844,1.5833215,0.5572437,1.1761842,-0.20706062,1.0005488
1747679554.5048652,-1.1058844,1.5833215,0.5572437,1.1761842,-0.20706062,1.0005488
1747679554.5054464,-1.1058844,1.5833215,0.5572437,1.1761842,-0.20706062,1.0005488
1747679554.5060148,-1.1058844,1.5833215,0.5572437,1.1761842,-0.20706062,1.0005488
1747679554.5066354,-1.1058844,1.5833215,0.5572437,1.1761842,-0.20706062,1.0005488
1747679554.50722,-1.1058844,1.5833215,0.5572437,1.1761842,-0.20706062,1.0005488
1747679554.5077791,-1.1058844,1.5833215,0.5572437,1.1761842,-0.20706062,1.0005488
1747679554.5083063,-1.1058844,1.5833215,0.5572437,1.1761842,-0.20706062,1.0005488
1747679554.5088258,-1.1058844,1.5833215,0.5572437,1.1761842,-0.20706062,1.0005488
1747679554.5093443,-1.1058844,1.5833215,0.5572437,1.1761842,-0.20706062,1.0005488
1747679554.509865,-1.1058844,1.5833215,0.5572437,1.1761842,-0.20706062,1.0005488
1747679554.510386,-0.99312997,1.5921075,0.5743277,1.1665969,-0.14101428,0.9707215
1747679554.5109046,-0.99312997,1.5921075,0.5743277,1.1665969,-0.14101428,0.9707215
1747679554.5114226,-0.99312997,1.5921075,0.5743277,1.1665969,-0.14101428,0.9707215
1747679554.511941,-0.99312997,1.5921075,0.5743277,1.1665969,-0.14101428,0.9707215
1747679554.512459,-0.99312997,1.5921075,0.5743277,1.1665969,-0.14101428,0.9707215
1747679554.5129774,-0.99312997,1.5921075,0.5743277,1.1665969,-0.14101428,0.9707215
1747679554.5135088,-0.99312997,1.5921075,0.5743277,1.1665969,-0.14101428,0.9707215
1747679554.5140467,-0.99312997,1.5921075,0.5743277,1.1665969,-0.14101428,0.9707215
1747679554.5145726,-0.99312997,1.5921075,0.5743277,1.1665969,-0.14101428,0.9707215
1747679554.515092,-0.99312997,1.5921075,0.5743277,1.1665969,-0.14101428,0.9707215
1747679554.5156107,-0.99312997,1.5921075,0.5743277,1.1665969,-0.14101428,0.9707215
1747679554.516132,-0.99312997,1.5921075,0.5743277,1.1665969,-0.14101428,0.9707215
1747679554.516681,-0.99312997,1.5921075,0.5743277,1.1665969,-0.14101428,0.9707215
1747679554.517227,-0.99312997,1.5921075,0.5743277,1.1665969,-0.14101428,0.9707215
1747679554.5177598,-0.99312997,1.5921075,0.5743277,1.1665969,-0.14101428,0.9707215
1747679554.5182798,-0.99312997,1.5921075,0.5743277,1.1665969,-0.14101428,0.9707215
1747679554.5187988,-0.7183215,1.6023579,0.60312647,1.1665969,-0.14101428,0.9707215
1747679554.5193963,-0.7183215,1.6023579,0.60312647,1.1665969,-0.14101428,0.9707215
1747679554.5199478,-0.7183215,1.6023579,0.60312647,1.1772494,0.11997532,0.85247725
1747679554.5204756,-0.7183215,1.6023579,0.60312647,1.1772494,0.11997532,0.85247725
1747679554.520998,-0.7183215,1.6023579,0.60312647,1.1772494,0.11997532,0.85247725
1747679554.5215297,-0.7183215,1.6023579,0.60312647,1.1772494,0.11997532,0.85247725
1747679554.5220623,-0.7183215,1.6023579,0.60312647,1.1772494,0.11997532,0.85247725
1747679554.5226533,-0.7183215,1.6023579,0.60312647,1.1772494,0.11997532,0.85247725
1747679554.5231724,-0.7183215,1.6023579,0.60312647,1.1772494,0.11997532,0.85247725
1747679554.5237074,-0.7183215,1.6023579,0.60312647,1.1772494,0.11997532,0.85247725
1747679554.5242505,-0.7183215,1.6023579,0.60312647,1.1772494,0.11997532,0.85247725
1747679554.524776,-0.7183215,1.6023579,0.60312647,1.1772494,0.11997532,0.85247725
1747679554.5252943,-0.7183215,1.6023579,0.60312647,1.1772494,0.11997532,0.85247725
1747679554.5258126,-0.7183215,1.6023579,0.60312647,1.1772494,0.11997532,0.85247725
1747679554.526331,-0.7183215,1.6023579,0.60312647,1.1772494,0.11997532,0.85247725
1747679554.5268493,-0.7183215,1.6023579,0.60312647,1.1772494,0.11997532,0.85247725
1747679554.5273674,-0.7183215,1.6023579,0.60312647,1.1772494,0.11997532,0.85247725
1747679554.527886,-0.7183215,1.6023579,0.60312647,1.1772494,0.11997532,0.85247725
1747679554.528404,-0.7183215,1.6023579,0.60312647,1.1772494,0.11997532,0.85247725
1747679554.528922,-0.7183215,1.6023579,0.60312647,1.1772494,0.11997532,0.85247725
1747679554.5294404,-0.7183215,1.6023579,0.60312647,1.1772494,0.11997532,0.85247725
1747679554.5299597,-0.3576049,1.6384783,0.6441281,1.1772494,0.11997532,0.85247725
1747679554.530478,-0.3576049,1.6384783,0.6441281,1.1772494,0.11997532,0.85247725
1747679554.530997,-0.3576049,1.6384783,0.6441281,1.2454263,0.30000487,0.5989445
1747679554.5315158,-0.3576049,1.6384783,0.6441281,1.2454263,0.30000487,0.5989445
1747679554.5320346,-0.3576049,1.6384783,0.6441281,1.2454263,0.30000487,0.5989445
1747679554.5325563,-0.3576049,1.6384783,0.6441281,1.2454263,0.30000487,0.5989445
1747679554.5331128,-0.3576049,1.6384783,0.6441281,1.2454263,0.30000487,0.5989445
1747679554.5336566,-0.3576049,1.6384783,0.6441281,1.2454263,0.30000487,0.5989445
1747679554.534205,-0.3576049,1.6384783,0.6441281,1.2454263,0.30000487,0.5989445
